trial_number,right,flipped,correct,block,left,trials.thisRepN,trials.thisTrialN,trials.thisN,trials.thisIndex,flipwelcome.keys,flipwelcome.corr,flipwelcome.rt,flippreparations.keys,flippreparations.rt,flipInstructions.keys,flipInstructions.rt,time_at_fixation_cross_onset,time_at_videoonset,time_at_videoend,participant_key_response,time_at_key_response,key_resp_4.keys,date,frameRate,expName,participant,
,,,,,,,,,,space,0,6.80590847172,,,,,,,,,,,2018_May_29_1000,59.9492832123,MP-Perception Experiment,x01w19,
,,,,,,,,,,,,,space,11.8452585284,,,,,,,,,2018_May_29_1000,59.9492832123,MP-Perception Experiment,x01w19,
,,,,,,,,,,,,,,,space,30.5077011436,,,,,,,2018_May_29_1000,59.9492832123,MP-Perception Experiment,x01w19,
1,vcgpdm_dyn(30)-lvm(20)_final(4).mov,False,left,0,training(6).mov,0,0,0,119,,,,,,,,10:00:58:070,10:00:58:070,10:01:00:954,left,10:01:01:321,,2018_May_29_1000,59.9492832123,MP-Perception Experiment,x01w19,
2,training(14).mov,False,right,0,vgpdm_dyn(30)-lvm(20)_final(2).mov,0,1,1,123,,,,,,,,10:01:02:115,10:01:02:839,10:01:05:824,right,10:01:06:325,,2018_May_29_1000,59.9492832123,MP-Perception Experiment,x01w19,
3,vgpdm_dyn(25)-lvm(20)_final(4).mov,True,left,0,training(25).mov,0,2,2,140,,,,,,,,10:01:07:118,10:01:07:828,10:01:10:815,left,10:01:11:649,,2018_May_29_1000,59.9492832123,MP-Perception Experiment,x01w19,
4,training(24).mov,False,right,0,vgpdm_dyn(10)-lvm(35)_final(8).mov,0,3,3,60,,,,,,,,10:01:12:435,10:01:13:150,10:01:16:152,right,10:01:16:853,,2018_May_29_1000,59.9492832123,MP-Perception Experiment,x01w19,
5,training(9).mov,True,right,0,vcgpdm_dyn(35)-lvm(25)_final(8).mov,0,4,4,39,,,,,,,,10:01:17:623,10:01:18:354,10:01:21:356,left,10:01:22:524,,2018_May_29_1000,59.9492832123,MP-Perception Experiment,x01w19,
6,training(4).mov,True,right,0,vcgpdm_dyn(10)-lvm(25)_final(5).mov,0,5,5,109,,,,,,,,10:01:23:313,10:01:24:025,10:01:27:029,left,10:01:27:513,,2018_May_29_1000,59.9492832123,MP-Perception Experiment,x01w19,
7,tmp_numprim(3)_final(1).mov,True,left,0,training(6).mov,0,6,6,157,,,,,,,,10:01:28:289,10:01:29:030,10:01:32:016,left,10:01:32:533,,2018_May_29_1000,59.9492832123,MP-Perception Experiment,x01w19,
8,vgpdm_dyn(10)-lvm(5)_final(0).mov,False,left,0,training(41).mov,0,7,7,133,,,,,,,,10:01:33:310,10:01:34:034,10:01:37:054,right,10:01:37:988,,2018_May_29_1000,59.9492832123,MP-Perception Experiment,x01w19,
9,vcgpdm_dyn(5)-lvm(20)_final(2).mov,False,left,0,training(41).mov,0,8,8,34,,,,,,,,10:01:38:763,10:01:39:489,10:01:42:491,right,10:01:43:309,,2018_May_29_1000,59.9492832123,MP-Perception Experiment,x01w19,
10,training(26).mov,True,right,0,vgpdm_dyn(20)-lvm(15)_final(7).mov,0,9,9,81,,,,,,,,10:01:44:102,10:01:44:811,10:01:47:811,left,10:01:48:829,,2018_May_29_1000,59.9492832123,MP-Perception Experiment,x01w19,
11,vcgpdm_dyn(25)-lvm(35)_final(1).mov,True,left,0,training(5).mov,0,10,10,126,,,,,,,,10:01:49:615,10:01:50:330,10:01:53:332,right,10:01:53:783,,2018_May_29_1000,59.9492832123,MP-Perception Experiment,x01w19,
12,vcgpdm_dyn(5)-lvm(20)_final(1).mov,True,left,0,training(8).mov,0,11,11,64,,,,,,,,10:01:54:562,10:01:55:284,10:01:58:271,left,10:01:58:655,,2018_May_29_1000,59.9492832123,MP-Perception Experiment,x01w19,
13,tmp_numprim(3)_final(0).mov,False,left,0,training(6).mov,0,12,12,44,,,,,,,,10:01:59:427,10:02:00:156,10:02:03:160,left,10:02:03:577,,2018_May_29_1000,59.9492832123,MP-Perception Experiment,x01w19,
14,vgpdm_dyn(35)-lvm(5)_final(2).mov,False,left,0,training(35).mov,0,13,13,42,,,,,,,,10:02:04:340,10:02:05:095,10:02:08:080,left,10:02:08:848,,2018_May_29_1000,59.9492832123,MP-Perception Experiment,x01w19,
15,training(17).mov,False,right,0,vgpdm_dyn(35)-lvm(10)_final(4).mov,0,14,14,36,,,,,,,,10:02:09:634,10:02:10:349,10:02:13:351,left,10:02:14:235,,2018_May_29_1000,59.9492832123,MP-Perception Experiment,x01w19,
16,training(23).mov,False,right,0,vcgpdm_dyn(10)-lvm(25)_final(1).mov,0,15,15,97,,,,,,,,10:02:15:024,10:02:15:753,10:02:18:757,right,10:02:19:157,,2018_May_29_1000,59.9492832123,MP-Perception Experiment,x01w19,
17,vgpdm_dyn(10)-lvm(25)_final(8).mov,True,left,0,training(1).mov,0,16,16,11,,,,,,,,10:02:19:940,10:02:20:658,10:02:23:661,left,10:02:24:228,,2018_May_29_1000,59.9492832123,MP-Perception Experiment,x01w19,
18,vcgpdm_dyn(10)-lvm(10)_final(8).mov,False,left,0,training(24).mov,0,17,17,62,,,,,,,,10:02:25:004,10:02:25:729,10:02:28:732,right,10:02:29:265,,2018_May_29_1000,59.9492832123,MP-Perception Experiment,x01w19,
19,training(28).mov,True,right,0,dmp_npsi(30)_final(6).mov,0,18,18,73,,,,,,,,10:02:30:129,10:02:30:766,10:02:33:769,right,10:02:35:104,,2018_May_29_1000,59.9492832123,MP-Perception Experiment,x01w19,
20,vcgpdm_dyn(10)-lvm(5)_final(4).mov,False,left,0,training(35).mov,0,19,19,27,,,,,,,,10:02:35:878,10:02:36:621,10:02:39:606,right,10:02:40:490,,2018_May_29_1000,59.9492832123,MP-Perception Experiment,x01w19,
21,vgpdm_dyn(30)-lvm(25)_final(0).mov,True,left,0,training(41).mov,0,20,20,49,,,,,,,,10:02:41:328,10:02:41:991,10:02:44:994,right,10:02:45:411,,2018_May_29_1000,59.9492832123,MP-Perception Experiment,x01w19,
22,training(4).mov,False,right,0,vcgpdm_dyn(10)-lvm(5)_final(4).mov,0,21,21,128,,,,,,,,10:02:46:183,10:02:46:929,10:02:49:916,left,10:02:50:884,,2018_May_29_1000,59.9492832123,MP-Perception Experiment,x01w19,
23,vgpdm_dyn(35)-lvm(30)_final(0).mov,False,left,0,training(14).mov,0,22,22,1,,,,,,,,10:02:51:669,10:02:52:401,10:02:55:388,right,10:02:56:390,,2018_May_29_1000,59.9492832123,MP-Perception Experiment,x01w19,
24,vcgpdm_dyn(15)-lvm(5)_final(2).mov,False,left,0,training(9).mov,0,23,23,115,,,,,,,,10:02:57:160,10:02:57:907,10:03:00:910,left,10:03:01:560,,2018_May_29_1000,59.9492832123,MP-Perception Experiment,x01w19,
25,vcgpdm_dyn(20)-lvm(15)_final(0).mov,False,left,0,training(11).mov,0,24,24,125,,,,,,,,10:03:02:338,10:03:03:078,10:03:06:064,left,10:03:06:431,,2018_May_29_1000,59.9492832123,MP-Perception Experiment,x01w19,
26,dmp_npsi(25)_final(1).mov,True,left,0,training(31).mov,0,25,25,142,,,,,,,,10:03:07:205,10:03:07:932,10:03:10:934,left,10:03:11:336,,2018_May_29_1000,59.9492832123,MP-Perception Experiment,x01w19,
27,training(24).mov,True,right,0,vgpdm_dyn(30)-lvm(10)_final(1).mov,0,26,26,51,,,,,,,,10:03:12:971,10:03:12:971,10:03:15:839,right,10:03:16:457,,2018_May_29_1000,59.9492832123,MP-Perception Experiment,x01w19,
28,training(4).mov,True,right,0,vcgpdm_dyn(30)-lvm(35)_final(0).mov,0,27,27,30,,,,,,,,10:03:17:237,10:03:17:957,10:03:20:977,right,10:03:21:394,,2018_May_29_1000,59.9492832123,MP-Perception Experiment,x01w19,
29,tmp_numprim(2)_final(3).mov,True,left,0,training(4).mov,0,28,28,96,,,,,,,,10:03:22:159,10:03:22:895,10:03:25:914,left,10:03:26:298,,2018_May_29_1000,59.9492832123,MP-Perception Experiment,x01w19,
30,dmp_npsi(25)_final(5).mov,False,left,0,training(28).mov,0,29,29,28,,,,,,,,10:03:27:096,10:03:27:814,10:03:30:817,left,10:03:31:184,,2018_May_29_1000,59.9492832123,MP-Perception Experiment,x01w19,
31,vgpdm_dyn(30)-lvm(30)_final(7).mov,False,left,0,training(3).mov,0,30,30,8,,,,,,,,10:03:31:982,10:03:32:685,10:03:35:688,left,10:03:36:622,,2018_May_29_1000,59.9492832123,MP-Perception Experiment,x01w19,
32,vcgpdm_dyn(30)-lvm(5)_final(5).mov,True,left,0,training(23).mov,0,31,31,145,,,,,,,,10:03:37:394,10:03:38:125,10:03:41:127,right,10:03:41:578,,2018_May_29_1000,59.9492832123,MP-Perception Experiment,x01w19,
33,training(2).mov,False,right,0,vgpdm_dyn(25)-lvm(35)_final(7).mov,0,32,32,100,,,,,,,,10:03:42:417,10:03:43:079,10:03:46:082,left,10:03:46:449,,2018_May_29_1000,59.9492832123,MP-Perception Experiment,x01w19,
34,training(33).mov,True,right,0,dmp_npsi(35)_final(3).mov,0,33,33,110,,,,,,,,10:03:47:238,10:03:47:950,10:03:50:969,right,10:03:51:670,,2018_May_29_1000,59.9492832123,MP-Perception Experiment,x01w19,
35,training(11).mov,True,right,0,vcgpdm_dyn(25)-lvm(35)_final(0).mov,0,34,34,131,,,,,,,,10:03:52:475,10:03:53:171,10:03:56:174,right,10:03:56:941,,2018_May_29_1000,59.9492832123,MP-Perception Experiment,x01w19,
36,training(37).mov,False,right,0,vgpdm_dyn(25)-lvm(30)_final(0).mov,0,35,35,32,,,,,,,,10:03:57:720,10:03:58:442,10:04:01:461,right,10:04:01:912,,2018_May_29_1000,59.9492832123,MP-Perception Experiment,x01w19,
37,training(16).mov,True,right,0,vgpdm_dyn(30)-lvm(35)_final(9).mov,0,36,36,144,,,,,,,,10:04:02:708,10:04:03:414,10:04:06:416,left,10:04:06:917,,2018_May_29_1000,59.9492832123,MP-Perception Experiment,x01w19,
38,map_cgpdm_final(8).mov,False,left,0,training(5).mov,0,37,37,143,,,,,,,,10:04:07:693,10:04:08:418,10:04:11:420,left,10:04:11:921,,2018_May_29_1000,59.9492832123,MP-Perception Experiment,x01w19,
39,tmp_numprim(8)_final(5).mov,True,left,0,training(21).mov,0,38,38,107,,,,,,,,10:04:13:585,10:04:13:586,10:04:16:441,left,10:04:16:890,,2018_May_29_1000,59.9492832123,MP-Perception Experiment,x01w19,
40,training(29).mov,False,right,0,vgpdm_dyn(25)-lvm(30)_final(3).mov,0,39,39,86,,,,,,,,10:04:17:677,10:04:18:391,10:04:21:394,right,10:04:21:795,,2018_May_29_1000,59.9492832123,MP-Perception Experiment,x01w19,
41,training(41).mov,True,right,0,vgpdm_dyn(30)-lvm(10)_final(3).mov,0,40,40,87,,,,,,,,10:04:22:628,10:04:23:296,10:04:26:298,right,10:04:26:682,,2018_May_29_1000,59.9492832123,MP-Perception Experiment,x01w19,
42,vcgpdm_dyn(20)-lvm(10)_final(6).mov,False,left,0,training(24).mov,0,41,41,57,,,,,,,,10:04:27:473,10:04:28:185,10:04:31:188,right,10:04:31:588,,2018_May_29_1000,59.9492832123,MP-Perception Experiment,x01w19,
43,training(13).mov,False,right,0,dmp_npsi(45)_final(5).mov,0,42,42,0,,,,,,,,10:04:32:378,10:04:33:089,10:04:36:091,right,10:04:36:759,,2018_May_29_1000,59.9492832123,MP-Perception Experiment,x01w19,
44,vcgpdm_dyn(5)-lvm(25)_final(7).mov,False,left,0,training(2).mov,0,43,43,118,,,,,,,,10:04:37:544,10:04:38:260,10:04:41:263,left,10:04:41:680,,2018_May_29_1000,59.9492832123,MP-Perception Experiment,x01w19,
45,training(37).mov,True,right,0,vcgpdm_dyn(25)-lvm(15)_final(8).mov,0,44,44,16,,,,,,,,10:04:42:499,10:04:43:181,10:04:46:184,right,10:04:46:768,,2018_May_29_1000,59.9492832123,MP-Perception Experiment,x01w19,
46,vgpdm_dyn(25)-lvm(10)_final(7)_out_of_screen.mov,False,left,0,training(36).mov,0,45,45,130,,,,,,,,10:04:47:569,10:04:48:285,10:04:51:271,left,10:04:51:655,,2018_May_29_1000,59.9492832123,MP-Perception Experiment,x01w19,
47,vcgpdm_dyn(20)-lvm(25)_final(4).mov,False,left,0,training(0).mov,0,46,46,59,,,,,,,,10:04:52:441,10:04:53:156,10:04:56:176,left,10:04:56:610,,2018_May_29_1000,59.9492832123,MP-Perception Experiment,x01w19,
48,vcgpdm_dyn(30)-lvm(15)_final(0).mov,True,left,0,training(34).mov,0,47,47,2,,,,,,,,10:04:57:395,10:04:58:111,10:05:01:114,left,10:05:01:764,,2018_May_29_1000,59.9492832123,MP-Perception Experiment,x01w19,
49,vcgpdm_dyn(10)-lvm(5)_final(3).mov,False,left,0,training(10).mov,0,48,48,19,,,,,,,,10:05:02:558,10:05:03:265,10:05:06:268,left,10:05:06:833,,2018_May_29_1000,59.9492832123,MP-Perception Experiment,x01w19,
50,vcgpdm_dyn(20)-lvm(10)_final(0).mov,True,left,0,training(19).mov,0,49,49,61,,,,,,,,10:05:07:630,10:05:08:334,10:05:11:337,left,10:05:11:954,,2018_May_29_1000,59.9492832123,MP-Perception Experiment,x01w19,
51,vcgpdm_dyn(30)-lvm(20)_final(7).mov,True,left,0,training(24).mov,0,50,50,148,,,,,,,,10:05:13:559,10:05:13:559,10:05:16:458,left,10:05:16:976,,2018_May_29_1000,59.9492832123,MP-Perception Experiment,x01w19,
52,vgpdm_dyn(10)-lvm(5)_final(9).mov,False,left,0,training(21).mov,0,51,51,135,,,,,,,,10:05:17:749,10:05:18:478,10:05:21:464,right,10:05:22:131,,2018_May_29_1000,59.9492832123,MP-Perception Experiment,x01w19,
53,training(19).mov,False,right,0,tmp_numprim(8)_final(7).mov,0,52,52,68,,,,,,,,10:05:22:910,10:05:23:633,10:05:26:652,left,10:05:27:202,,2018_May_29_1000,59.9492832123,MP-Perception Experiment,x01w19,
54,training(2).mov,True,right,0,vcgpdm_dyn(5)-lvm(30)_final(2)_bad.mov,0,53,53,3,,,,,,,,10:05:27:986,10:05:28:703,10:05:31:707,right,10:05:32:108,,2018_May_29_1000,59.9492832123,MP-Perception Experiment,x01w19,
55,training(11).mov,False,right,0,vgpdm_dyn(30)-lvm(25)_final(9).mov,0,54,54,150,,,,,,,,10:05:32:885,10:05:33:608,10:05:36:627,left,10:05:37:061,,2018_May_29_1000,59.9492832123,MP-Perception Experiment,x01w19,
56,vcgpdm_dyn(10)-lvm(20)_final(6).mov,True,left,0,training(18).mov,0,55,55,129,,,,,,,,10:05:37:850,10:05:38:562,10:05:41:565,left,10:05:42:032,,2018_May_29_1000,59.9492832123,MP-Perception Experiment,x01w19,
57,training(31).mov,True,right,0,vgpdm_dyn(20)-lvm(5)_final(4).mov,0,56,56,156,,,,,,,,10:05:42:814,10:05:43:533,10:05:46:535,right,10:05:46:986,,2018_May_29_1000,59.9492832123,MP-Perception Experiment,x01w19,
58,training(34).mov,True,right,0,tmp_numprim(2)_final(7).mov,0,57,57,47,,,,,,,,10:05:47:769,10:05:48:488,10:05:51:491,right,10:05:51:924,,2018_May_29_1000,59.9492832123,MP-Perception Experiment,x01w19,
59,training(19).mov,True,right,0,vgpdm_dyn(25)-lvm(30)_final(6).mov,0,58,58,23,,,,,,,,10:05:52:706,10:05:53:425,10:05:56:428,right,10:05:57:227,,2018_May_29_1000,59.9492832123,MP-Perception Experiment,x01w19,
60,vcgpdm_dyn(20)-lvm(10)_final(9).mov,False,left,0,training(40).mov,0,59,59,92,,,,,,,,10:05:58:008,10:05:58:728,10:06:01:730,left,10:06:02:081,,2018_May_29_1000,59.9492832123,MP-Perception Experiment,x01w19,
61,training(5).mov,True,right,0,vcgpdm_dyn(35)-lvm(30)_final(2).mov,0,60,60,84,,,,,,,,10:06:02:864,10:06:03:582,10:06:06:585,right,10:06:06:969,,2018_May_29_1000,59.9492832123,MP-Perception Experiment,x01w19,
62,vgpdm_dyn(35)-lvm(35)_final(0).mov,False,left,0,training(36).mov,0,61,61,149,,,,,,,,10:06:07:745,10:06:08:472,10:06:11:458,left,10:06:12:075,,2018_May_29_1000,59.9492832123,MP-Perception Experiment,x01w19,
63,vgpdm_dyn(10)-lvm(15)_final(2).mov,True,left,0,training(37).mov,0,62,62,120,,,,,,,,10:06:13:304,10:06:13:809,10:06:16:578,left,10:06:17:162,,2018_May_29_1000,59.9492832123,MP-Perception Experiment,x01w19,
64,vgpdm_dyn(35)-lvm(30)_final(0).mov,False,left,0,training(12).mov,0,63,63,52,,,,,,,,10:06:17:945,10:06:18:663,10:06:21:666,left,10:06:22:333,,2018_May_29_1000,59.9492832123,MP-Perception Experiment,x01w19,
65,training(26).mov,True,right,0,dmp_npsi(35)_final(4).mov,0,64,64,112,,,,,,,,10:06:23:112,10:06:23:835,10:06:26:838,left,10:06:27:638,,2018_May_29_1000,59.9492832123,MP-Perception Experiment,x01w19,
66,vgpdm_dyn(20)-lvm(15)_final(0).mov,False,left,0,training(9).mov,0,65,65,90,,,,,,,,10:06:28:423,10:06:29:139,10:06:32:142,right,10:06:32:592,,2018_May_29_1000,59.9492832123,MP-Perception Experiment,x01w19,
67,vgpdm_dyn(30)-lvm(25)_final(5).mov,True,left,0,training(14).mov,0,66,66,117,,,,,,,,10:06:33:373,10:06:34:110,10:06:37:113,left,10:06:37:563,,2018_May_29_1000,59.9492832123,MP-Perception Experiment,x01w19,
68,vcgpdm_dyn(20)-lvm(15)_final(3).mov,False,left,0,training(38).mov,0,67,67,82,,,,,,,,10:06:38:358,10:06:39:064,10:06:42:068,right,10:06:42:468,,2018_May_29_1000,59.9492832123,MP-Perception Experiment,x01w19,
69,vcgpdm_dyn(10)-lvm(30)_final(3).mov,True,left,0,training(4).mov,0,68,68,78,,,,,,,,10:06:43:288,10:06:43:969,10:06:46:970,left,10:06:47:337,,2018_May_29_1000,59.9492832123,MP-Perception Experiment,x01w19,
70,vgpdm_dyn(35)-lvm(10)_final(3).mov,False,left,0,training(22).mov,0,69,69,99,,,,,,,,10:06:48:115,10:06:48:855,10:06:51:840,right,10:06:52:191,,2018_May_29_1000,59.9492832123,MP-Perception Experiment,x01w19,
71,training(34).mov,False,right,0,vgpdm_dyn(30)-lvm(25)_final(1).mov,0,70,70,72,,,,,,,,10:06:52:970,10:06:53:692,10:06:56:694,right,10:06:57:045,,2018_May_29_1000,59.9492832123,MP-Perception Experiment,x01w19,
72,vgpdm_dyn(5)-lvm(30)_final(9).mov,True,left,0,training(37).mov,0,71,71,104,,,,,,,,10:06:57:837,10:06:58:547,10:07:01:534,left,10:07:01:885,,2018_May_29_1000,59.9492832123,MP-Perception Experiment,x01w19,
73,training(41).mov,False,right,0,vcgpdm_dyn(20)-lvm(10)_final(6).mov,0,72,72,54,,,,,,,,10:07:02:652,10:07:03:402,10:07:06:388,right,10:07:06:839,,2018_May_29_1000,59.9492832123,MP-Perception Experiment,x01w19,
74,vcgpdm_dyn(35)-lvm(5)_final(3).mov,False,left,0,training(2).mov,0,73,73,24,,,,,,,,10:07:07:634,10:07:08:340,10:07:11:342,left,10:07:11:843,,2018_May_29_1000,59.9492832123,MP-Perception Experiment,x01w19,
75,training(29).mov,True,right,0,vgpdm_dyn(15)-lvm(15)_final(0).mov,0,74,74,20,,,,,,,,10:07:13:289,10:07:13:794,10:07:16:347,right,10:07:17:048,,2018_May_29_1000,59.9492832123,MP-Perception Experiment,x01w19,
76,training(9).mov,False,right,0,vcgpdm_dyn(25)-lvm(10)_final(6).mov,0,75,75,70,,,,,,,,10:07:17:832,10:07:18:566,10:07:21:552,right,10:07:22:002,,2018_May_29_1000,59.9492832123,MP-Perception Experiment,x01w19,
77,training(7).mov,False,right,0,vgpdm_dyn(30)-lvm(35)_final(6).mov,0,76,76,46,,,,,,,,10:07:22:789,10:07:23:503,10:07:26:505,right,10:07:26:873,,2018_May_29_1000,59.9492832123,MP-Perception Experiment,x01w19,
78,dmp_npsi(15)_final(0).mov,False,left,0,training(34).mov,0,77,77,127,,,,,,,,10:07:27:651,10:07:28:374,10:07:31:376,left,10:07:31:777,,2018_May_29_1000,59.9492832123,MP-Perception Experiment,x01w19,
79,training(21).mov,False,right,0,vgpdm_dyn(15)-lvm(30)_final(8).mov,0,78,78,94,,,,,,,,10:07:32:561,10:07:33:279,10:07:36:281,right,10:07:36:630,,2018_May_29_1000,59.9492832123,MP-Perception Experiment,x01w19,
80,training(10).mov,False,right,0,tmp_numprim(9)_final(6).mov,0,79,79,48,,,,,,,,10:07:37:401,10:07:38:131,10:07:41:133,right,10:07:41:550,,2018_May_29_1000,59.9492832123,MP-Perception Experiment,x01w19,
81,vcgpdm_dyn(15)-lvm(15)_final(7).mov,False,left,0,training(0).mov,0,80,80,91,,,,,,,,10:07:42:353,10:07:43:052,10:07:46:054,right,10:07:46:454,,2018_May_29_1000,59.9492832123,MP-Perception Experiment,x01w19,
82,training(24).mov,False,right,0,vgpdm_dyn(20)-lvm(35)_final(6).mov,0,81,81,58,,,,,,,,10:07:47:227,10:07:47:957,10:07:50:944,right,10:07:51:394,,2018_May_29_1000,59.9492832123,MP-Perception Experiment,x01w19,
83,vcgpdm_dyn(15)-lvm(20)_final(4).mov,False,left,0,training(35).mov,0,82,82,136,,,,,,,,10:07:52:173,10:07:52:895,10:07:55:898,right,10:07:56:398,,2018_May_29_1000,59.9492832123,MP-Perception Experiment,x01w19,
84,training(19).mov,True,right,0,vgpdm_dyn(15)-lvm(35)_final(5).mov,0,83,83,15,,,,,,,,10:07:57:172,10:07:57:900,10:08:00:902,right,10:08:01:619,,2018_May_29_1000,59.9492832123,MP-Perception Experiment,x01w19,
85,training(7).mov,True,right,0,vgpdm_dyn(5)-lvm(20)_final(0).mov,0,84,84,89,,,,,,,,10:08:02:395,10:08:03:120,10:08:06:123,right,10:08:06:623,,2018_May_29_1000,59.9492832123,MP-Perception Experiment,x01w19,
86,vcgpdm_dyn(15)-lvm(20)_final(1).mov,True,left,0,training(48).mov,0,85,85,152,,,,,,,,10:08:07:409,10:08:08:141,10:08:11:128,right,10:08:11:578,,2018_May_29_1000,59.9492832123,MP-Perception Experiment,x01w19,
87,training(19).mov,False,right,0,vcgpdm_dyn(5)-lvm(10)_final(5).mov,0,86,86,79,,,,,,,,10:08:13:238,10:08:13:238,10:08:16:082,right,10:08:16:499,,2018_May_29_1000,59.9492832123,MP-Perception Experiment,x01w19,
88,training(17).mov,True,right,0,vcgpdm_dyn(5)-lvm(25)_final(9).mov,0,87,87,35,,,,,,,,10:08:17:309,10:08:18:000,10:08:21:002,right,10:08:21:353,,2018_May_29_1000,59.9492832123,MP-Perception Experiment,x01w19,
89,training(1).mov,False,right,0,vgpdm_dyn(35)-lvm(15)_final(2)_out_of_screen.mov,0,88,88,114,,,,,,,,10:08:22:137,10:08:22:854,10:08:25:858,right,10:08:26:174,,2018_May_29_1000,59.9492832123,MP-Perception Experiment,x01w19,
90,training(37).mov,True,right,0,vcgpdm_dyn(20)-lvm(15)_final(5).mov,0,89,89,101,,,,,,,,10:08:26:977,10:08:27:690,10:08:30:693,right,10:08:31:093,,2018_May_29_1000,59.9492832123,MP-Perception Experiment,x01w19,
91,training(8).mov,True,right,0,vgpdm_dyn(30)-lvm(5)_final(2).mov,0,90,90,14,,,,,,,,10:08:31:879,10:08:32:594,10:08:35:597,left,10:08:35:931,,2018_May_29_1000,59.9492832123,MP-Perception Experiment,x01w19,
92,training(21).mov,True,right,0,map_gpdm_final(2).mov,0,91,91,31,,,,,,,,10:08:36:709,10:08:37:432,10:08:40:419,right,10:08:40:803,,2018_May_29_1000,59.9492832123,MP-Perception Experiment,x01w19,
93,training(40).mov,True,right,0,vgpdm_dyn(25)-lvm(35)_final(3).mov,0,92,92,83,,,,,,,,10:08:41:591,10:08:42:304,10:08:45:308,right,10:08:45:725,,2018_May_29_1000,59.9492832123,MP-Perception Experiment,x01w19,
94,training(26).mov,True,right,0,vcgpdm_dyn(30)-lvm(25)_final(0).mov,0,93,93,121,,,,,,,,10:08:46:518,10:08:47:226,10:08:50:228,right,10:08:50:612,,2018_May_29_1000,59.9492832123,MP-Perception Experiment,x01w19,
95,vgpdm_dyn(15)-lvm(25)_final(7).mov,False,left,0,training(27).mov,0,94,94,154,,,,,,,,10:08:51:412,10:08:52:113,10:08:55:132,right,10:08:55:499,,2018_May_29_1000,59.9492832123,MP-Perception Experiment,x01w19,
96,vgpdm_dyn(15)-lvm(5)_final(0).mov,True,left,0,training(38).mov,0,95,95,6,,,,,,,,10:08:56:299,10:08:57:000,10:09:00:019,left,10:09:00:403,,2018_May_29_1000,59.9492832123,MP-Perception Experiment,x01w19,
97,training(34).mov,True,right,0,vcgpdm_dyn(5)-lvm(10)_final(6).mov,0,96,96,122,,,,,,,,10:09:01:187,10:09:01:905,10:09:04:908,left,10:09:05:575,,2018_May_29_1000,59.9492832123,MP-Perception Experiment,x01w19,
98,vgpdm_dyn(5)-lvm(15)_final(8).mov,True,left,0,training(20).mov,0,97,97,74,,,,,,,,10:09:06:366,10:09:07:076,10:09:10:079,left,10:09:10:529,,2018_May_29_1000,59.9492832123,MP-Perception Experiment,x01w19,
99,training(25).mov,False,right,0,vcgpdm_dyn(30)-lvm(35)_final(3).mov,0,98,98,116,,,,,,,,10:09:11:313,10:09:12:030,10:09:15:049,right,10:09:15:433,,2018_May_29_1000,59.9492832123,MP-Perception Experiment,x01w19,
100,training(36).mov,True,right,0,vcgpdm_dyn(10)-lvm(10)_final(9).mov,0,99,99,67,,,,,,,,10:09:16:220,10:09:16:949,10:09:19:936,right,10:09:20:203,,2018_May_29_1000,59.9492832123,MP-Perception Experiment,x01w19,
101,vgpdm_dyn(35)-lvm(30)_final(5).mov,False,left,0,training(21).mov,0,100,100,108,,,,,,,,10:09:20:980,10:09:21:704,10:09:24:706,left,10:09:24:957,,2018_May_29_1000,59.9492832123,MP-Perception Experiment,x01w19,
102,training(2).mov,False,right,0,vgpdm_dyn(25)-lvm(20)_final(1).mov,0,101,101,65,,,,,,,,10:09:25:743,10:09:26:474,10:09:29:445,right,10:09:29:962,,2018_May_29_1000,59.9492832123,MP-Perception Experiment,x01w19,
103,training(32).mov,True,right,0,vgpdm_dyn(15)-lvm(35)_final(9).mov,0,102,102,4,,,,,,,,10:09:30:740,10:09:31:463,10:09:34:466,left,10:09:35:283,,2018_May_29_1000,59.9492832123,MP-Perception Experiment,x01w19,
104,vgpdm_dyn(10)-lvm(25)_final(0).mov,False,left,0,training(11).mov,0,103,103,76,,,,,,,,10:09:36:071,10:09:36:786,10:09:39:788,right,10:09:40:322,,2018_May_29_1000,59.9492832123,MP-Perception Experiment,x01w19,
105,vgpdm_dyn(30)-lvm(35)_final(9).mov,False,left,0,training(1).mov,0,104,104,5,,,,,,,,10:09:41:097,10:09:41:823,10:09:44:825,right,10:09:45:259,,2018_May_29_1000,59.9492832123,MP-Perception Experiment,x01w19,
106,vcgpdm_dyn(15)-lvm(10)_final(3).mov,False,left,0,training(38).mov,0,105,105,141,,,,,,,,10:09:46:048,10:09:46:760,10:09:49:763,right,10:09:50:180,,2018_May_29_1000,59.9492832123,MP-Perception Experiment,x01w19,
107,vcgpdm_dyn(30)-lvm(20)_final(1).mov,False,left,0,training(29).mov,0,106,106,98,,,,,,,,10:09:50:963,10:09:51:681,10:09:54:684,left,10:09:55:185,,2018_May_29_1000,59.9492832123,MP-Perception Experiment,x01w19,
108,training(35).mov,True,right,0,map_cgpdm_final(4).mov,0,107,107,37,,,,,,,,10:09:55:966,10:09:56:686,10:09:59:688,right,10:10:00:155,,2018_May_29_1000,59.9492832123,MP-Perception Experiment,x01w19,
109,tmp_numprim(3)_final(7).mov,True,left,0,training(18).mov,0,108,108,139,,,,,,,,10:10:00:931,10:10:01:656,10:10:04:659,left,10:10:05:059,,2018_May_29_1000,59.9492832123,MP-Perception Experiment,x01w19,
110,vcgpdm_dyn(20)-lvm(35)_final(0).mov,True,left,0,training(28).mov,0,109,109,12,,,,,,,,10:10:05:850,10:10:06:560,10:10:09:561,left,10:10:09:845,,2018_May_29_1000,59.9492832123,MP-Perception Experiment,x01w19,
111,training(48).mov,False,right,0,dmp_npsi(15)_final(5).mov,0,110,110,153,,,,,,,,10:10:10:627,10:10:11:347,10:10:14:349,right,10:10:14:683,,2018_May_29_1000,59.9492832123,MP-Perception Experiment,x01w19,
112,vgpdm_dyn(20)-lvm(25)_final(0).mov,False,left,0,training(4).mov,0,111,111,40,,,,,,,,10:10:15:477,10:10:16:184,10:10:19:187,right,10:10:19:520,,2018_May_29_1000,59.9492832123,MP-Perception Experiment,x01w19,
113,training(31).mov,False,right,0,dmp_npsi(45)_final(3).mov,0,112,112,85,,,,,,,,10:10:20:304,10:10:21:021,10:10:24:026,right,10:10:24:393,,2018_May_29_1000,59.9492832123,MP-Perception Experiment,x01w19,
114,vgpdm_dyn(5)-lvm(35)_final(8)_bad.mov,True,left,0,training(14).mov,0,113,113,7,,,,,,,,10:10:25:160,10:10:25:894,10:10:28:898,left,10:10:29:264,,2018_May_29_1000,59.9492832123,MP-Perception Experiment,x01w19,
115,training(6).mov,False,right,0,vgpdm_dyn(5)-lvm(30)_final(3).mov,0,114,114,17,,,,,,,,10:10:30:059,10:10:30:765,10:10:33:784,right,10:10:34:185,,2018_May_29_1000,59.9492832123,MP-Perception Experiment,x01w19,
116,vcgpdm_dyn(20)-lvm(25)_final(0).mov,False,left,0,training(48).mov,0,115,115,102,,,,,,,,10:10:34:968,10:10:35:686,10:10:38:705,right,10:10:40:140,,2018_May_29_1000,59.9492832123,MP-Perception Experiment,x01w19,
117,vcgpdm_dyn(35)-lvm(5)_final(2).mov,False,left,0,training(28).mov,0,116,116,33,,,,,,,,10:10:40:926,10:10:41:641,10:10:44:643,left,10:10:45:044,,2018_May_29_1000,59.9492832123,MP-Perception Experiment,x01w19,
118,training(2).mov,True,right,0,vgpdm_dyn(10)-lvm(10)_final(7).mov,0,117,117,63,,,,,,,,10:10:45:824,10:10:46:546,10:10:49:548,right,10:10:50:432,,2018_May_29_1000,59.9492832123,MP-Perception Experiment,x01w19,
119,training(9).mov,False,right,0,dmp_npsi(35)_final(3).mov,0,118,118,53,,,,,,,,10:10:51:204,10:10:51:933,10:10:54:936,right,10:10:55:703,,2018_May_29_1000,59.9492832123,MP-Perception Experiment,x01w19,
120,training(9).mov,False,right,0,vgpdm_dyn(10)-lvm(30)_final(0).mov,0,119,119,88,,,,,,,,10:10:56:509,10:10:57:219,10:11:00:205,right,10:11:00:505,,2018_May_29_1000,59.9492832123,MP-Perception Experiment,x01w19,
121,vcgpdm_dyn(35)-lvm(5)_final(1).mov,True,left,0,training(38).mov,0,120,120,146,,,,,,,,10:11:01:313,10:11:02:006,10:11:05:027,left,10:11:05:327,,2018_May_29_1000,59.9492832123,MP-Perception Experiment,x01w19,
122,training(31).mov,False,right,0,vgpdm_dyn(5)-lvm(20)_final(8).mov,0,121,121,138,,,,,,,,10:11:06:110,10:11:06:828,10:11:09:832,right,10:11:10:166,,2018_May_29_1000,59.9492832123,MP-Perception Experiment,x01w19,
123,training(25).mov,True,right,0,vgpdm_dyn(20)-lvm(30)_final(6).mov,0,122,122,66,,,,,,,,10:11:10:942,10:11:11:684,10:11:14:670,right,10:11:15:737,,2018_May_29_1000,59.9492832123,MP-Perception Experiment,x01w19,
124,vgpdm_dyn(10)-lvm(15)_final(8).mov,False,left,0,training(1).mov,0,123,123,29,,,,,,,,10:11:16:522,10:11:17:238,10:11:20:257,left,10:11:20:909,,2018_May_29_1000,59.9492832123,MP-Perception Experiment,x01w19,
125,map_gpdm_final(8).mov,False,left,0,training(2).mov,0,124,124,9,,,,,,,,10:11:21:698,10:11:22:410,10:11:25:429,left,10:11:25:830,,2018_May_29_1000,59.9492832123,MP-Perception Experiment,x01w19,
126,training(9).mov,True,right,0,vgpdm_dyn(30)-lvm(20)_final(4).mov,0,125,125,43,,,,,,,,10:11:26:613,10:11:27:331,10:11:30:333,right,10:11:30:900,,2018_May_29_1000,59.9492832123,MP-Perception Experiment,x01w19,
127,training(14).mov,True,right,0,vcgpdm_dyn(20)-lvm(5)_final(2).mov,0,126,126,55,,,,,,,,10:11:31:698,10:11:32:418,10:11:35:404,right,10:11:35:821,,2018_May_29_1000,59.9492832123,MP-Perception Experiment,x01w19,
128,vcgpdm_dyn(25)-lvm(30)_final(4).mov,True,left,0,training(15).mov,0,127,127,111,,,,,,,,10:11:36:608,10:11:37:322,10:11:40:326,left,10:11:41:009,,2018_May_29_1000,59.9492832123,MP-Perception Experiment,x01w19,
129,training(24).mov,True,right,0,vcgpdm_dyn(30)-lvm(25)_final(1).mov,0,128,128,41,,,,,,,,10:11:41:792,10:11:42:510,10:11:45:530,left,10:11:46:397,,2018_May_29_1000,59.9492832123,MP-Perception Experiment,x01w19,
130,dmp_npsi(50)_final(5).mov,True,left,0,training(33).mov,0,129,129,151,,,,,,,,10:11:47:182,10:11:47:913,10:11:50:899,right,10:11:51:333,,2018_May_29_1000,59.9492832123,MP-Perception Experiment,x01w19,
131,training(0).mov,True,right,0,vcgpdm_dyn(25)-lvm(20)_final(7).mov,0,130,130,56,,,,,,,,10:11:52:117,10:11:52:834,10:11:55:837,right,10:11:56:138,,2018_May_29_1000,59.9492832123,MP-Perception Experiment,x01w19,
132,training(20).mov,True,right,0,vcgpdm_dyn(15)-lvm(30)_final(6).mov,0,131,131,134,,,,,,,,10:11:56:925,10:11:57:639,10:12:00:643,right,10:12:01:194,,2018_May_29_1000,59.9492832123,MP-Perception Experiment,x01w19,
133,tmp_numprim(6)_final(1).mov,False,left,0,training(33).mov,0,132,132,103,,,,,,,,10:12:01:974,10:12:02:695,10:12:05:697,right,10:12:06:614,,2018_May_29_1000,59.9492832123,MP-Perception Experiment,x01w19,
134,vcgpdm_dyn(10)-lvm(15)_final(7).mov,True,left,0,training(35).mov,0,133,133,45,,,,,,,,10:12:07:394,10:12:08:116,10:12:11:135,right,10:12:12:136,,2018_May_29_1000,59.9492832123,MP-Perception Experiment,x01w19,
135,training(48).mov,False,right,0,map_gpdm_final(1).mov,0,134,134,124,,,,,,,,10:12:13:202,10:12:13:721,10:12:16:640,right,10:12:17:074,,2018_May_29_1000,59.9492832123,MP-Perception Experiment,x01w19,
136,map_cgpdm_final(3).mov,True,left,0,training(8).mov,0,135,135,50,,,,,,,,10:12:17:866,10:12:18:592,10:12:21:577,left,10:12:22:028,,2018_May_29_1000,59.9492832123,MP-Perception Experiment,x01w19,
137,training(27).mov,False,right,0,vgpdm_dyn(10)-lvm(35)_final(7).mov,0,136,136,18,,,,,,,,10:12:22:804,10:12:23:529,10:12:26:548,right,10:12:26:999,,2018_May_29_1000,59.9492832123,MP-Perception Experiment,x01w19,
138,vcgpdm_dyn(20)-lvm(30)_final(2).mov,True,left,0,training(18).mov,0,137,137,25,,,,,,,,10:12:27:781,10:12:28:500,10:12:31:503,left,10:12:31:937,,2018_May_29_1000,59.9492832123,MP-Perception Experiment,x01w19,
139,training(40).mov,True,right,0,dmp_npsi(50)_final(4).mov,0,138,138,137,,,,,,,,10:12:32:713,10:12:33:438,10:12:36:440,left,10:12:36:808,,2018_May_29_1000,59.9492832123,MP-Perception Experiment,x01w19,
140,training(7).mov,True,right,0,vcgpdm_dyn(25)-lvm(35)_final(4).mov,0,139,139,80,,,,,,,,10:12:37:609,10:12:38:323,10:12:41:326,left,10:12:41:610,,2018_May_29_1000,59.9492832123,MP-Perception Experiment,x01w19,
141,training(13).mov,False,right,0,vcgpdm_dyn(25)-lvm(25)_final(1).mov,0,140,140,113,,,,,,,,10:12:42:412,10:12:43:111,10:12:46:113,left,10:12:46:330,,2018_May_29_1000,59.9492832123,MP-Perception Experiment,x01w19,
142,vcgpdm_dyn(20)-lvm(20)_final(2).mov,False,left,0,training(26).mov,0,141,141,95,,,,,,,,10:12:47:115,10:12:47:831,10:12:50:837,left,10:12:51:304,,2018_May_29_1000,59.9492832123,MP-Perception Experiment,x01w19,
143,vgpdm_dyn(35)-lvm(10)_final(6).mov,True,left,0,training(25).mov,0,142,142,93,,,,,,,,10:12:52:092,10:12:52:821,10:12:55:807,right,10:12:56:524,,2018_May_29_1000,59.9492832123,MP-Perception Experiment,x01w19,
144,vgpdm_dyn(25)-lvm(20)_final(8).mov,False,left,0,training(6).mov,0,143,143,21,,,,,,,,10:12:57:312,10:12:58:025,10:13:01:028,left,10:13:01:995,,2018_May_29_1000,59.9492832123,MP-Perception Experiment,x01w19,
145,training(21).mov,True,right,0,dmp_npsi(20)_final(6).mov,0,144,144,26,,,,,,,,10:13:02:780,10:13:03:497,10:13:06:500,right,10:13:06:834,,2018_May_29_1000,59.9492832123,MP-Perception Experiment,x01w19,
146,training(26).mov,True,right,0,vgpdm_dyn(15)-lvm(25)_final(9).mov,0,145,145,105,,,,,,,,10:13:07:616,10:13:08:351,10:13:11:337,right,10:13:11:721,,2018_May_29_1000,59.9492832123,MP-Perception Experiment,x01w19,
147,training(16).mov,True,right,0,dmp_npsi(25)_final(5).mov,0,146,146,69,,,,,,,,10:13:13:631,10:13:13:631,10:13:16:241,right,10:13:16:725,,2018_May_29_1000,59.9492832123,MP-Perception Experiment,x01w19,
148,training(34).mov,False,right,0,vgpdm_dyn(15)-lvm(25)_final(5).mov,0,147,147,13,,,,,,,,10:13:17:508,10:13:18:226,10:13:21:229,right,10:13:21:646,,2018_May_29_1000,59.9492832123,MP-Perception Experiment,x01w19,
149,training(6).mov,False,right,0,vgpdm_dyn(10)-lvm(20)_final(7).mov,0,148,148,38,,,,,,,,10:13:22:432,10:13:23:148,10:13:26:167,right,10:13:26:567,,2018_May_29_1000,59.9492832123,MP-Perception Experiment,x01w19,
150,vcgpdm_dyn(30)-lvm(10)_final(4).mov,True,left,0,training(41).mov,0,149,149,77,,,,,,,,10:13:27:346,10:13:28:083,10:13:31:069,left,10:13:31:386,,2018_May_29_1000,59.9492832123,MP-Perception Experiment,x01w19,
151,training(1).mov,False,right,0,vcgpdm_dyn(30)-lvm(25)_final(9).mov,0,150,150,75,,,,,,,,10:13:32:168,10:13:32:887,10:13:35:890,right,10:13:36:173,,2018_May_29_1000,59.9492832123,MP-Perception Experiment,x01w19,
152,tmp_numprim(2)_final(2).mov,True,left,0,training(9).mov,0,151,151,71,,,,,,,,10:13:36:948,10:13:37:674,10:13:40:663,left,10:13:41:113,,2018_May_29_1000,59.9492832123,MP-Perception Experiment,x01w19,
153,training(33).mov,False,right,0,vcgpdm_dyn(5)-lvm(35)_final(5)_bad.mov,0,152,152,147,,,,,,,,10:13:41:913,10:13:42:631,10:13:45:617,right,10:13:46:051,,2018_May_29_1000,59.9492832123,MP-Perception Experiment,x01w19,
154,training(1).mov,True,right,0,vcgpdm_dyn(20)-lvm(35)_final(4).mov,0,153,153,158,,,,,,,,10:13:46:836,10:13:47:552,10:13:50:571,left,10:13:51:038,,2018_May_29_1000,59.9492832123,MP-Perception Experiment,x01w19,
155,training(1).mov,True,right,0,vcgpdm_dyn(25)-lvm(5)_final(3).mov,0,154,154,155,,,,,,,,10:13:51:849,10:13:52:539,10:13:55:558,left,10:13:55:959,,2018_May_29_1000,59.9492832123,MP-Perception Experiment,x01w19,
156,training(23).mov,True,right,0,vgpdm_dyn(35)-lvm(30)_final(3).mov,0,155,155,10,,,,,,,,10:13:56:740,10:13:57:460,10:14:00:480,left,10:14:00:830,,2018_May_29_1000,59.9492832123,MP-Perception Experiment,x01w19,
157,training(13).mov,False,right,0,vgpdm_dyn(20)-lvm(15)_final(7).mov,0,156,156,132,,,,,,,,10:14:01:610,10:14:02:331,10:14:05:334,left,10:14:05:734,,2018_May_29_1000,59.9492832123,MP-Perception Experiment,x01w19,
158,training(29).mov,True,right,0,dmp_npsi(30)_final(7).mov,0,157,157,106,,,,,,,,10:14:06:546,10:14:07:235,10:14:10:238,right,10:14:10:705,,2018_May_29_1000,59.9492832123,MP-Perception Experiment,x01w19,
159,training(19).mov,True,right,0,dmp_npsi(45)_final(9).mov,0,158,158,22,,,,,,,,10:14:11:493,10:14:12:206,10:14:15:209,right,10:14:15:577,,2018_May_29_1000,59.9492832123,MP-Perception Experiment,x01w19,
160,training(7).mov,True,right,1,vcgpdm_dyn(15)-lvm(35)_final(3).mov,0,0,0,153,,,,,,,,10:17:19:404,10:17:20:135,10:17:23:121,right,10:17:23:538,,2018_May_29_1000,59.9492832123,MP-Perception Experiment,x01w19,
161,vcgpdm_dyn(35)-lvm(30)_final(2).mov,False,left,1,training(10).mov,0,1,1,70,,,,,,,,10:17:24:331,10:17:25:056,10:17:28:043,right,10:17:28:460,,2018_May_29_1000,59.9492832123,MP-Perception Experiment,x01w19,
162,training(48).mov,False,right,1,vgpdm_dyn(10)-lvm(10)_final(1).mov,0,2,2,120,,,,,,,,10:17:29:234,10:17:29:978,10:17:32:964,right,10:17:33:364,,2018_May_29_1000,59.9492832123,MP-Perception Experiment,x01w19,
163,vgpdm_dyn(30)-lvm(30)_final(7).mov,False,left,1,training(27).mov,0,3,3,17,,,,,,,,10:17:34:139,10:17:34:865,10:17:37:866,right,10:17:38:183,,2018_May_29_1000,59.9492832123,MP-Perception Experiment,x01w19,
164,training(39).mov,True,right,1,vcgpdm_dyn(20)-lvm(35)_final(0).mov,0,4,4,21,,,,,,,,10:17:38:971,10:17:39:684,10:17:42:686,left,10:17:43:003,,2018_May_29_1000,59.9492832123,MP-Perception Experiment,x01w19,
165,vcgpdm_dyn(15)-lvm(10)_final(0).mov,True,left,1,training(27).mov,0,5,5,118,,,,,,,,10:17:43:796,10:17:44:504,10:17:47:508,left,10:17:47:908,,2018_May_29_1000,59.9492832123,MP-Perception Experiment,x01w19,
166,training(3).mov,True,right,1,vgpdm_dyn(15)-lvm(25)_final(2).mov,0,6,6,9,,,,,,,,10:17:48:690,10:17:49:409,10:17:52:414,left,10:17:52:731,,2018_May_29_1000,59.9492832123,MP-Perception Experiment,x01w19,
167,vgpdm_dyn(25)-lvm(5)_final(8).mov,True,left,1,training(5).mov,0,7,7,35,,,,,,,,10:17:53:526,10:17:54:232,10:17:57:251,left,10:17:57:584,,2018_May_29_1000,59.9492832123,MP-Perception Experiment,x01w19,
168,training(1).mov,False,right,1,dmp_npsi(20)_final(4).mov,0,8,8,87,,,,,,,,10:17:58:364,10:17:59:086,10:18:02:105,right,10:18:02:555,,2018_May_29_1000,59.9492832123,MP-Perception Experiment,x01w19,
169,training(2).mov,False,right,1,vcgpdm_dyn(15)-lvm(30)_final(6).mov,0,9,9,155,,,,,,,,10:18:03:333,10:18:04:074,10:18:07:060,right,10:18:07:510,,2018_May_29_1000,59.9492832123,MP-Perception Experiment,x01w19,
170,training(41).mov,True,right,1,vcgpdm_dyn(15)-lvm(35)_final(8).mov,0,10,10,50,,,,,,,,10:18:08:294,10:18:09:011,10:18:12:014,left,10:18:12:447,,2018_May_29_1000,59.9492832123,MP-Perception Experiment,x01w19,
171,training(0).mov,True,right,1,dmp_npsi(35)_final(7).mov,0,11,11,3,,,,,,,,10:18:13:222,10:18:13:949,10:18:16:951,right,10:18:17:385,,2018_May_29_1000,59.9492832123,MP-Perception Experiment,x01w19,
172,training(2).mov,False,right,1,vgpdm_dyn(20)-lvm(15)_final(2).mov,0,12,12,7,,,,,,,,10:18:18:166,10:18:18:886,10:18:21:889,right,10:18:22:223,,2018_May_29_1000,59.9492832123,MP-Perception Experiment,x01w19,
173,training(37).mov,True,right,1,vcgpdm_dyn(15)-lvm(5)_final(2).mov,0,13,13,97,,,,,,,,10:18:22:997,10:18:23:741,10:18:26:743,left,10:18:27:127,,2018_May_29_1000,59.9492832123,MP-Perception Experiment,x01w19,
174,vcgpdm_dyn(25)-lvm(35)_final(2).mov,True,left,1,training(24).mov,0,14,14,78,,,,,,,,10:18:27:920,10:18:28:643,10:18:31:645,left,10:18:31:996,,2018_May_29_1000,59.9492832123,MP-Perception Experiment,x01w19,
175,dmp_npsi(30)_final(9).mov,True,left,1,training(11).mov,0,15,15,31,,,,,,,,10:18:32:780,10:18:33:497,10:18:36:499,left,10:18:36:800,,2018_May_29_1000,59.9492832123,MP-Perception Experiment,x01w19,
176,vcgpdm_dyn(20)-lvm(35)_final(1).mov,False,left,1,training(25).mov,0,16,16,119,,,,,,,,10:18:37:598,10:18:38:318,10:18:41:306,right,10:18:41:873,,2018_May_29_1000,59.9492832123,MP-Perception Experiment,x01w19,
177,training(3).mov,True,right,1,dmp_npsi(40)_final(0).mov,0,17,17,125,,,,,,,,10:18:42:683,10:18:43:374,10:18:46:393,right,10:18:46:860,,2018_May_29_1000,59.9492832123,MP-Perception Experiment,x01w19,
178,vcgpdm_dyn(5)-lvm(10)_final(5).mov,True,left,1,training(39).mov,0,18,18,37,,,,,,,,10:18:47:655,10:18:48:362,10:18:51:381,left,10:18:51:715,,2018_May_29_1000,59.9492832123,MP-Perception Experiment,x01w19,
179,training(26).mov,False,right,1,vcgpdm_dyn(15)-lvm(30)_final(1).mov,0,19,19,64,,,,,,,,10:18:52:518,10:18:53:216,10:18:56:236,right,10:18:56:753,,2018_May_29_1000,59.9492832123,MP-Perception Experiment,x01w19,
180,vgpdm_dyn(5)-lvm(30)_final(5).mov,False,left,1,training(17).mov,0,20,20,33,,,,,,,,10:18:57:552,10:18:58:254,10:19:01:256,left,10:19:01:707,,2018_May_29_1000,59.9492832123,MP-Perception Experiment,x01w19,
181,vcgpdm_dyn(10)-lvm(35)_final(0).mov,True,left,1,training(18).mov,0,21,21,10,,,,,,,,10:19:02:487,10:19:03:208,10:19:06:227,left,10:19:06:628,,2018_May_29_1000,59.9492832123,MP-Perception Experiment,x01w19,
182,training(1).mov,True,right,1,tmp_numprim(4)_final(4).mov,0,22,22,58,,,,,,,,10:19:07:416,10:19:08:129,10:19:11:148,right,10:19:11:515,,2018_May_29_1000,59.9492832123,MP-Perception Experiment,x01w19,
183,training(32).mov,True,right,1,vgpdm_dyn(35)-lvm(5)_final(6).mov,0,23,23,91,,,,,,,,10:19:13:277,10:19:13:277,10:19:16:036,right,10:19:16:503,,2018_May_29_1000,59.9492832123,MP-Perception Experiment,x01w19,
184,training(34).mov,False,right,1,vgpdm_dyn(20)-lvm(30)_final(6).mov,0,24,24,51,,,,,,,,10:19:17:288,10:19:18:019,10:19:21:022,right,10:19:21:322,,2018_May_29_1000,59.9492832123,MP-Perception Experiment,x01w19,
185,training(39).mov,False,right,1,vcgpdm_dyn(10)-lvm(10)_final(5).mov,0,25,25,122,,,,,,,,10:19:22:115,10:19:22:823,10:19:25:826,right,10:19:26:176,,2018_May_29_1000,59.9492832123,MP-Perception Experiment,x01w19,
186,training(48).mov,False,right,1,vgpdm_dyn(5)-lvm(15)_final(2).mov,0,26,26,32,,,,,,,,10:19:26:964,10:19:27:694,10:19:30:699,right,10:19:31:016,,2018_May_29_1000,59.9492832123,MP-Perception Experiment,x01w19,
187,training(24).mov,True,right,1,tmp_numprim(10)_final(5).mov,0,27,27,107,,,,,,,,10:19:31:798,10:19:32:534,10:19:35:536,left,10:19:36:053,,2018_May_29_1000,59.9492832123,MP-Perception Experiment,x01w19,
188,vgpdm_dyn(10)-lvm(20)_final(7).mov,False,left,1,training(7).mov,0,28,28,116,,,,,,,,10:19:36:847,10:19:37:554,10:19:40:557,left,10:19:40:907,,2018_May_29_1000,59.9492832123,MP-Perception Experiment,x01w19,
189,training(21).mov,False,right,1,vcgpdm_dyn(20)-lvm(25)_final(5).mov,0,29,29,92,,,,,,,,10:19:41:709,10:19:42:408,10:19:45:411,right,10:19:45:745,,2018_May_29_1000,59.9492832123,MP-Perception Experiment,x01w19,
190,training(13).mov,True,right,1,vgpdm_dyn(5)-lvm(30)_final(7).mov,0,30,30,59,,,,,,,,10:19:46:530,10:19:47:246,10:19:50:249,right,10:19:50:616,,2018_May_29_1000,59.9492832123,MP-Perception Experiment,x01w19,
191,vcgpdm_dyn(15)-lvm(35)_final(0).mov,True,left,1,training(23).mov,0,31,31,105,,,,,,,,10:19:51:404,10:19:52:117,10:19:55:136,left,10:19:55:570,,2018_May_29_1000,59.9492832123,MP-Perception Experiment,x01w19,
192,training(18).mov,True,right,1,vgpdm_dyn(10)-lvm(35)_final(8).mov,0,32,32,115,,,,,,,,10:19:56:365,10:19:57:071,10:20:00:090,right,10:20:00:474,,2018_May_29_1000,59.9492832123,MP-Perception Experiment,x01w19,
193,training(4).mov,True,right,1,vcgpdm_dyn(30)-lvm(15)_final(5).mov,0,33,33,24,,,,,,,,10:20:01:261,10:20:01:975,10:20:04:977,right,10:20:05:362,,2018_May_29_1000,59.9492832123,MP-Perception Experiment,x01w19,
194,training(38).mov,True,right,1,vgpdm_dyn(20)-lvm(5)_final(1).mov,0,34,34,128,,,,,,,,10:20:06:144,10:20:06:863,10:20:09:864,left,10:20:10:298,,2018_May_29_1000,59.9492832123,MP-Perception Experiment,x01w19,
195,vgpdm_dyn(25)-lvm(20)_final(7).mov,False,left,1,training(17).mov,0,35,35,26,,,,,,,,10:20:11:074,10:20:11:799,10:20:14:801,left,10:20:15:135,,2018_May_29_1000,59.9492832123,MP-Perception Experiment,x01w19,
196,training(31).mov,False,right,1,vgpdm_dyn(10)-lvm(10)_final(3).mov,0,36,36,74,,,,,,,,10:20:15:919,10:20:16:636,10:20:19:639,right,10:20:19:941,,2018_May_29_1000,59.9492832123,MP-Perception Experiment,x01w19,
197,dmp_npsi(35)_final(3).mov,False,left,1,training(8).mov,0,37,37,85,,,,,,,,10:20:20:714,10:20:21:442,10:20:24:462,right,10:20:24:946,,2018_May_29_1000,59.9492832123,MP-Perception Experiment,x01w19,
198,training(10).mov,False,right,1,vcgpdm_dyn(15)-lvm(15)_final(2).mov,0,38,38,23,,,,,,,,10:20:25:730,10:20:26:447,10:20:29:449,right,10:20:29:933,,2018_May_29_1000,59.9492832123,MP-Perception Experiment,x01w19,
199,vcgpdm_dyn(5)-lvm(5)_final(9).mov,False,left,1,training(11).mov,0,39,39,133,,,,,,,,10:20:30:709,10:20:31:434,10:20:34:437,left,10:20:34:854,,2018_May_29_1000,59.9492832123,MP-Perception Experiment,x01w19,
200,training(13).mov,False,right,1,vgpdm_dyn(15)-lvm(35)_final(7).mov,0,40,40,34,,,,,,,,10:20:35:635,10:20:36:355,10:20:39:358,left,10:20:39:775,,2018_May_29_1000,59.9492832123,MP-Perception Experiment,x01w19,
201,vcgpdm_dyn(35)-lvm(25)_final(9).mov,False,left,1,training(20).mov,0,41,41,73,,,,,,,,10:20:40:576,10:20:41:277,10:20:44:296,left,10:20:44:679,,2018_May_29_1000,59.9492832123,MP-Perception Experiment,x01w19,
202,vgpdm_dyn(10)-lvm(35)_final(7).mov,False,left,1,training(36).mov,0,42,42,5,,,,,,,,10:20:45:455,10:20:46:180,10:20:49:183,left,10:20:49:500,,2018_May_29_1000,59.9492832123,MP-Perception Experiment,x01w19,
203,vcgpdm_dyn(15)-lvm(15)_final(7).mov,True,left,1,training(15).mov,0,43,43,110,,,,,,,,10:20:50:303,10:20:51:001,10:20:54:003,left,10:20:54:370,,2018_May_29_1000,59.9492832123,MP-Perception Experiment,x01w19,
204,tmp_numprim(10)_final(8).mov,True,left,1,training(16).mov,0,44,44,46,,,,,,,,10:20:55:151,10:20:55:888,10:20:58:873,left,10:20:59:157,,2018_May_29_1000,59.9492832123,MP-Perception Experiment,x01w19,
205,vcgpdm_dyn(15)-lvm(15)_final(1).mov,False,left,1,training(36).mov,0,45,45,102,,,,,,,,10:20:59:938,10:21:00:658,10:21:03:660,right,10:21:04:211,,2018_May_29_1000,59.9492832123,MP-Perception Experiment,x01w19,
206,map_gpdm_final(6).mov,False,left,1,training(32).mov,0,46,46,12,,,,,,,,10:21:04:996,10:21:05:712,10:21:08:715,left,10:21:09:032,,2018_May_29_1000,59.9492832123,MP-Perception Experiment,x01w19,
207,vcgpdm_dyn(10)-lvm(35)_final(6).mov,False,left,1,training(14).mov,0,47,47,13,,,,,,,,10:21:09:825,10:21:10:533,10:21:13:537,left,10:21:13:921,,2018_May_29_1000,59.9492832123,MP-Perception Experiment,x01w19,
208,vgpdm_dyn(30)-lvm(30)_final(1).mov,True,left,1,training(34).mov,0,48,48,22,,,,,,,,10:21:14:697,10:21:15:423,10:21:18:442,right,10:21:19:092,,2018_May_29_1000,59.9492832123,MP-Perception Experiment,x01w19,
209,training(34).mov,True,right,1,vcgpdm_dyn(15)-lvm(10)_final(3).mov,0,49,49,100,,,,,,,,10:21:19:881,10:21:20:610,10:21:23:596,left,10:21:23:996,,2018_May_29_1000,59.9492832123,MP-Perception Experiment,x01w19,
210,training(9).mov,True,right,1,tmp_numprim(9)_final(3).mov,0,50,50,134,,,,,,,,10:21:24:776,10:21:25:498,10:21:28:500,left,10:21:28:884,,2018_May_29_1000,59.9492832123,MP-Perception Experiment,x01w19,
211,vgpdm_dyn(35)-lvm(10)_final(2).mov,False,left,1,training(19).mov,0,51,51,108,,,,,,,,10:21:29:669,10:21:30:385,10:21:33:388,left,10:21:33:855,,2018_May_29_1000,59.9492832123,MP-Perception Experiment,x01w19,
212,tmp_numprim(4)_final(6).mov,False,left,1,training(27).mov,0,52,52,80,,,,,,,,10:21:34:656,10:21:35:373,10:21:38:359,left,10:21:38:759,,2018_May_29_1000,59.9492832123,MP-Perception Experiment,x01w19,
213,training(30).mov,True,right,1,vcgpdm_dyn(15)-lvm(5)_final(8).mov,0,53,53,83,,,,,,,,10:21:39:555,10:21:40:260,10:21:43:280,left,10:21:43:713,,2018_May_29_1000,59.9492832123,MP-Perception Experiment,x01w19,
214,vcgpdm_dyn(25)-lvm(5)_final(5).mov,True,left,1,training(22).mov,0,54,54,19,,,,,,,,10:21:44:498,10:21:45:214,10:21:48:215,left,10:21:48:649,,2018_May_29_1000,59.9492832123,MP-Perception Experiment,x01w19,
215,training(12).mov,True,right,1,vcgpdm_dyn(10)-lvm(5)_final(7).mov,0,55,55,84,,,,,,,,10:21:49:449,10:21:50:151,10:21:53:153,right,10:21:53:454,,2018_May_29_1000,59.9492832123,MP-Perception Experiment,x01w19,
216,training(7).mov,False,right,1,vgpdm_dyn(30)-lvm(35)_final(6).mov,0,56,56,47,,,,,,,,10:21:54:228,10:21:54:955,10:21:57:957,right,10:21:58:224,,2018_May_29_1000,59.9492832123,MP-Perception Experiment,x01w19,
217,training(12).mov,False,right,1,vgpdm_dyn(5)-lvm(10)_final(0).mov,0,57,57,67,,,,,,,,10:21:59:000,10:21:59:725,10:22:02:730,right,10:22:03:097,,2018_May_29_1000,59.9492832123,MP-Perception Experiment,x01w19,
218,training(1).mov,True,right,1,vcgpdm_dyn(35)-lvm(15)_final(3)_out_of_screen.mov,0,58,58,154,,,,,,,,10:22:03:892,10:22:04:598,10:22:07:601,right,10:22:07:952,,2018_May_29_1000,59.9492832123,MP-Perception Experiment,x01w19,
219,tmp_numprim(3)_final(1).mov,True,left,1,training(36).mov,0,59,59,86,,,,,,,,10:22:08:734,10:22:09:469,10:22:12:455,left,10:22:12:772,,2018_May_29_1000,59.9492832123,MP-Perception Experiment,x01w19,
220,vcgpdm_dyn(15)-lvm(25)_final(1).mov,True,left,1,training(18).mov,0,60,60,8,,,,,,,,10:22:13:561,10:22:14:273,10:22:17:276,left,10:22:17:693,,2018_May_29_1000,59.9492832123,MP-Perception Experiment,x01w19,
221,training(41).mov,False,right,1,vcgpdm_dyn(5)-lvm(5)_final(6).mov,0,61,61,6,,,,,,,,10:22:18:477,10:22:19:194,10:22:22:196,right,10:22:22:580,,2018_May_29_1000,59.9492832123,MP-Perception Experiment,x01w19,
222,training(2).mov,False,right,1,map_cgpdm_final(7).mov,0,62,62,142,,,,,,,,10:22:23:379,10:22:24:099,10:22:27:085,left,10:22:27:518,,2018_May_29_1000,59.9492832123,MP-Perception Experiment,x01w19,
223,vgpdm_dyn(15)-lvm(30)_final(5).mov,False,left,1,training(16).mov,0,63,63,11,,,,,,,,10:22:28:304,10:22:29:019,10:22:32:022,left,10:22:32:406,,2018_May_29_1000,59.9492832123,MP-Perception Experiment,x01w19,
224,vcgpdm_dyn(35)-lvm(20)_final(6).mov,True,left,1,training(37).mov,0,64,64,81,,,,,,,,10:22:33:193,10:22:33:907,10:22:36:909,right,10:22:37:376,,2018_May_29_1000,59.9492832123,MP-Perception Experiment,x01w19,
225,training(8).mov,True,right,1,vgpdm_dyn(20)-lvm(30)_final(0).mov,0,65,65,71,,,,,,,,10:22:38:176,10:22:38:892,10:22:41:895,right,10:22:42:162,,2018_May_29_1000,59.9492832123,MP-Perception Experiment,x01w19,
226,training(14).mov,True,right,1,vcgpdm_dyn(30)-lvm(10)_final(9).mov,0,66,66,65,,,,,,,,10:22:42:971,10:22:43:680,10:22:46:666,right,10:22:47:017,,2018_May_29_1000,59.9492832123,MP-Perception Experiment,x01w19,
227,training(21).mov,True,right,1,vcgpdm_dyn(10)-lvm(35)_final(1).mov,0,67,67,1,,,,,,,,10:22:47:801,10:22:48:518,10:22:51:522,right,10:22:51:989,,2018_May_29_1000,59.9492832123,MP-Perception Experiment,x01w19,
228,training(41).mov,False,right,1,vcgpdm_dyn(5)-lvm(5)_final(1).mov,0,68,68,0,,,,,,,,10:22:52:767,10:22:53:490,10:22:56:493,right,10:22:56:810,,2018_May_29_1000,59.9492832123,MP-Perception Experiment,x01w19,
229,vcgpdm_dyn(10)-lvm(20)_final(2).mov,False,left,1,training(18).mov,0,69,69,130,,,,,,,,10:22:57:591,10:22:58:311,10:23:01:331,left,10:23:01:765,,2018_May_29_1000,59.9492832123,MP-Perception Experiment,x01w19,
230,vgpdm_dyn(15)-lvm(5)_final(6).mov,True,left,1,training(5).mov,0,70,70,4,,,,,,,,10:23:02:556,10:23:03:266,10:23:06:285,left,10:23:06:669,,2018_May_29_1000,59.9492832123,MP-Perception Experiment,x01w19,
231,training(32).mov,False,right,1,dmp_npsi(40)_final(2).mov,0,71,71,44,,,,,,,,10:23:07:459,10:23:08:170,10:23:11:172,right,10:23:11:523,,2018_May_29_1000,59.9492832123,MP-Perception Experiment,x01w19,
232,training(20).mov,False,right,1,vgpdm_dyn(25)-lvm(35)_final(0).mov,0,72,72,55,,,,,,,,10:23:13:233,10:23:13:233,10:23:16:026,right,10:23:16:510,,2018_May_29_1000,59.9492832123,MP-Perception Experiment,x01w19,
233,training(18).mov,True,right,1,vgpdm_dyn(25)-lvm(15)_final(1)_out_of_screen.mov,0,73,73,103,,,,,,,,10:23:17:289,10:23:18:012,10:23:21:015,right,10:23:21:398,,2018_May_29_1000,59.9492832123,MP-Perception Experiment,x01w19,
234,dmp_npsi(15)_final(9).mov,False,left,1,training(25).mov,0,74,74,144,,,,,,,,10:23:22:186,10:23:22:899,10:23:25:918,left,10:23:26:252,,2018_May_29_1000,59.9492832123,MP-Perception Experiment,x01w19,
235,training(21).mov,True,right,1,vcgpdm_dyn(20)-lvm(20)_final(2).mov,0,75,75,149,,,,,,,,10:23:27:044,10:23:27:753,10:23:30:754,left,10:23:31:071,,2018_May_29_1000,59.9492832123,MP-Perception Experiment,x01w19,
236,vgpdm_dyn(10)-lvm(25)_final(0).mov,False,left,1,training(6).mov,0,76,76,127,,,,,,,,10:23:31:855,10:23:32:572,10:23:35:575,left,10:23:35:776,,2018_May_29_1000,59.9492832123,MP-Perception Experiment,x01w19,
237,vcgpdm_dyn(25)-lvm(30)_final(4).mov,True,left,1,training(15).mov,0,77,77,112,,,,,,,,10:23:36:563,10:23:37:277,10:23:40:281,right,10:23:40:781,,2018_May_29_1000,59.9492832123,MP-Perception Experiment,x01w19,
238,training(9).mov,True,right,1,vcgpdm_dyn(35)-lvm(10)_final(9).mov,0,78,78,136,,,,,,,,10:23:41:565,10:23:42:283,10:23:45:285,right,10:23:45:719,,2018_May_29_1000,59.9492832123,MP-Perception Experiment,x01w19,
239,map_cgpdm_final(6).mov,False,left,1,training(9).mov,0,79,79,93,,,,,,,,10:23:46:506,10:23:47:220,10:23:50:239,left,10:23:50:640,,2018_May_29_1000,59.9492832123,MP-Perception Experiment,x01w19,
240,training(36).mov,False,right,1,vcgpdm_dyn(25)-lvm(5)_final(4).mov,0,80,80,131,,,,,,,,10:23:51:428,10:23:52:141,10:23:55:144,left,10:23:55:561,,2018_May_29_1000,59.9492832123,MP-Perception Experiment,x01w19,
241,vcgpdm_dyn(15)-lvm(10)_final(6).mov,False,left,1,training(35).mov,0,81,81,16,,,,,,,,10:23:56:352,10:23:57:062,10:24:00:065,left,10:24:00:398,,2018_May_29_1000,59.9492832123,MP-Perception Experiment,x01w19,
242,vcgpdm_dyn(5)-lvm(15)_final(9).mov,True,left,1,training(12).mov,0,82,82,140,,,,,,,,10:24:01:181,10:24:01:899,10:24:04:902,left,10:24:05:236,,2018_May_29_1000,59.9492832123,MP-Perception Experiment,x01w19,
243,dmp_npsi(10)_final(1)_bad.mov,True,left,1,training(36).mov,0,83,83,98,,,,,,,,10:24:06:026,10:24:06:737,10:24:09:739,left,10:24:10:074,,2018_May_29_1000,59.9492832123,MP-Perception Experiment,x01w19,
244,training(3).mov,True,right,1,vcgpdm_dyn(25)-lvm(5)_final(9).mov,0,84,84,42,,,,,,,,10:24:10:872,10:24:11:592,10:24:14:577,left,10:24:15:178,,2018_May_29_1000,59.9492832123,MP-Perception Experiment,x01w19,
245,training(40).mov,False,right,1,vcgpdm_dyn(5)-lvm(15)_final(0).mov,0,85,85,156,,,,,,,,10:24:15:956,10:24:16:679,10:24:19:680,right,10:24:20:113,,2018_May_29_1000,59.9492832123,MP-Perception Experiment,x01w19,
246,training(21).mov,True,right,1,vgpdm_dyn(20)-lvm(20)_final(2).mov,0,86,86,49,,,,,,,,10:24:20:898,10:24:21:615,10:24:24:617,left,10:24:25:001,,2018_May_29_1000,59.9492832123,MP-Perception Experiment,x01w19,
247,training(41).mov,True,right,1,vgpdm_dyn(25)-lvm(20)_final(2).mov,0,87,87,114,,,,,,,,10:24:25:789,10:24:26:518,10:24:29:505,right,10:24:29:822,,2018_May_29_1000,59.9492832123,MP-Perception Experiment,x01w19,
248,vcgpdm_dyn(10)-lvm(20)_final(9).mov,False,left,1,training(35).mov,0,88,88,90,,,,,,,,10:24:30:599,10:24:31:323,10:24:34:311,right,10:24:34:711,,2018_May_29_1000,59.9492832123,MP-Perception Experiment,x01w19,
249,training(19).mov,False,right,1,vcgpdm_dyn(10)-lvm(15)_final(7).mov,0,89,89,113,,,,,,,,10:24:35:494,10:24:36:212,10:24:39:215,right,10:24:39:565,,2018_May_29_1000,59.9492832123,MP-Perception Experiment,x01w19,
250,vcgpdm_dyn(15)-lvm(25)_final(2).mov,False,left,1,training(15).mov,0,90,90,52,,,,,,,,10:24:40:355,10:24:41:066,10:24:44:069,left,10:24:44:403,,2018_May_29_1000,59.9492832123,MP-Perception Experiment,x01w19,
251,training(12).mov,True,right,1,vcgpdm_dyn(15)-lvm(5)_final(4).mov,0,91,91,40,,,,,,,,10:24:45:182,10:24:45:921,10:24:48:907,left,10:24:49:241,,2018_May_29_1000,59.9492832123,MP-Perception Experiment,x01w19,
252,tmp_numprim(6)_final(9).mov,True,left,1,training(11).mov,0,92,92,96,,,,,,,,10:24:50:020,10:24:50:742,10:24:53:761,left,10:24:54:178,,2018_May_29_1000,59.9492832123,MP-Perception Experiment,x01w19,
253,vcgpdm_dyn(25)-lvm(15)_final(1).mov,False,left,1,training(12).mov,0,93,93,101,,,,,,,,10:24:54:971,10:24:55:679,10:24:58:682,left,10:24:59:049,,2018_May_29_1000,59.9492832123,MP-Perception Experiment,x01w19,
254,vgpdm_dyn(30)-lvm(5)_final(8).mov,False,left,1,training(31).mov,0,94,94,48,,,,,,,,10:24:59:840,10:25:00:550,10:25:03:570,left,10:25:04:020,,2018_May_29_1000,59.9492832123,MP-Perception Experiment,x01w19,
255,vcgpdm_dyn(25)-lvm(10)_final(4).mov,True,left,1,training(27).mov,0,95,95,157,,,,,,,,10:25:04:791,10:25:05:522,10:25:08:522,right,10:25:08:939,,2018_May_29_1000,59.9492832123,MP-Perception Experiment,x01w19,
256,training(35).mov,True,right,1,vgpdm_dyn(20)-lvm(35)_final(6).mov,0,96,96,63,,,,,,,,10:25:09:715,10:25:10:440,10:25:13:443,right,10:25:13:727,,2018_May_29_1000,59.9492832123,MP-Perception Experiment,x01w19,
257,training(38).mov,True,right,1,vgpdm_dyn(10)-lvm(30)_final(4).mov,0,97,97,151,,,,,,,,10:25:14:513,10:25:15:244,10:25:18:230,right,10:25:18:514,,2018_May_29_1000,59.9492832123,MP-Perception Experiment,x01w19,
258,training(37).mov,False,right,1,dmp_npsi(20)_final(9).mov,0,98,98,60,,,,,,,,10:25:19:290,10:25:20:016,10:25:23:003,right,10:25:23:287,,2018_May_29_1000,59.9492832123,MP-Perception Experiment,x01w19,
259,vcgpdm_dyn(30)-lvm(30)_final(8).mov,False,left,1,training(5).mov,0,99,99,106,,,,,,,,10:25:24:075,10:25:24:788,10:25:27:807,right,10:25:28:191,,2018_May_29_1000,59.9492832123,MP-Perception Experiment,x01w19,
260,tmp_numprim(4)_final(1).mov,False,left,1,training(13).mov,0,100,100,75,,,,,,,,10:25:28:988,10:25:29:692,10:25:32:695,left,10:25:33:196,,2018_May_29_1000,59.9492832123,MP-Perception Experiment,x01w19,
261,vcgpdm_dyn(10)-lvm(30)_final(9).mov,False,left,1,training(14).mov,0,101,101,56,,,,,,,,10:25:33:970,10:25:34:696,10:25:37:716,left,10:25:38:167,,2018_May_29_1000,59.9492832123,MP-Perception Experiment,x01w19,
262,training(31).mov,False,right,1,vcgpdm_dyn(35)-lvm(30)_final(1).mov,0,102,102,121,,,,,,,,10:25:38:954,10:25:39:668,10:25:42:670,left,10:25:43:104,,2018_May_29_1000,59.9492832123,MP-Perception Experiment,x01w19,
263,training(11).mov,False,right,1,vgpdm_dyn(35)-lvm(35)_final(7).mov,0,103,103,2,,,,,,,,10:25:43:882,10:25:44:605,10:25:47:624,left,10:25:47:975,,2018_May_29_1000,59.9492832123,MP-Perception Experiment,x01w19,
264,training(13).mov,True,right,1,vcgpdm_dyn(30)-lvm(25)_final(1).mov,0,104,104,28,,,,,,,,10:25:48:755,10:25:49:476,10:25:52:478,right,10:25:53:096,,2018_May_29_1000,59.9492832123,MP-Perception Experiment,x01w19,
265,training(37).mov,False,right,1,dmp_npsi(50)_final(9).mov,0,105,105,72,,,,,,,,10:25:53:883,10:25:54:596,10:25:57:600,left,10:25:58:249,,2018_May_29_1000,59.9492832123,MP-Perception Experiment,x01w19,
266,training(36).mov,True,right,1,vcgpdm_dyn(25)-lvm(30)_final(3).mov,0,106,106,111,,,,,,,,10:25:59:030,10:25:59:750,10:26:02:752,right,10:26:03:119,,2018_May_29_1000,59.9492832123,MP-Perception Experiment,x01w19,
267,training(7).mov,False,right,1,vgpdm_dyn(15)-lvm(20)_final(9)_out_of_screen.mov,0,107,107,95,,,,,,,,10:26:03:908,10:26:04:620,10:26:07:623,right,10:26:07:973,,2018_May_29_1000,59.9492832123,MP-Perception Experiment,x01w19,
268,dmp_npsi(40)_final(5).mov,True,left,1,training(23).mov,0,108,108,69,,,,,,,,10:26:08:754,10:26:09:474,10:26:12:463,left,10:26:12:997,,2018_May_29_1000,59.9492832123,MP-Perception Experiment,x01w19,
269,training(22).mov,True,right,1,vgpdm_dyn(15)-lvm(15)_final(1).mov,0,109,109,20,,,,,,,,10:26:13:791,10:26:14:515,10:26:17:500,right,10:26:17:901,,2018_May_29_1000,59.9492832123,MP-Perception Experiment,x01w19,
270,training(38).mov,False,right,1,vcgpdm_dyn(10)-lvm(30)_final(4).mov,0,110,110,25,,,,,,,,10:26:18:691,10:26:19:402,10:26:22:421,right,10:26:22:771,,2018_May_29_1000,59.9492832123,MP-Perception Experiment,x01w19,
271,training(40).mov,False,right,1,vgpdm_dyn(15)-lvm(15)_final(0).mov,0,111,111,61,,,,,,,,10:26:23:546,10:26:24:272,10:26:27:275,right,10:26:27:625,,2018_May_29_1000,59.9492832123,MP-Perception Experiment,x01w19,
272,vgpdm_dyn(10)-lvm(20)_final(7).mov,False,left,1,training(5).mov,0,112,112,53,,,,,,,,10:26:28:406,10:26:29:126,10:26:32:130,right,10:26:32:513,,2018_May_29_1000,59.9492832123,MP-Perception Experiment,x01w19,
273,training(27).mov,False,right,1,vgpdm_dyn(10)-lvm(20)_final(2).mov,0,113,113,30,,,,,,,,10:26:33:303,10:26:34:015,10:26:37:017,right,10:26:37:317,,2018_May_29_1000,59.9492832123,MP-Perception Experiment,x01w19,
274,training(18).mov,True,right,1,vcgpdm_dyn(15)-lvm(35)_final(9).mov,0,114,114,143,,,,,,,,10:26:38:099,10:26:38:835,10:26:41:821,left,10:26:42:105,,2018_May_29_1000,59.9492832123,MP-Perception Experiment,x01w19,
275,vcgpdm_dyn(30)-lvm(30)_final(3).mov,True,left,1,training(31).mov,0,115,115,104,,,,,,,,10:26:42:883,10:26:43:606,10:26:46:625,left,10:26:46:908,,2018_May_29_1000,59.9492832123,MP-Perception Experiment,x01w19,
276,training(9).mov,False,right,1,vcgpdm_dyn(10)-lvm(15)_final(9).mov,0,116,116,94,,,,,,,,10:26:47:690,10:26:48:426,10:26:51:411,right,10:26:51:728,,2018_May_29_1000,59.9492832123,MP-Perception Experiment,x01w19,
277,training(39).mov,True,right,1,vgpdm_dyn(35)-lvm(35)_final(7).mov,0,117,117,62,,,,,,,,10:26:52:521,10:26:53:229,10:26:56:232,left,10:26:56:549,,2018_May_29_1000,59.9492832123,MP-Perception Experiment,x01w19,
278,training(1).mov,True,right,1,vgpdm_dyn(30)-lvm(15)_final(7).mov,0,118,118,29,,,,,,,,10:26:57:331,10:26:58:067,10:27:01:054,right,10:27:01:555,,2018_May_29_1000,59.9492832123,MP-Perception Experiment,x01w19,
279,training(21).mov,False,right,1,vcgpdm_dyn(30)-lvm(20)_final(9).mov,0,119,119,141,,,,,,,,10:27:02:354,10:27:03:056,10:27:06:076,left,10:27:06:560,,2018_May_29_1000,59.9492832123,MP-Perception Experiment,x01w19,
280,training(48).mov,True,right,1,vcgpdm_dyn(30)-lvm(35)_final(6).mov,0,120,120,137,,,,,,,,10:27:07:337,10:27:08:061,10:27:11:063,left,10:27:11:647,,2018_May_29_1000,59.9492832123,MP-Perception Experiment,x01w19,
281,vgpdm_dyn(30)-lvm(15)_final(7).mov,True,left,1,training(2).mov,0,121,121,41,,,,,,,,10:27:13:273,10:27:13:273,10:27:16:167,left,10:27:16:551,,2018_May_29_1000,59.9492832123,MP-Perception Experiment,x01w19,
282,vgpdm_dyn(15)-lvm(15)_final(1).mov,True,left,1,training(16).mov,0,122,122,123,,,,,,,,10:27:17:353,10:27:18:052,10:27:21:071,left,10:27:21:472,,2018_May_29_1000,59.9492832123,MP-Perception Experiment,x01w19,
283,training(10).mov,True,right,1,dmp_npsi(20)_final(5).mov,0,123,123,132,,,,,,,,10:27:22:281,10:27:22:974,10:27:25:976,right,10:27:26:277,,2018_May_29_1000,59.9492832123,MP-Perception Experiment,x01w19,
284,vcgpdm_dyn(10)-lvm(25)_final(0).mov,False,left,1,training(4).mov,0,124,124,148,,,,,,,,10:27:27:062,10:27:27:778,10:27:30:780,left,10:27:31:064,,2018_May_29_1000,59.9492832123,MP-Perception Experiment,x01w19,
285,training(35).mov,True,right,1,vcgpdm_dyn(35)-lvm(10)_final(8).mov,0,125,125,146,,,,,,,,10:27:31:852,10:27:32:581,10:27:35:584,right,10:27:36:185,,2018_May_29_1000,59.9492832123,MP-Perception Experiment,x01w19,
286,vgpdm_dyn(15)-lvm(35)_final(9).mov,False,left,1,training(22).mov,0,126,126,99,,,,,,,,10:27:36:975,10:27:37:686,10:27:40:687,left,10:27:41:021,,2018_May_29_1000,59.9492832123,MP-Perception Experiment,x01w19,
287,tmp_numprim(7)_final(3).mov,False,left,1,training(6).mov,0,127,127,18,,,,,,,,10:27:41:799,10:27:42:522,10:27:45:525,left,10:27:45:809,,2018_May_29_1000,59.9492832123,MP-Perception Experiment,x01w19,
288,training(37).mov,False,right,1,vcgpdm_dyn(35)-lvm(5)_final(7).mov,0,128,128,117,,,,,,,,10:27:46:592,10:27:47:309,10:27:50:312,right,10:27:50:579,,2018_May_29_1000,59.9492832123,MP-Perception Experiment,x01w19,
289,vcgpdm_dyn(20)-lvm(30)_final(2).mov,False,left,1,training(15).mov,0,129,129,76,,,,,,,,10:27:51:379,10:27:52:080,10:27:55:084,left,10:27:55:601,,2018_May_29_1000,59.9492832123,MP-Perception Experiment,x01w19,
290,vcgpdm_dyn(30)-lvm(10)_final(2).mov,True,left,1,training(23).mov,0,130,130,38,,,,,,,,10:27:56:410,10:27:57:120,10:28:00:106,left,10:28:00:523,,2018_May_29_1000,59.9492832123,MP-Perception Experiment,x01w19,
291,training(22).mov,False,right,1,vgpdm_dyn(20)-lvm(30)_final(7).mov,0,131,131,124,,,,,,,,10:28:01:305,10:28:02:024,10:28:05:043,right,10:28:05:427,,2018_May_29_1000,59.9492832123,MP-Perception Experiment,x01w19,
292,vcgpdm_dyn(5)-lvm(20)_final(5).mov,True,left,1,training(31).mov,0,132,132,145,,,,,,,,10:28:06:233,10:28:06:928,10:28:09:947,left,10:28:10:331,,2018_May_29_1000,59.9492832123,MP-Perception Experiment,x01w19,
293,vgpdm_dyn(30)-lvm(10)_final(1).mov,True,left,1,training(21).mov,0,133,133,14,,,,,,,,10:28:11:102,10:28:11:832,10:28:14:835,left,10:28:15:169,,2018_May_29_1000,59.9492832123,MP-Perception Experiment,x01w19,
294,tmp_numprim(3)_final(6).mov,False,left,1,training(5).mov,0,134,134,54,,,,,,,,10:28:15:961,10:28:16:670,10:28:19:673,left,10:28:19:973,,2018_May_29_1000,59.9492832123,MP-Perception Experiment,x01w19,
295,vcgpdm_dyn(35)-lvm(20)_final(7).mov,True,left,1,training(4).mov,0,135,135,79,,,,,,,,10:28:20:756,10:28:21:474,10:28:24:493,left,10:28:24:910,,2018_May_29_1000,59.9492832123,MP-Perception Experiment,x01w19,
296,tmp_numprim(2)_final(4).mov,True,left,1,training(32).mov,0,136,136,129,,,,,,,,10:28:25:702,10:28:26:411,10:28:29:412,left,10:28:29:696,,2018_May_29_1000,59.9492832123,MP-Perception Experiment,x01w19,
297,training(40).mov,True,right,1,vcgpdm_dyn(30)-lvm(20)_final(4).mov,0,137,137,66,,,,,,,,10:28:30:486,10:28:31:197,10:28:34:200,right,10:28:34:551,,2018_May_29_1000,59.9492832123,MP-Perception Experiment,x01w19,
298,dmp_npsi(15)_final(4).mov,False,left,1,training(0).mov,0,138,138,45,,,,,,,,10:28:35:331,10:28:36:052,10:28:39:054,left,10:28:39:321,,2018_May_29_1000,59.9492832123,MP-Perception Experiment,x01w19,
299,vcgpdm_dyn(25)-lvm(25)_final(2).mov,False,left,1,training(17).mov,0,139,139,89,,,,,,,,10:28:40:114,10:28:40:822,10:28:43:826,right,10:28:44:794,,2018_May_29_1000,59.9492832123,MP-Perception Experiment,x01w19,
300,map_cgpdm_final(0).mov,False,left,1,training(20).mov,0,140,140,39,,,,,,,,10:28:45:577,10:28:46:295,10:28:49:297,left,10:28:49:716,,2018_May_29_1000,59.9492832123,MP-Perception Experiment,x01w19,
301,vcgpdm_dyn(5)-lvm(5)_final(0).mov,False,left,1,training(28).mov,0,141,141,135,,,,,,,,10:28:50:509,10:28:51:233,10:28:54:219,right,10:28:54:636,,2018_May_29_1000,59.9492832123,MP-Perception Experiment,x01w19,
302,vgpdm_dyn(20)-lvm(25)_final(2).mov,False,left,1,training(8).mov,0,142,142,36,,,,,,,,10:28:55:421,10:28:56:137,10:28:59:157,right,10:28:59:624,,2018_May_29_1000,59.9492832123,MP-Perception Experiment,x01w19,
303,training(28).mov,False,right,1,vcgpdm_dyn(35)-lvm(5)_final(4).mov,0,143,143,138,,,,,,,,10:29:00:404,10:29:01:125,10:29:04:127,left,10:29:04:478,,2018_May_29_1000,59.9492832123,MP-Perception Experiment,x01w19,
304,training(23).mov,True,right,1,vcgpdm_dyn(20)-lvm(30)_final(7).mov,0,144,144,82,,,,,,,,10:29:05:274,10:29:05:979,10:29:08:982,right,10:29:09:516,,2018_May_29_1000,59.9492832123,MP-Perception Experiment,x01w19,
305,vgpdm_dyn(30)-lvm(20)_final(1).mov,False,left,1,training(40).mov,0,145,145,109,,,,,,,,10:29:10:294,10:29:11:017,10:29:14:019,left,10:29:14:386,,2018_May_29_1000,59.9492832123,MP-Perception Experiment,x01w19,
306,training(36).mov,False,right,1,vgpdm_dyn(25)-lvm(30)_final(6).mov,0,146,146,139,,,,,,,,10:29:15:170,10:29:15:888,10:29:18:888,right,10:29:19:422,,2018_May_29_1000,59.9492832123,MP-Perception Experiment,x01w19,
307,training(11).mov,False,right,1,tmp_numprim(9)_final(7).mov,0,147,147,68,,,,,,,,10:29:20:218,10:29:20:923,10:29:23:926,right,10:29:24:243,,2018_May_29_1000,59.9492832123,MP-Perception Experiment,x01w19,
308,vcgpdm_dyn(30)-lvm(5)_final(7).mov,False,left,1,training(31).mov,0,148,148,57,,,,,,,,10:29:25:021,10:29:25:745,10:29:28:747,right,10:29:29:048,,2018_May_29_1000,59.9492832123,MP-Perception Experiment,x01w19,
309,training(41).mov,False,right,1,vcgpdm_dyn(20)-lvm(20)_final(6).mov,0,149,149,88,,,,,,,,10:29:29:866,10:29:30:550,10:29:33:536,right,10:29:33:603,,2018_May_29_1000,59.9492832123,MP-Perception Experiment,x01w19,
310,training(27).mov,True,right,1,vgpdm_dyn(15)-lvm(30)_final(4).mov,0,150,150,126,,,,,,,,10:29:34:398,10:29:35:121,10:29:38:123,right,10:29:38:390,,2018_May_29_1000,59.9492832123,MP-Perception Experiment,x01w19,
311,vgpdm_dyn(5)-lvm(10)_final(9).mov,False,left,1,training(11).mov,0,151,151,152,,,,,,,,10:29:39:173,10:29:39:908,10:29:42:895,left,10:29:43:278,,2018_May_29_1000,59.9492832123,MP-Perception Experiment,x01w19,
312,tmp_numprim(5)_final(7).mov,False,left,1,training(40).mov,0,152,152,147,,,,,,,,10:29:44:052,10:29:44:780,10:29:47:799,left,10:29:48:166,,2018_May_29_1000,59.9492832123,MP-Perception Experiment,x01w19,
313,map_cgpdm_final(5).mov,True,left,1,training(5).mov,0,153,153,158,,,,,,,,10:29:48:944,10:29:49:667,10:29:52:669,left,10:29:52:986,,2018_May_29_1000,59.9492832123,MP-Perception Experiment,x01w19,
314,vgpdm_dyn(5)-lvm(15)_final(0).mov,False,left,1,training(32).mov,0,154,154,77,,,,,,,,10:29:53:767,10:29:54:487,10:29:57:490,left,10:29:57:874,,2018_May_29_1000,59.9492832123,MP-Perception Experiment,x01w19,
315,vcgpdm_dyn(20)-lvm(5)_final(4).mov,True,left,1,training(33).mov,0,155,155,15,,,,,,,,10:29:58:678,10:29:59:375,10:30:02:378,left,10:30:02:678,,2018_May_29_1000,59.9492832123,MP-Perception Experiment,x01w19,
316,training(24).mov,False,right,1,tmp_numprim(10)_final(2).mov,0,156,156,150,,,,,,,,10:30:03:461,10:30:04:179,10:30:07:182,left,10:30:07:499,,2018_May_29_1000,59.9492832123,MP-Perception Experiment,x01w19,
317,training(8).mov,True,right,1,vgpdm_dyn(5)-lvm(15)_final(6).mov,0,157,157,27,,,,,,,,10:30:08:308,10:30:09:015,10:30:12:001,right,10:30:12:301,,2018_May_29_1000,59.9492832123,MP-Perception Experiment,x01w19,
318,vgpdm_dyn(30)-lvm(20)_final(9).mov,False,left,1,training(5).mov,0,158,158,43,,,,,,,,10:30:13:277,10:30:13:802,10:30:16:805,left,10:30:17:056,,2018_May_29_1000,59.9492832123,MP-Perception Experiment,x01w19,
319,training(15).mov,False,right,2,dmp_npsi(30)_final(6).mov,0,0,0,123,,,,,,,,10:34:13:550,10:34:14:279,10:34:17:264,right,10:34:17:715,,2018_May_29_1000,59.9492832123,MP-Perception Experiment,x01w19,
320,vgpdm_dyn(5)-lvm(5)_final(5)_out_of_screen.mov,False,left,2,training(28).mov,0,1,1,146,,,,,,,,10:34:18:499,10:34:19:231,10:34:22:218,left,10:34:22:568,,2018_May_29_1000,59.9492832123,MP-Perception Experiment,x01w19,
321,training(8).mov,False,right,2,vgpdm_dyn(25)-lvm(35)_final(8).mov,0,2,2,79,,,,,,,,10:34:23:357,10:34:24:069,10:34:27:072,left,10:34:27:342,,2018_May_29_1000,59.9492832123,MP-Perception Experiment,x01w19,
322,training(5).mov,False,right,2,tmp_numprim(9)_final(1).mov,0,3,3,54,,,,,,,,10:34:28:142,10:34:28:856,10:34:31:861,right,10:34:32:211,,2018_May_29_1000,59.9492832123,MP-Perception Experiment,x01w19,
323,vcgpdm_dyn(5)-lvm(10)_final(2).mov,True,left,2,training(37).mov,0,4,4,29,,,,,,,,10:34:33:012,10:34:33:729,10:34:36:731,left,10:34:37:082,,2018_May_29_1000,59.9492832123,MP-Perception Experiment,x01w19,
324,training(28).mov,True,right,2,vgpdm_dyn(20)-lvm(5)_final(8).mov,0,5,5,95,,,,,,,,10:34:37:859,10:34:38:583,10:34:41:586,left,10:34:41:887,,2018_May_29_1000,59.9492832123,MP-Perception Experiment,x01w19,
325,training(34).mov,False,right,2,vgpdm_dyn(5)-lvm(15)_final(5).mov,0,6,6,147,,,,,,,,10:34:42:672,10:34:43:388,10:34:46:407,right,10:34:46:690,,2018_May_29_1000,59.9492832123,MP-Perception Experiment,x01w19,
326,vcgpdm_dyn(5)-lvm(15)_final(1).mov,False,left,2,training(41).mov,0,7,7,52,,,,,,,,10:34:47:500,10:34:48:192,10:34:51:211,left,10:34:51:578,,2018_May_29_1000,59.9492832123,MP-Perception Experiment,x01w19,
327,vcgpdm_dyn(10)-lvm(25)_final(0).mov,True,left,2,training(26).mov,0,8,8,80,,,,,,,,10:34:52:354,10:34:53:095,10:34:56:081,left,10:34:56:382,,2018_May_29_1000,59.9492832123,MP-Perception Experiment,x01w19,
328,vcgpdm_dyn(25)-lvm(35)_final(5).mov,True,left,2,training(18).mov,0,9,9,84,,,,,,,,10:34:57:165,10:34:57:884,10:35:00:886,right,10:35:01:287,,2018_May_29_1000,59.9492832123,MP-Perception Experiment,x01w19,
329,vgpdm_dyn(5)-lvm(30)_final(5).mov,True,left,2,training(29).mov,0,10,10,155,,,,,,,,10:35:02:066,10:35:02:804,10:35:05:807,left,10:35:06:141,,2018_May_29_1000,59.9492832123,MP-Perception Experiment,x01w19,
330,training(34).mov,True,right,2,tmp_numprim(4)_final(6).mov,0,11,11,124,,,,,,,,10:35:06:931,10:35:07:658,10:35:10:642,right,10:35:10:909,,2018_May_29_1000,59.9492832123,MP-Perception Experiment,x01w19,
331,vcgpdm_dyn(5)-lvm(5)_final(5).mov,True,left,2,training(13).mov,0,12,12,4,,,,,,,,10:35:11:695,10:35:12:410,10:35:15:414,left,10:35:15:681,,2018_May_29_1000,59.9492832123,MP-Perception Experiment,x01w19,
332,training(6).mov,True,right,2,dmp_npsi(20)_final(9).mov,0,13,13,51,,,,,,,,10:35:16:484,10:35:17:182,10:35:20:184,right,10:35:20:501,,2018_May_29_1000,59.9492832123,MP-Perception Experiment,x01w19,
333,training(4).mov,False,right,2,vgpdm_dyn(30)-lvm(20)_final(0).mov,0,14,14,55,,,,,,,,10:35:21:285,10:35:22:002,10:35:24:990,right,10:35:25:357,,2018_May_29_1000,59.9492832123,MP-Perception Experiment,x01w19,
334,dmp_npsi(15)_final(8).mov,False,left,2,training(13).mov,0,15,15,132,,,,,,,,10:35:26:146,10:35:26:858,10:35:29:860,left,10:35:30:478,,2018_May_29_1000,59.9492832123,MP-Perception Experiment,x01w19,
335,vcgpdm_dyn(5)-lvm(15)_final(7).mov,False,left,2,training(38).mov,0,16,16,1,,,,,,,,10:35:31:258,10:35:31:980,10:35:34:982,left,10:35:35:316,,2018_May_29_1000,59.9492832123,MP-Perception Experiment,x01w19,
336,training(22).mov,False,right,2,vgpdm_dyn(30)-lvm(15)_final(7).mov,0,17,17,37,,,,,,,,10:35:36:106,10:35:36:817,10:35:39:820,right,10:35:40:220,,2018_May_29_1000,59.9492832123,MP-Perception Experiment,x01w19,
337,training(38).mov,False,right,2,vgpdm_dyn(35)-lvm(30)_final(6).mov,0,18,18,118,,,,,,,,10:35:41:026,10:35:41:721,10:35:44:740,right,10:35:45:224,,2018_May_29_1000,59.9492832123,MP-Perception Experiment,x01w19,
338,training(1).mov,True,right,2,tmp_numprim(6)_final(2).mov,0,19,19,139,,,,,,,,10:35:45:998,10:35:46:725,10:35:49:728,right,10:35:50:046,,2018_May_29_1000,59.9492832123,MP-Perception Experiment,x01w19,
339,vcgpdm_dyn(10)-lvm(20)_final(9).mov,False,left,2,training(22).mov,0,20,20,76,,,,,,,,10:35:50:821,10:35:51:547,10:35:54:549,right,10:35:54:983,,2018_May_29_1000,59.9492832123,MP-Perception Experiment,x01w19,
340,training(48).mov,False,right,2,vgpdm_dyn(30)-lvm(5)_final(6).mov,0,21,21,101,,,,,,,,10:35:55:773,10:35:56:484,10:35:59:485,left,10:35:59:852,,2018_May_29_1000,59.9492832123,MP-Perception Experiment,x01w19,
341,training(28).mov,True,right,2,vcgpdm_dyn(15)-lvm(15)_final(7).mov,0,22,22,81,,,,,,,,10:36:00:661,10:36:01:353,10:36:04:355,right,10:36:04:639,,2018_May_29_1000,59.9492832123,MP-Perception Experiment,x01w19,
342,training(27).mov,False,right,2,tmp_numprim(10)_final(0).mov,0,23,23,85,,,,,,,,10:36:05:436,10:36:06:140,10:36:09:143,right,10:36:09:460,,2018_May_29_1000,59.9492832123,MP-Perception Experiment,x01w19,
343,training(15).mov,False,right,2,vcgpdm_dyn(25)-lvm(20)_final(3).mov,0,24,24,48,,,,,,,,10:36:10:247,10:36:10:963,10:36:13:949,left,10:36:14:700,,2018_May_29_1000,59.9492832123,MP-Perception Experiment,x01w19,
344,training(20).mov,False,right,2,vcgpdm_dyn(35)-lvm(30)_final(4).mov,0,25,25,43,,,,,,,,10:36:15:488,10:36:16:201,10:36:19:203,right,10:36:19:637,,2018_May_29_1000,59.9492832123,MP-Perception Experiment,x01w19,
345,training(31).mov,True,right,2,vcgpdm_dyn(30)-lvm(15)_final(1).mov,0,26,26,77,,,,,,,,10:36:20:429,10:36:21:138,10:36:24:159,right,10:36:24:726,,2018_May_29_1000,59.9492832123,MP-Perception Experiment,x01w19,
346,map_gpdm_final(3).mov,False,left,2,training(28).mov,0,27,27,69,,,,,,,,10:36:25:505,10:36:26:227,10:36:29:229,left,10:36:29:596,,2018_May_29_1000,59.9492832123,MP-Perception Experiment,x01w19,
347,training(26).mov,True,right,2,tmp_numprim(5)_final(0).mov,0,28,28,57,,,,,,,,10:36:30:375,10:36:31:114,10:36:34:100,right,10:36:34:467,,2018_May_29_1000,59.9492832123,MP-Perception Experiment,x01w19,
348,vgpdm_dyn(15)-lvm(5)_final(0).mov,False,left,2,training(26).mov,0,29,29,96,,,,,,,,10:36:35:249,10:36:35:968,10:36:38:970,left,10:36:39:304,,2018_May_29_1000,59.9492832123,MP-Perception Experiment,x01w19,
349,training(9).mov,True,right,2,vcgpdm_dyn(15)-lvm(10)_final(2).mov,0,30,30,31,,,,,,,,10:36:40:082,10:36:40:822,10:36:43:809,right,10:36:44:209,,2018_May_29_1000,59.9492832123,MP-Perception Experiment,x01w19,
350,vcgpdm_dyn(15)-lvm(5)_final(8).mov,True,left,2,training(5).mov,0,31,31,27,,,,,,,,10:36:44:992,10:36:45:710,10:36:48:711,left,10:36:49:078,,2018_May_29_1000,59.9492832123,MP-Perception Experiment,x01w19,
351,training(34).mov,False,right,2,vcgpdm_dyn(30)-lvm(15)_final(2).mov,0,32,32,19,,,,,,,,10:36:49:864,10:36:50:579,10:36:53:581,left,10:36:53:865,,2018_May_29_1000,59.9492832123,MP-Perception Experiment,x01w19,
352,training(0).mov,False,right,2,vgpdm_dyn(20)-lvm(30)_final(6).mov,0,33,33,17,,,,,,,,10:36:54:646,10:36:55:366,10:36:58:369,left,10:36:58:619,,2018_May_29_1000,59.9492832123,MP-Perception Experiment,x01w19,
353,training(41).mov,False,right,2,tmp_numprim(10)_final(4).mov,0,34,34,89,,,,,,,,10:36:59:409,10:37:00:138,10:37:03:142,right,10:37:03:442,,2018_May_29_1000,59.9492832123,MP-Perception Experiment,x01w19,
354,vgpdm_dyn(30)-lvm(20)_final(7).mov,False,left,2,training(7).mov,0,35,35,66,,,,,,,,10:37:04:235,10:37:04:943,10:37:07:946,left,10:37:08:380,,2018_May_29_1000,59.9492832123,MP-Perception Experiment,x01w19,
355,vcgpdm_dyn(25)-lvm(15)_final(3).mov,True,left,2,training(30).mov,0,36,36,130,,,,,,,,10:37:09:161,10:37:09:881,10:37:12:883,left,10:37:13:300,,2018_May_29_1000,59.9492832123,MP-Perception Experiment,x01w19,
356,training(23).mov,False,right,2,tmp_numprim(7)_final(5).mov,0,37,37,108,,,,,,,,10:37:14:093,10:37:14:801,10:37:17:805,right,10:37:18:239,,2018_May_29_1000,59.9492832123,MP-Perception Experiment,x01w19,
357,vcgpdm_dyn(15)-lvm(5)_final(3).mov,False,left,2,training(40).mov,0,38,38,78,,,,,,,,10:37:19:020,10:37:19:740,10:37:22:742,left,10:37:23:309,,2018_May_29_1000,59.9492832123,MP-Perception Experiment,x01w19,
358,vgpdm_dyn(10)-lvm(15)_final(3).mov,False,left,2,training(3).mov,0,39,39,91,,,,,,,,10:37:24:091,10:37:24:810,10:37:27:829,left,10:37:28:030,,2018_May_29_1000,59.9492832123,MP-Perception Experiment,x01w19,
359,vcgpdm_dyn(10)-lvm(30)_final(4).mov,True,left,2,training(27).mov,0,40,40,21,,,,,,,,10:37:28:817,10:37:29:531,10:37:32:533,left,10:37:32:900,,2018_May_29_1000,59.9492832123,MP-Perception Experiment,x01w19,
360,training(22).mov,False,right,2,vgpdm_dyn(30)-lvm(5)_final(5).mov,0,41,41,41,,,,,,,,10:37:33:684,10:37:34:402,10:37:37:405,right,10:37:37:722,,2018_May_29_1000,59.9492832123,MP-Perception Experiment,x01w19,
361,training(30).mov,True,right,2,vgpdm_dyn(10)-lvm(5)_final(1).mov,0,42,42,137,,,,,,,,10:37:38:512,10:37:39:238,10:37:42:224,right,10:37:42:507,,2018_May_29_1000,59.9492832123,MP-Perception Experiment,x01w19,
362,training(15).mov,False,right,2,vcgpdm_dyn(25)-lvm(20)_final(0).mov,0,43,43,156,,,,,,,,10:37:43:284,10:37:44:008,10:37:47:011,right,10:37:47:261,,2018_May_29_1000,59.9492832123,MP-Perception Experiment,x01w19,
363,vgpdm_dyn(30)-lvm(25)_final(2).mov,True,left,2,training(30).mov,0,44,44,82,,,,,,,,10:37:48:046,10:37:48:779,10:37:51:768,left,10:37:52:051,,2018_May_29_1000,59.9492832123,MP-Perception Experiment,x01w19,
364,vgpdm_dyn(15)-lvm(5)_final(4).mov,True,left,2,training(37).mov,0,45,45,58,,,,,,,,10:37:52:827,10:37:53:552,10:37:56:555,left,10:37:56:905,,2018_May_29_1000,59.9492832123,MP-Perception Experiment,x01w19,
365,vcgpdm_dyn(20)-lvm(5)_final(6).mov,False,left,2,training(17).mov,0,46,46,119,,,,,,,,10:37:57:681,10:37:58:406,10:38:01:426,left,10:38:01:792,,2018_May_29_1000,59.9492832123,MP-Perception Experiment,x01w19,
366,training(16).mov,False,right,2,vcgpdm_dyn(15)-lvm(20)_final(1).mov,0,47,47,157,,,,,,,,10:38:02:577,10:38:03:293,10:38:06:296,left,10:38:06:613,,2018_May_29_1000,59.9492832123,MP-Perception Experiment,x01w19,
367,training(38).mov,False,right,2,vgpdm_dyn(35)-lvm(25)_final(7).mov,0,48,48,23,,,,,,,,10:38:07:402,10:38:08:130,10:38:11:134,right,10:38:11:468,,2018_May_29_1000,59.9492832123,MP-Perception Experiment,x01w19,
368,training(3).mov,True,right,2,vgpdm_dyn(10)-lvm(30)_final(5).mov,0,49,49,59,,,,,,,,10:38:13:276,10:38:13:276,10:38:15:971,right,10:38:16:355,,2018_May_29_1000,59.9492832123,MP-Perception Experiment,x01w19,
369,training(26).mov,False,right,2,map_cgpdm_final(9).mov,0,50,50,133,,,,,,,,10:38:17:132,10:38:17:873,10:38:20:875,right,10:38:21:142,,2018_May_29_1000,59.9492832123,MP-Perception Experiment,x01w19,
370,vgpdm_dyn(10)-lvm(15)_final(7).mov,False,left,2,training(16).mov,0,51,51,92,,,,,,,,10:38:21:929,10:38:22:643,10:38:25:646,left,10:38:25:979,,2018_May_29_1000,59.9492832123,MP-Perception Experiment,x01w19,
371,training(37).mov,False,right,2,vgpdm_dyn(10)-lvm(15)_final(9).mov,0,52,52,94,,,,,,,,10:38:26:776,10:38:27:498,10:38:30:482,left,10:38:30:833,,2018_May_29_1000,59.9492832123,MP-Perception Experiment,x01w19,
372,training(36).mov,True,right,2,map_gpdm_final(7).mov,0,53,53,6,,,,,,,,10:38:31:620,10:38:32:350,10:38:35:336,right,10:38:35:603,,2018_May_29_1000,59.9492832123,MP-Perception Experiment,x01w19,
373,training(23).mov,True,right,2,vcgpdm_dyn(20)-lvm(20)_final(7).mov,0,54,54,98,,,,,,,,10:38:36:398,10:38:37:104,10:38:40:107,right,10:38:40:374,,2018_May_29_1000,59.9492832123,MP-Perception Experiment,x01w19,
374,dmp_npsi(30)_final(3).mov,False,left,2,training(32).mov,0,55,55,70,,,,,,,,10:38:41:161,10:38:41:875,10:38:44:863,left,10:38:45:180,,2018_May_29_1000,59.9492832123,MP-Perception Experiment,x01w19,
375,training(39).mov,True,right,2,vgpdm_dyn(20)-lvm(25)_final(7).mov,0,56,56,104,,,,,,,,10:38:45:966,10:38:46:698,10:38:49:701,left,10:38:50:118,,2018_May_29_1000,59.9492832123,MP-Perception Experiment,x01w19,
376,training(14).mov,True,right,2,vcgpdm_dyn(35)-lvm(25)_final(0).mov,0,57,57,65,,,,,,,,10:38:50:902,10:38:51:635,10:38:54:638,right,10:38:55:005,,2018_May_29_1000,59.9492832123,MP-Perception Experiment,x01w19,
377,vgpdm_dyn(20)-lvm(25)_final(2).mov,True,left,2,training(25).mov,0,58,58,122,,,,,,,,10:38:55:783,10:38:56:506,10:38:59:509,right,10:39:00:226,,2018_May_29_1000,59.9492832123,MP-Perception Experiment,x01w19,
378,training(36).mov,True,right,2,vgpdm_dyn(25)-lvm(25)_final(8)_bad.mov,0,59,59,44,,,,,,,,10:39:01:033,10:39:01:728,10:39:04:747,right,10:39:05:064,,2018_May_29_1000,59.9492832123,MP-Perception Experiment,x01w19,
379,training(28).mov,False,right,2,vgpdm_dyn(15)-lvm(25)_final(8).mov,0,60,60,25,,,,,,,,10:39:05:852,10:39:06:565,10:39:09:567,right,10:39:09:851,,2018_May_29_1000,59.9492832123,MP-Perception Experiment,x01w19,
380,dmp_npsi(35)_final(8).mov,False,left,2,training(7).mov,0,61,61,30,,,,,,,,10:39:10:634,10:39:11:352,10:39:14:355,right,10:39:14:755,,2018_May_29_1000,59.9492832123,MP-Perception Experiment,x01w19,
381,training(16).mov,True,right,2,vgpdm_dyn(5)-lvm(20)_final(9).mov,0,62,62,110,,,,,,,,10:39:15:546,10:39:16:256,10:39:19:258,right,10:39:19:608,,2018_May_29_1000,59.9492832123,MP-Perception Experiment,x01w19,
382,vcgpdm_dyn(35)-lvm(25)_final(9).mov,True,left,2,training(31).mov,0,63,63,22,,,,,,,,10:39:20:387,10:39:21:109,10:39:24:112,left,10:39:24:412,,2018_May_29_1000,59.9492832123,MP-Perception Experiment,x01w19,
383,training(15).mov,False,right,2,vgpdm_dyn(5)-lvm(30)_final(8).mov,0,64,64,88,,,,,,,,10:39:25:206,10:39:25:913,10:39:28:916,right,10:39:29:216,,2018_May_29_1000,59.9492832123,MP-Perception Experiment,x01w19,
384,training(41).mov,True,right,2,vgpdm_dyn(5)-lvm(15)_final(8).mov,0,65,65,93,,,,,,,,10:39:29:993,10:39:30:717,10:39:33:705,right,10:39:34:038,,2018_May_29_1000,59.9492832123,MP-Perception Experiment,x01w19,
385,vcgpdm_dyn(5)-lvm(20)_final(9).mov,False,left,2,training(24).mov,0,66,66,128,,,,,,,,10:39:34:812,10:39:35:556,10:39:38:543,right,10:39:38:960,,2018_May_29_1000,59.9492832123,MP-Perception Experiment,x01w19,
386,training(24).mov,True,right,2,vgpdm_dyn(30)-lvm(10)_final(4).mov,0,67,67,74,,,,,,,,10:39:39:739,10:39:40:461,10:39:43:464,right,10:39:43:881,,2018_May_29_1000,59.9492832123,MP-Perception Experiment,x01w19,
387,tmp_numprim(6)_final(3).mov,False,left,2,training(0).mov,0,68,68,112,,,,,,,,10:39:44:666,10:39:45:382,10:39:48:384,right,10:39:48:785,,2018_May_29_1000,59.9492832123,MP-Perception Experiment,x01w19,
388,vcgpdm_dyn(5)-lvm(25)_final(6).mov,True,left,2,training(35).mov,0,69,69,129,,,,,,,,10:39:49:564,10:39:50:286,10:39:53:288,left,10:39:53:588,,2018_May_29_1000,59.9492832123,MP-Perception Experiment,x01w19,
389,vcgpdm_dyn(20)-lvm(35)_final(9).mov,False,left,2,training(28).mov,0,70,70,120,,,,,,,,10:39:54:382,10:39:55:091,10:39:58:093,right,10:39:58:410,,2018_May_29_1000,59.9492832123,MP-Perception Experiment,x01w19,
390,vgpdm_dyn(15)-lvm(5)_final(8).mov,True,left,2,training(26).mov,0,71,71,107,,,,,,,,10:39:59:186,10:39:59:928,10:40:02:914,left,10:40:03:314,,2018_May_29_1000,59.9492832123,MP-Perception Experiment,x01w19,
391,vgpdm_dyn(30)-lvm(25)_final(7).mov,True,left,2,training(29).mov,0,72,72,83,,,,,,,,10:40:04:089,10:40:04:815,10:40:07:817,left,10:40:08:151,,2018_May_29_1000,59.9492832123,MP-Perception Experiment,x01w19,
392,vcgpdm_dyn(20)-lvm(25)_final(2).mov,False,left,2,training(10).mov,0,73,73,142,,,,,,,,10:40:08:949,10:40:09:667,10:40:12:654,left,10:40:12:904,,2018_May_29_1000,59.9492832123,MP-Perception Experiment,x01w19,
393,vcgpdm_dyn(25)-lvm(25)_final(7).mov,True,left,2,training(41).mov,0,74,74,64,,,,,,,,10:40:13:681,10:40:14:405,10:40:17:408,left,10:40:17:641,,2018_May_29_1000,59.9492832123,MP-Perception Experiment,x01w19,
394,training(38).mov,True,right,2,vcgpdm_dyn(15)-lvm(25)_final(5).mov,0,75,75,109,,,,,,,,10:40:18:455,10:40:19:143,10:40:22:147,left,10:40:22:397,,2018_May_29_1000,59.9492832123,MP-Perception Experiment,x01w19,
395,training(26).mov,False,right,2,vgpdm_dyn(10)-lvm(30)_final(5).mov,0,76,76,115,,,,,,,,10:40:23:175,10:40:23:898,10:40:26:901,right,10:40:27:318,,2018_May_29_1000,59.9492832123,MP-Perception Experiment,x01w19,
396,vgpdm_dyn(10)-lvm(10)_final(3).mov,False,left,2,training(31).mov,0,77,77,106,,,,,,,,10:40:28:102,10:40:28:819,10:40:31:822,right,10:40:32:323,,2018_May_29_1000,59.9492832123,MP-Perception Experiment,x01w19,
397,tmp_numprim(2)_final(9).mov,True,left,2,training(27).mov,0,78,78,87,,,,,,,,10:40:33:105,10:40:33:841,10:40:36:843,left,10:40:37:244,,2018_May_29_1000,59.9492832123,MP-Perception Experiment,x01w19,
398,training(14).mov,False,right,2,vcgpdm_dyn(5)-lvm(10)_final(6).mov,0,79,79,116,,,,,,,,10:40:38:046,10:40:38:744,10:40:41:747,right,10:40:42:064,,2018_May_29_1000,59.9492832123,MP-Perception Experiment,x01w19,
399,vgpdm_dyn(35)-lvm(5)_final(1).mov,True,left,2,training(15).mov,0,80,80,34,,,,,,,,10:40:42:865,10:40:43:565,10:40:46:568,left,10:40:46:619,,2018_May_29_1000,59.9492832123,MP-Perception Experiment,x01w19,
400,vgpdm_dyn(10)-lvm(25)_final(4).mov,False,left,2,training(6).mov,0,81,81,36,,,,,,,,10:40:47:403,10:40:48:120,10:40:51:122,right,10:40:51:589,,2018_May_29_1000,59.9492832123,MP-Perception Experiment,x01w19,
401,training(9).mov,False,right,2,vgpdm_dyn(35)-lvm(5)_final(4).mov,0,82,82,152,,,,,,,,10:40:52:383,10:40:53:090,10:40:56:110,right,10:40:56:460,,2018_May_29_1000,59.9492832123,MP-Perception Experiment,x01w19,
402,training(16).mov,True,right,2,vcgpdm_dyn(30)-lvm(5)_final(2).mov,0,83,83,50,,,,,,,,10:40:57:242,10:40:57:978,10:41:00:962,left,10:41:01:262,,2018_May_29_1000,59.9492832123,MP-Perception Experiment,x01w19,
403,training(9).mov,True,right,2,vcgpdm_dyn(10)-lvm(10)_final(7).mov,0,84,84,33,,,,,,,,10:41:02:058,10:41:02:763,10:41:05:767,left,10:41:06:017,,2018_May_29_1000,59.9492832123,MP-Perception Experiment,x01w19,
404,training(12).mov,False,right,2,vgpdm_dyn(20)-lvm(25)_final(0).mov,0,85,85,11,,,,,,,,10:41:06:795,10:41:07:518,10:41:10:520,right,10:41:11:039,,2018_May_29_1000,59.9492832123,MP-Perception Experiment,x01w19,
405,vcgpdm_dyn(20)-lvm(25)_final(7).mov,True,left,2,training(29).mov,0,86,86,149,,,,,,,,10:41:11:815,10:41:12:557,10:41:15:543,left,10:41:15:910,,2018_May_29_1000,59.9492832123,MP-Perception Experiment,x01w19,
406,vcgpdm_dyn(15)-lvm(30)_final(4).mov,False,left,2,training(8).mov,0,87,87,7,,,,,,,,10:41:16:680,10:41:17:411,10:41:20:414,left,10:41:20:898,,2018_May_29_1000,59.9492832123,MP-Perception Experiment,x01w19,
407,training(35).mov,True,right,2,vcgpdm_dyn(35)-lvm(25)_final(0).mov,0,88,88,14,,,,,,,,10:41:21:685,10:41:22:399,10:41:25:402,right,10:41:25:802,,2018_May_29_1000,59.9492832123,MP-Perception Experiment,x01w19,
408,dmp_npsi(45)_final(6).mov,True,left,2,training(2).mov,0,89,89,125,,,,,,,,10:41:26:588,10:41:27:320,10:41:30:306,left,10:41:30:640,,2018_May_29_1000,59.9492832123,MP-Perception Experiment,x01w19,
409,vgpdm_dyn(35)-lvm(20)_final(5)_out_of_screen.mov,False,left,2,training(1).mov,0,90,90,143,,,,,,,,10:41:31:426,10:41:32:141,10:41:35:143,left,10:41:35:477,,2018_May_29_1000,59.9492832123,MP-Perception Experiment,x01w19,
410,vcgpdm_dyn(10)-lvm(35)_final(3).mov,True,left,2,training(48).mov,0,91,91,135,,,,,,,,10:41:36:262,10:41:36:978,10:41:39:981,left,10:41:40:332,,2018_May_29_1000,59.9492832123,MP-Perception Experiment,x01w19,
411,training(35).mov,False,right,2,vgpdm_dyn(25)-lvm(30)_final(0).mov,0,92,92,148,,,,,,,,10:41:41:107,10:41:41:833,10:41:44:852,left,10:41:45:202,,2018_May_29_1000,59.9492832123,MP-Perception Experiment,x01w19,
412,vcgpdm_dyn(20)-lvm(30)_final(1).mov,False,left,2,training(31).mov,0,93,93,24,,,,,,,,10:41:45:975,10:41:46:703,10:41:49:704,left,10:41:50:021,,2018_May_29_1000,59.9492832123,MP-Perception Experiment,x01w19,
413,vgpdm_dyn(25)-lvm(5)_final(5).mov,False,left,2,training(9).mov,0,94,94,150,,,,,,,,10:41:50:807,10:41:51:522,10:41:54:525,right,10:41:54:925,,2018_May_29_1000,59.9492832123,MP-Perception Experiment,x01w19,
414,training(0).mov,False,right,2,vcgpdm_dyn(5)-lvm(15)_final(5).mov,0,95,95,154,,,,,,,,10:41:55:729,10:41:56:444,10:41:59:429,right,10:41:59:747,,2018_May_29_1000,59.9492832123,MP-Perception Experiment,x01w19,
415,tmp_numprim(9)_final(3).mov,True,left,2,training(27).mov,0,96,96,117,,,,,,,,10:42:00:540,10:42:01:249,10:42:04:235,right,10:42:04:669,,2018_May_29_1000,59.9492832123,MP-Perception Experiment,x01w19,
416,training(16).mov,True,right,2,vcgpdm_dyn(30)-lvm(5)_final(5).mov,0,97,97,136,,,,,,,,10:42:05:460,10:42:06:170,10:42:09:189,right,10:42:09:556,,2018_May_29_1000,59.9492832123,MP-Perception Experiment,x01w19,
417,training(2).mov,False,right,2,tmp_numprim(5)_final(5).mov,0,98,98,111,,,,,,,,10:42:10:342,10:42:11:057,10:42:14:061,left,10:42:14:528,,2018_May_29_1000,59.9492832123,MP-Perception Experiment,x01w19,
418,tmp_numprim(4)_final(0).mov,False,left,2,training(26).mov,0,99,99,153,,,,,,,,10:42:15:319,10:42:16:046,10:42:19:031,left,10:42:19:348,,2018_May_29_1000,59.9492832123,MP-Perception Experiment,x01w19,
419,vcgpdm_dyn(10)-lvm(5)_final(1).mov,True,left,2,training(28).mov,0,100,100,134,,,,,,,,10:42:20:131,10:42:20:849,10:42:23:852,left,10:42:24:186,,2018_May_29_1000,59.9492832123,MP-Perception Experiment,x01w19,
420,dmp_npsi(45)_final(6).mov,True,left,2,training(7).mov,0,101,101,86,,,,,,,,10:42:24:969,10:42:25:687,10:42:28:689,left,10:42:29:024,,2018_May_29_1000,59.9492832123,MP-Perception Experiment,x01w19,
421,dmp_npsi(40)_final(3).mov,False,left,2,training(36).mov,0,102,102,100,,,,,,,,10:42:29:796,10:42:30:524,10:42:33:527,right,10:42:33:928,,2018_May_29_1000,59.9492832123,MP-Perception Experiment,x01w19,
422,tmp_numprim(5)_final(2).mov,False,left,2,training(26).mov,0,103,103,63,,,,,,,,10:42:34:712,10:42:35:429,10:42:38:431,right,10:42:38:765,,2018_May_29_1000,59.9492832123,MP-Perception Experiment,x01w19,
423,vcgpdm_dyn(30)-lvm(10)_final(3).mov,False,left,2,training(38).mov,0,104,104,105,,,,,,,,10:42:39:545,10:42:40:281,10:42:43:267,left,10:42:43:501,,2018_May_29_1000,59.9492832123,MP-Perception Experiment,x01w19,
424,dmp_npsi(5)_final(9)_bad.mov,True,left,2,training(28).mov,0,105,105,103,,,,,,,,10:42:44:298,10:42:45:018,10:42:48:021,left,10:42:48:288,,2018_May_29_1000,59.9492832123,MP-Perception Experiment,x01w19,
425,training(23).mov,False,right,2,vgpdm_dyn(5)-lvm(10)_final(9).mov,0,106,106,127,,,,,,,,10:42:49:061,10:42:49:790,10:42:52:794,right,10:42:53:261,,2018_May_29_1000,59.9492832123,MP-Perception Experiment,x01w19,
426,training(3).mov,True,right,2,tmp_numprim(7)_final(0).mov,0,107,107,144,,,,,,,,10:42:54:077,10:42:54:762,10:42:57:765,left,10:42:58:182,,2018_May_29_1000,59.9492832123,MP-Perception Experiment,x01w19,
427,training(32).mov,False,right,2,vcgpdm_dyn(30)-lvm(30)_final(1).mov,0,108,108,138,,,,,,,,10:42:58:969,10:42:59:683,10:43:02:686,right,10:43:03:003,,2018_May_29_1000,59.9492832123,MP-Perception Experiment,x01w19,
428,training(11).mov,True,right,2,vgpdm_dyn(10)-lvm(35)_final(0).mov,0,109,109,8,,,,,,,,10:43:03:775,10:43:04:503,10:43:07:507,right,10:43:07:841,,2018_May_29_1000,59.9492832123,MP-Perception Experiment,x01w19,
429,vcgpdm_dyn(25)-lvm(5)_final(6).mov,False,left,2,training(38).mov,0,110,110,20,,,,,,,,10:43:08:620,10:43:09:342,10:43:12:344,right,10:43:12:678,,2018_May_29_1000,59.9492832123,MP-Perception Experiment,x01w19,
430,vgpdm_dyn(20)-lvm(20)_final(4).mov,True,left,2,training(2).mov,0,111,111,99,,,,,,,,10:43:13:498,10:43:14:179,10:43:17:181,left,10:43:17:565,,2018_May_29_1000,59.9492832123,MP-Perception Experiment,x01w19,
431,vcgpdm_dyn(5)-lvm(25)_final(0).mov,False,left,2,training(1).mov,0,112,112,39,,,,,,,,10:43:18:312,10:43:19:083,10:43:22:069,left,10:43:22:386,,2018_May_29_1000,59.9492832123,MP-Perception Experiment,x01w19,
432,vgpdm_dyn(30)-lvm(35)_final(6).mov,True,left,2,training(27).mov,0,113,113,35,,,,,,,,10:43:23:161,10:43:23:888,10:43:26:907,left,10:43:27:274,,2018_May_29_1000,59.9492832123,MP-Perception Experiment,x01w19,
433,training(21).mov,True,right,2,vcgpdm_dyn(5)-lvm(20)_final(1).mov,0,114,114,45,,,,,,,,10:43:28:052,10:43:28:775,10:43:31:776,left,10:43:31:792,,2018_May_29_1000,59.9492832123,MP-Perception Experiment,x01w19,
434,vcgpdm_dyn(15)-lvm(25)_final(5).mov,True,left,2,training(16).mov,0,115,115,38,,,,,,,,10:43:32:579,10:43:33:294,10:43:36:296,right,10:43:36:613,,2018_May_29_1000,59.9492832123,MP-Perception Experiment,x01w19,
435,training(23).mov,True,right,2,vcgpdm_dyn(25)-lvm(35)_final(7).mov,0,116,116,60,,,,,,,,10:43:37:392,10:43:38:114,10:43:41:102,right,10:43:41:386,,2018_May_29_1000,59.9492832123,MP-Perception Experiment,x01w19,
436,training(3).mov,False,right,2,vgpdm_dyn(15)-lvm(35)_final(3).mov,0,117,117,90,,,,,,,,10:43:42:177,10:43:42:887,10:43:45:890,right,10:43:46:207,,2018_May_29_1000,59.9492832123,MP-Perception Experiment,x01w19,
437,training(35).mov,True,right,2,map_cgpdm_final(1).mov,0,118,118,141,,,,,,,,10:43:47:000,10:43:47:708,10:43:50:710,right,10:43:51:094,,2018_May_29_1000,59.9492832123,MP-Perception Experiment,x01w19,
438,training(32).mov,False,right,2,tmp_numprim(8)_final(2).mov,0,119,119,102,,,,,,,,10:43:51:885,10:43:52:595,10:43:55:598,left,10:43:56:015,,2018_May_29_1000,59.9492832123,MP-Perception Experiment,x01w19,
439,training(4).mov,False,right,2,vcgpdm_dyn(20)-lvm(30)_final(4).mov,0,120,120,47,,,,,,,,10:43:56:793,10:43:57:516,10:44:00:519,right,10:44:00:870,,2018_May_29_1000,59.9492832123,MP-Perception Experiment,x01w19,
440,vcgpdm_dyn(20)-lvm(10)_final(9).mov,True,left,2,training(38).mov,0,121,121,62,,,,,,,,10:44:01:649,10:44:02:371,10:44:05:373,left,10:44:05:740,,2018_May_29_1000,59.9492832123,MP-Perception Experiment,x01w19,
441,vcgpdm_dyn(10)-lvm(15)_final(6).mov,True,left,2,training(8).mov,0,122,122,2,,,,,,,,10:44:06:530,10:44:07:241,10:44:10:244,left,10:44:10:628,,2018_May_29_1000,59.9492832123,MP-Perception Experiment,x01w19,
442,vgpdm_dyn(20)-lvm(15)_final(7).mov,False,left,2,training(3).mov,0,123,123,113,,,,,,,,10:44:11:417,10:44:12:146,10:44:15:131,right,10:44:15:532,,2018_May_29_1000,59.9492832123,MP-Perception Experiment,x01w19,
443,vcgpdm_dyn(20)-lvm(10)_final(9).mov,False,left,2,training(29).mov,0,124,124,126,,,,,,,,10:44:16:310,10:44:17:034,10:44:20:034,left,10:44:20:501,,2018_May_29_1000,59.9492832123,MP-Perception Experiment,x01w19,
444,training(0).mov,False,right,2,vcgpdm_dyn(30)-lvm(30)_final(2).mov,0,125,125,67,,,,,,,,10:44:21:287,10:44:22:003,10:44:25:005,right,10:44:25:222,,2018_May_29_1000,59.9492832123,MP-Perception Experiment,x01w19,
445,training(24).mov,True,right,2,tmp_numprim(7)_final(8).mov,0,126,126,131,,,,,,,,10:44:26:007,10:44:26:723,10:44:29:725,left,10:44:30:009,,2018_May_29_1000,59.9492832123,MP-Perception Experiment,x01w19,
446,training(31).mov,True,right,2,vgpdm_dyn(10)-lvm(25)_final(5).mov,0,127,127,68,,,,,,,,10:44:30:794,10:44:31:510,10:44:34:516,left,10:44:34:816,,2018_May_29_1000,59.9492832123,MP-Perception Experiment,x01w19,
447,vcgpdm_dyn(25)-lvm(10)_final(8).mov,True,left,2,training(28).mov,0,128,128,0,,,,,,,,10:44:35:596,10:44:36:317,10:44:39:319,left,10:44:39:736,,2018_May_29_1000,59.9492832123,MP-Perception Experiment,x01w19,
448,vcgpdm_dyn(25)-lvm(20)_final(9).mov,False,left,2,training(29).mov,0,129,129,75,,,,,,,,10:44:40:514,10:44:41:238,10:44:44:240,left,10:44:44:641,,2018_May_29_1000,59.9492832123,MP-Perception Experiment,x01w19,
449,vcgpdm_dyn(30)-lvm(15)_final(6).mov,False,left,2,training(37).mov,0,130,130,140,,,,,,,,10:44:45:427,10:44:46:158,10:44:49:161,right,10:44:49:561,,2018_May_29_1000,59.9492832123,MP-Perception Experiment,x01w19,
450,vcgpdm_dyn(10)-lvm(30)_final(2).mov,True,left,2,training(12).mov,0,131,131,73,,,,,,,,10:44:50:345,10:44:51:062,10:44:54:066,left,10:44:54:383,,2018_May_29_1000,59.9492832123,MP-Perception Experiment,x01w19,
451,training(2).mov,False,right,2,vcgpdm_dyn(10)-lvm(25)_final(2).mov,0,132,132,53,,,,,,,,10:44:55:164,10:44:55:884,10:44:58:886,right,10:44:59:304,,2018_May_29_1000,59.9492832123,MP-Perception Experiment,x01w19,
452,training(13).mov,True,right,2,dmp_npsi(20)_final(9).mov,0,133,133,61,,,,,,,,10:45:00:073,10:45:00:804,10:45:03:823,right,10:45:04:191,,2018_May_29_1000,59.9492832123,MP-Perception Experiment,x01w19,
453,vcgpdm_dyn(25)-lvm(15)_final(7).mov,False,left,2,training(28).mov,0,134,134,97,,,,,,,,10:45:04:994,10:45:05:692,10:45:08:712,right,10:45:09:196,,2018_May_29_1000,59.9492832123,MP-Perception Experiment,x01w19,
454,training(26).mov,False,right,2,vgpdm_dyn(5)-lvm(20)_final(9).mov,0,135,135,10,,,,,,,,10:45:09:995,10:45:10:728,10:45:13:714,right,10:45:13:981,,2018_May_29_1000,59.9492832123,MP-Perception Experiment,x01w19,
455,tmp_numprim(8)_final(4).mov,True,left,2,training(33).mov,0,136,136,16,,,,,,,,10:45:14:766,10:45:15:482,10:45:18:485,right,10:45:18:751,,2018_May_29_1000,59.9492832123,MP-Perception Experiment,x01w19,
456,vgpdm_dyn(15)-lvm(30)_final(1).mov,False,left,2,training(23).mov,0,137,137,26,,,,,,,,10:45:19:545,10:45:20:253,10:45:23:240,left,10:45:23:657,,2018_May_29_1000,59.9492832123,MP-Perception Experiment,x01w19,
457,vcgpdm_dyn(30)-lvm(15)_final(3).mov,True,left,2,training(24).mov,0,138,138,71,,,,,,,,10:45:24:448,10:45:25:158,10:45:28:179,right,10:45:28:562,,2018_May_29_1000,59.9492832123,MP-Perception Experiment,x01w19,
458,vcgpdm_dyn(30)-lvm(35)_final(2).mov,False,left,2,training(22).mov,0,139,139,56,,,,,,,,10:45:29:359,10:45:30:063,10:45:33:066,left,10:45:33:466,,2018_May_29_1000,59.9492832123,MP-Perception Experiment,x01w19,
459,training(48).mov,True,right,2,vgpdm_dyn(25)-lvm(5)_final(0).mov,0,140,140,49,,,,,,,,10:45:34:242,10:45:34:967,10:45:37:970,right,10:45:38:353,,2018_May_29_1000,59.9492832123,MP-Perception Experiment,x01w19,
460,vcgpdm_dyn(30)-lvm(10)_final(0).mov,False,left,2,training(14).mov,0,141,141,9,,,,,,,,10:45:39:149,10:45:39:854,10:45:42:857,left,10:45:43:224,,2018_May_29_1000,59.9492832123,MP-Perception Experiment,x01w19,
461,training(4).mov,True,right,2,vgpdm_dyn(20)-lvm(30)_final(6).mov,0,142,142,15,,,,,,,,10:45:44:019,10:45:44:743,10:45:47:745,right,10:45:48:129,,2018_May_29_1000,59.9492832123,MP-Perception Experiment,x01w19,
462,vcgpdm_dyn(15)-lvm(25)_final(5).mov,False,left,2,training(26).mov,0,143,143,18,,,,,,,,10:45:48:915,10:45:49:630,10:45:52:649,right,10:45:53:066,,2018_May_29_1000,59.9492832123,MP-Perception Experiment,x01w19,
463,training(34).mov,True,right,2,vcgpdm_dyn(25)-lvm(25)_final(2).mov,0,144,144,3,,,,,,,,10:45:53:856,10:45:54:567,10:45:57:586,right,10:45:57:920,,2018_May_29_1000,59.9492832123,MP-Perception Experiment,x01w19,
464,vcgpdm_dyn(10)-lvm(35)_final(2).mov,False,left,2,training(32).mov,0,145,145,32,,,,,,,,10:45:58:700,10:45:59:421,10:46:02:423,left,10:46:02:707,,2018_May_29_1000,59.9492832123,MP-Perception Experiment,x01w19,
465,training(37).mov,False,right,2,vgpdm_dyn(10)-lvm(20)_final(2).mov,0,146,146,46,,,,,,,,10:46:03:496,10:46:04:224,10:46:07:210,right,10:46:07:510,,2018_May_29_1000,59.9492832123,MP-Perception Experiment,x01w19,
466,training(32).mov,True,right,2,vcgpdm_dyn(25)-lvm(30)_final(7).mov,0,147,147,114,,,,,,,,10:46:08:293,10:46:09:012,10:46:12:014,left,10:46:12:264,,2018_May_29_1000,59.9492832123,MP-Perception Experiment,x01w19,
467,vgpdm_dyn(20)-lvm(5)_final(4).mov,True,left,2,training(10).mov,0,148,148,145,,,,,,,,10:46:13:217,10:46:13:767,10:46:16:753,left,10:46:17:153,,2018_May_29_1000,59.9492832123,MP-Perception Experiment,x01w19,
468,training(7).mov,True,right,2,vgpdm_dyn(10)-lvm(10)_final(4).mov,0,149,149,158,,,,,,,,10:46:17:943,10:46:18:655,10:46:21:658,right,10:46:21:992,,2018_May_29_1000,59.9492832123,MP-Perception Experiment,x01w19,
469,training(8).mov,True,right,2,vcgpdm_dyn(20)-lvm(5)_final(1).mov,0,150,150,28,,,,,,,,10:46:22:761,10:46:23:493,10:46:26:495,right,10:46:26:862,,2018_May_29_1000,59.9492832123,MP-Perception Experiment,x01w19,
470,training(13).mov,False,right,2,vgpdm_dyn(25)-lvm(20)_final(5).mov,0,151,151,13,,,,,,,,10:46:27:650,10:46:28:363,10:46:31:366,right,10:46:31:733,,2018_May_29_1000,59.9492832123,MP-Perception Experiment,x01w19,
471,training(10).mov,True,right,2,vgpdm_dyn(35)-lvm(10)_final(1).mov,0,152,152,12,,,,,,,,10:46:32:527,10:46:33:251,10:46:36:237,right,10:46:36:554,,2018_May_29_1000,59.9492832123,MP-Perception Experiment,x01w19,
472,vcgpdm_dyn(15)-lvm(20)_final(3).mov,False,left,2,training(11).mov,0,153,153,42,,,,,,,,10:46:37:339,10:46:38:055,10:46:41:058,left,10:46:41:358,,2018_May_29_1000,59.9492832123,MP-Perception Experiment,x01w19,
473,vcgpdm_dyn(30)-lvm(35)_final(0).mov,False,left,2,training(25).mov,0,154,154,121,,,,,,,,10:46:42:149,10:46:42:859,10:46:45:879,left,10:46:46:429,,2018_May_29_1000,59.9492832123,MP-Perception Experiment,x01w19,
474,vgpdm_dyn(25)-lvm(5)_final(4).mov,False,left,2,training(0).mov,0,155,155,72,,,,,,,,10:46:47:213,10:46:47:947,10:46:50:931,left,10:46:51:248,,2018_May_29_1000,59.9492832123,MP-Perception Experiment,x01w19,
475,training(8).mov,False,right,2,vcgpdm_dyn(15)-lvm(25)_final(8).mov,0,156,156,40,,,,,,,,10:46:52:030,10:46:52:749,10:46:55:752,right,10:46:56:020,,2018_May_29_1000,59.9492832123,MP-Perception Experiment,x01w19,
