trial_number,right,flipped,correct,block,left,trials.thisRepN,trials.thisTrialN,trials.thisN,trials.thisIndex,flipwelcome.keys,flipwelcome.corr,flipwelcome.rt,flippreparations.keys,flippreparations.rt,flipInstructions.keys,flipInstructions.rt,time_at_fixation_cross_onset,time_at_videoonset,time_at_videoend,participant_key_response,time_at_key_response,key_resp_4.keys,date,frameRate,expName,participant,
,,,,,,,,,,space,0,32.1291668913,,,,,,,,,,,2018_May_29_1424,59.9369829434,MP-Perception Experiment,xx02w20,
,,,,,,,,,,,,,space,14.262242382,,,,,,,,,2018_May_29_1424,59.9369829434,MP-Perception Experiment,xx02w20,
,,,,,,,,,,,,,,,space,12.2586280268,,,,,,,2018_May_29_1424,59.9369829434,MP-Perception Experiment,xx02w20,
1,training(29).mov,True,right,0,vcgpdm_dyn(35)-lvm(25)_final(8).mov,0,0,0,7,,,,,,,,14:25:41:658,14:25:41:658,14:25:44:482,right,14:25:45:633,,2018_May_29_1424,59.9369829434,MP-Perception Experiment,xx02w20,
2,vcgpdm_dyn(20)-lvm(10)_final(7).mov,True,left,0,training(22).mov,0,1,1,156,,,,,,,,14:25:46:408,14:25:47:151,14:25:50:154,right,14:25:51:371,,2018_May_29_1424,59.9369829434,MP-Perception Experiment,xx02w20,
3,training(1).mov,True,right,0,dmp_npsi(50)_final(3).mov,0,2,2,125,,,,,,,,14:25:52:152,14:25:52:872,14:25:55:875,left,14:25:57:026,,2018_May_29_1424,59.9369829434,MP-Perception Experiment,xx02w20,
4,training(30).mov,True,right,0,vgpdm_dyn(30)-lvm(25)_final(2).mov,0,3,3,70,,,,,,,,14:25:57:809,14:25:58:527,14:26:01:530,right,14:26:02:431,,2018_May_29_1424,59.9369829434,MP-Perception Experiment,xx02w20,
5,vgpdm_dyn(35)-lvm(5)_final(9).mov,False,left,0,training(21).mov,0,4,4,133,,,,,,,,14:26:03:212,14:26:03:932,14:26:06:952,right,14:26:08:436,,2018_May_29_1424,59.9369829434,MP-Perception Experiment,xx02w20,
6,vcgpdm_dyn(5)-lvm(5)_final(3).mov,True,left,0,training(34).mov,0,5,5,13,,,,,,,,14:26:09:223,14:26:09:937,14:26:12:940,left,14:26:13:690,,2018_May_29_1424,59.9369829434,MP-Perception Experiment,xx02w20,
7,vcgpdm_dyn(35)-lvm(20)_final(3).mov,True,left,0,training(25).mov,0,6,6,44,,,,,,,,14:26:14:469,14:26:15:191,14:26:18:195,left,14:26:18:695,,2018_May_29_1424,59.9369829434,MP-Perception Experiment,xx02w20,
8,training(0).mov,True,right,0,vcgpdm_dyn(5)-lvm(20)_final(6).mov,0,7,7,113,,,,,,,,14:26:19:487,14:26:20:211,14:26:23:197,right,14:26:23:998,,2018_May_29_1424,59.9369829434,MP-Perception Experiment,xx02w20,
9,training(21).mov,False,right,0,vgpdm_dyn(10)-lvm(30)_final(4).mov,0,8,8,150,,,,,,,,14:26:24:785,14:26:25:499,14:26:28:501,right,14:26:28:902,,2018_May_29_1424,59.9369829434,MP-Perception Experiment,xx02w20,
10,map_cgpdm_final(6).mov,True,left,0,training(5).mov,0,9,9,107,,,,,,,,14:26:29:684,14:26:30:403,14:26:33:407,left,14:26:34:075,,2018_May_29_1424,59.9369829434,MP-Perception Experiment,xx02w20,
11,tmp_numprim(6)_final(9).mov,False,left,0,training(1).mov,0,10,10,78,,,,,,,,14:26:34:860,14:26:35:577,14:26:38:579,right,14:26:39:130,,2018_May_29_1424,59.9369829434,MP-Perception Experiment,xx02w20,
12,training(24).mov,False,right,0,vcgpdm_dyn(25)-lvm(5)_final(7).mov,0,11,11,0,,,,,,,,14:26:39:900,14:26:40:631,14:26:43:633,right,14:26:44:284,,2018_May_29_1424,59.9369829434,MP-Perception Experiment,xx02w20,
13,tmp_numprim(2)_final(2).mov,False,left,0,training(10).mov,0,12,12,94,,,,,,,,14:26:45:081,14:26:45:785,14:26:48:804,left,14:26:49:838,,2018_May_29_1424,59.9369829434,MP-Perception Experiment,xx02w20,
14,training(1).mov,False,right,0,vcgpdm_dyn(35)-lvm(5)_final(5).mov,0,13,13,26,,,,,,,,14:26:50:612,14:26:51:339,14:26:54:343,right,14:26:54:910,,2018_May_29_1424,59.9369829434,MP-Perception Experiment,xx02w20,
15,training(40).mov,True,right,0,vcgpdm_dyn(20)-lvm(30)_final(9).mov,0,14,14,142,,,,,,,,14:26:55:695,14:26:56:428,14:26:59:413,right,14:26:59:931,,2018_May_29_1424,59.9369829434,MP-Perception Experiment,xx02w20,
16,training(17).mov,False,right,0,vgpdm_dyn(30)-lvm(20)_final(8).mov,0,15,15,76,,,,,,,,14:27:00:720,14:27:01:432,14:27:04:451,right,14:27:04:818,,2018_May_29_1424,59.9369829434,MP-Perception Experiment,xx02w20,
17,training(4).mov,True,right,0,vgpdm_dyn(10)-lvm(35)_final(6).mov,0,16,16,15,,,,,,,,14:27:05:597,14:27:06:319,14:27:09:323,right,14:27:09:856,,2018_May_29_1424,59.9369829434,MP-Perception Experiment,xx02w20,
18,vgpdm_dyn(10)-lvm(15)_final(1).mov,True,left,0,training(20).mov,0,17,17,62,,,,,,,,14:27:11:512,14:27:11:512,14:27:14:375,left,14:27:14:792,,2018_May_29_1424,59.9369829434,MP-Perception Experiment,xx02w20,
19,training(5).mov,False,right,0,tmp_numprim(10)_final(7).mov,0,18,18,105,,,,,,,,14:27:15:606,14:27:16:293,14:27:19:312,right,14:27:19:662,,2018_May_29_1424,59.9369829434,MP-Perception Experiment,xx02w20,
20,vcgpdm_dyn(10)-lvm(10)_final(7).mov,True,left,0,training(0).mov,0,19,19,124,,,,,,,,14:27:20:452,14:27:21:164,14:27:24:168,left,14:27:24:585,,2018_May_29_1424,59.9369829434,MP-Perception Experiment,xx02w20,
21,vgpdm_dyn(10)-lvm(30)_final(1).mov,True,left,0,training(31).mov,0,20,20,115,,,,,,,,14:27:25:353,14:27:26:086,14:27:29:090,left,14:27:29:690,,2018_May_29_1424,59.9369829434,MP-Perception Experiment,xx02w20,
22,training(20).mov,True,right,0,vcgpdm_dyn(25)-lvm(15)_final(9).mov,0,21,21,16,,,,,,,,14:27:30:465,14:27:31:191,14:27:34:210,right,14:27:34:861,,2018_May_29_1424,59.9369829434,MP-Perception Experiment,xx02w20,
23,training(48).mov,True,right,0,dmp_npsi(30)_final(7).mov,0,22,22,128,,,,,,,,14:27:35:637,14:27:36:362,14:27:39:364,right,14:27:39:731,,2018_May_29_1424,59.9369829434,MP-Perception Experiment,xx02w20,
24,vcgpdm_dyn(10)-lvm(35)_final(9).mov,False,left,0,training(39).mov,0,23,23,138,,,,,,,,14:27:40:541,14:27:41:233,14:27:44:236,left,14:27:44:686,,2018_May_29_1424,59.9369829434,MP-Perception Experiment,xx02w20,
25,training(31).mov,True,right,0,vgpdm_dyn(15)-lvm(5)_final(8).mov,0,24,24,9,,,,,,,,14:27:45:482,14:27:46:188,14:27:49:207,right,14:27:49:674,,2018_May_29_1424,59.9369829434,MP-Perception Experiment,xx02w20,
26,vgpdm_dyn(5)-lvm(20)_final(6).mov,False,left,0,training(31).mov,0,25,25,40,,,,,,,,14:27:50:449,14:27:51:192,14:27:54:195,left,14:27:54:728,,2018_May_29_1424,59.9369829434,MP-Perception Experiment,xx02w20,
27,training(38).mov,False,right,0,vcgpdm_dyn(15)-lvm(15)_final(4).mov,0,26,26,58,,,,,,,,14:27:55:516,14:27:56:229,14:27:59:232,right,14:27:59:665,,2018_May_29_1424,59.9369829434,MP-Perception Experiment,xx02w20,
28,vgpdm_dyn(30)-lvm(35)_final(0).mov,True,left,0,training(10).mov,0,27,27,131,,,,,,,,14:28:00:456,14:28:01:181,14:28:04:185,left,14:28:04:602,,2018_May_29_1424,59.9369829434,MP-Perception Experiment,xx02w20,
29,training(5).mov,False,right,0,tmp_numprim(3)_final(1).mov,0,28,28,157,,,,,,,,14:28:05:380,14:28:06:103,14:28:09:105,right,14:28:09:556,,2018_May_29_1424,59.9369829434,MP-Perception Experiment,xx02w20,
30,training(4).mov,False,right,0,dmp_npsi(15)_final(8).mov,0,29,29,75,,,,,,,,14:28:10:332,14:28:11:074,14:28:14:061,right,14:28:14:495,,2018_May_29_1424,59.9369829434,MP-Perception Experiment,xx02w20,
31,vgpdm_dyn(20)-lvm(5)_final(0).mov,False,left,0,training(19).mov,0,30,30,33,,,,,,,,14:28:15:279,14:28:16:013,14:28:18:998,left,14:28:19:467,,2018_May_29_1424,59.9369829434,MP-Perception Experiment,xx02w20,
32,vcgpdm_dyn(15)-lvm(10)_final(7).mov,False,left,0,training(18).mov,0,31,31,46,,,,,,,,14:28:20:241,14:28:20:968,14:28:23:970,left,14:28:24:704,,2018_May_29_1424,59.9369829434,MP-Perception Experiment,xx02w20,
33,vcgpdm_dyn(10)-lvm(10)_final(7).mov,False,left,0,training(3).mov,0,32,32,54,,,,,,,,14:28:25:470,14:28:26:205,14:28:29:224,right,14:28:29:675,,2018_May_29_1424,59.9369829434,MP-Perception Experiment,xx02w20,
34,training(7).mov,False,right,0,vcgpdm_dyn(20)-lvm(10)_final(2).mov,0,33,33,99,,,,,,,,14:28:30:450,14:28:31:176,14:28:34:195,right,14:28:34:779,,2018_May_29_1424,59.9369829434,MP-Perception Experiment,xx02w20,
35,vcgpdm_dyn(10)-lvm(30)_final(3).mov,False,left,0,training(3).mov,0,34,34,55,,,,,,,,14:28:35:536,14:28:36:280,14:28:39:284,left,14:28:39:667,,2018_May_29_1424,59.9369829434,MP-Perception Experiment,xx02w20,
36,training(25).mov,True,right,0,dmp_npsi(25)_final(0).mov,0,35,35,5,,,,,,,,14:28:40:437,14:28:41:168,14:28:44:171,right,14:28:44:538,,2018_May_29_1424,59.9369829434,MP-Perception Experiment,xx02w20,
37,map_cgpdm_final(2).mov,True,left,0,training(3).mov,0,36,36,32,,,,,,,,14:28:45:324,14:28:46:039,14:28:49:041,left,14:28:49:525,,2018_May_29_1424,59.9369829434,MP-Perception Experiment,xx02w20,
38,vgpdm_dyn(35)-lvm(30)_final(7).mov,False,left,0,training(8).mov,0,37,37,67,,,,,,,,14:28:50:321,14:28:51:041,14:28:54:027,left,14:28:54:378,,2018_May_29_1424,59.9369829434,MP-Perception Experiment,xx02w20,
39,training(27).mov,False,right,0,vcgpdm_dyn(25)-lvm(5)_final(3).mov,0,38,38,100,,,,,,,,14:28:55:170,14:28:55:896,14:28:58:882,right,14:28:59:232,,2018_May_29_1424,59.9369829434,MP-Perception Experiment,xx02w20,
40,training(32).mov,False,right,0,vgpdm_dyn(20)-lvm(20)_final(5).mov,0,39,39,116,,,,,,,,14:29:00:028,14:29:00:733,14:29:03:721,left,14:29:04:338,,2018_May_29_1424,59.9369829434,MP-Perception Experiment,xx02w20,
41,training(4).mov,True,right,0,vcgpdm_dyn(20)-lvm(10)_final(3).mov,0,40,40,126,,,,,,,,14:29:05:131,14:29:05:856,14:29:08:842,right,14:29:09:242,,2018_May_29_1424,59.9369829434,MP-Perception Experiment,xx02w20,
42,training(19).mov,True,right,0,vgpdm_dyn(10)-lvm(15)_final(9).mov,0,41,41,89,,,,,,,,14:29:10:020,14:29:10:760,14:29:13:763,left,14:29:14:564,,2018_May_29_1424,59.9369829434,MP-Perception Experiment,xx02w20,
43,training(35).mov,False,right,0,vgpdm_dyn(10)-lvm(35)_final(2).mov,0,42,42,25,,,,,,,,14:29:15:339,14:29:16:065,14:29:19:084,right,14:29:19:568,,2018_May_29_1424,59.9369829434,MP-Perception Experiment,xx02w20,
44,training(0).mov,False,right,0,tmp_numprim(10)_final(7).mov,0,43,43,41,,,,,,,,14:29:20:336,14:29:21:069,14:29:24:072,right,14:29:25:106,,2018_May_29_1424,59.9369829434,MP-Perception Experiment,xx02w20,
45,vgpdm_dyn(10)-lvm(10)_final(2).mov,True,left,0,training(23).mov,0,44,44,148,,,,,,,,14:29:25:882,14:29:26:624,14:29:29:610,left,14:29:30:411,,2018_May_29_1424,59.9369829434,MP-Perception Experiment,xx02w20,
46,vgpdm_dyn(15)-lvm(35)_final(3).mov,True,left,0,training(36).mov,0,45,45,49,,,,,,,,14:29:31:180,14:29:31:912,14:29:34:915,left,14:29:35:499,,2018_May_29_1424,59.9369829434,MP-Perception Experiment,xx02w20,
47,vgpdm_dyn(5)-lvm(10)_final(1).mov,True,left,0,training(31).mov,0,46,46,129,,,,,,,,14:29:36:281,14:29:37:000,14:29:40:002,left,14:29:40:384,,2018_May_29_1424,59.9369829434,MP-Perception Experiment,xx02w20,
48,vgpdm_dyn(35)-lvm(25)_final(7).mov,False,left,0,training(13).mov,0,47,47,83,,,,,,,,14:29:41:172,14:29:41:885,14:29:44:888,right,14:29:45:238,,2018_May_29_1424,59.9369829434,MP-Perception Experiment,xx02w20,
49,vcgpdm_dyn(10)-lvm(35)_final(0).mov,False,left,0,training(15).mov,0,48,48,87,,,,,,,,14:29:46:017,14:29:46:740,14:29:49:743,left,14:29:50:243,,2018_May_29_1424,59.9369829434,MP-Perception Experiment,xx02w20,
50,training(27).mov,True,right,0,tmp_numprim(4)_final(8).mov,0,49,49,143,,,,,,,,14:29:50:995,14:29:51:744,14:29:54:732,right,14:29:55:299,,2018_May_29_1424,59.9369829434,MP-Perception Experiment,xx02w20,
51,vcgpdm_dyn(25)-lvm(35)_final(8).mov,True,left,0,training(37).mov,0,50,50,57,,,,,,,,14:29:56:096,14:29:56:800,14:29:59:803,left,14:30:00:203,,2018_May_29_1424,59.9369829434,MP-Perception Experiment,xx02w20,
52,training(16).mov,False,right,0,vcgpdm_dyn(25)-lvm(35)_final(9).mov,0,51,51,45,,,,,,,,14:30:01:003,14:30:01:704,14:30:04:724,right,14:30:05:325,,2018_May_29_1424,59.9369829434,MP-Perception Experiment,xx02w20,
53,vgpdm_dyn(25)-lvm(20)_final(1).mov,False,left,0,training(41).mov,0,52,52,88,,,,,,,,14:30:06:117,14:30:06:826,14:30:09:845,right,14:30:10:762,,2018_May_29_1424,59.9369829434,MP-Perception Experiment,xx02w20,
54,training(11).mov,True,right,0,vgpdm_dyn(15)-lvm(20)_final(2)_out_of_screen.mov,0,53,53,29,,,,,,,,14:30:11:662,14:30:12:263,14:30:15:266,left,14:30:16:334,,2018_May_29_1424,59.9369829434,MP-Perception Experiment,xx02w20,
55,vcgpdm_dyn(35)-lvm(20)_final(4).mov,False,left,0,training(2).mov,0,54,54,11,,,,,,,,14:30:17:135,14:30:17:851,14:30:20:837,left,14:30:21:572,,2018_May_29_1424,59.9369829434,MP-Perception Experiment,xx02w20,
56,tmp_numprim(2)_final(9).mov,False,left,0,training(10).mov,0,55,55,98,,,,,,,,14:30:22:345,14:30:23:073,14:30:26:076,left,14:30:26:626,,2018_May_29_1424,59.9369829434,MP-Perception Experiment,xx02w20,
57,vcgpdm_dyn(25)-lvm(35)_final(7).mov,False,left,0,training(3).mov,0,56,56,6,,,,,,,,14:30:27:417,14:30:28:127,14:30:31:128,right,14:30:31:578,,2018_May_29_1424,59.9369829434,MP-Perception Experiment,xx02w20,
58,map_cgpdm_final(0).mov,True,left,0,training(31).mov,0,57,57,24,,,,,,,,14:30:32:371,14:30:33:079,14:30:36:082,left,14:30:36:499,,2018_May_29_1424,59.9369829434,MP-Perception Experiment,xx02w20,
59,dmp_npsi(35)_final(9).mov,False,left,0,training(17).mov,0,58,58,35,,,,,,,,14:30:37:278,14:30:38:017,14:30:41:004,left,14:30:41:404,,2018_May_29_1424,59.9369829434,MP-Perception Experiment,xx02w20,
60,map_cgpdm_final(8).mov,True,left,0,training(14).mov,0,59,59,123,,,,,,,,14:30:42:199,14:30:42:905,14:30:45:893,left,14:30:46:326,,2018_May_29_1424,59.9369829434,MP-Perception Experiment,xx02w20,
61,training(22).mov,False,right,0,vcgpdm_dyn(30)-lvm(5)_final(9).mov,0,60,60,39,,,,,,,,14:30:47:145,14:30:47:828,14:30:50:830,right,14:30:51:297,,2018_May_29_1424,59.9369829434,MP-Perception Experiment,xx02w20,
62,map_gpdm_final(4).mov,False,left,0,training(8).mov,0,61,61,17,,,,,,,,14:30:52:085,14:30:52:798,14:30:55:801,left,14:30:56:385,,2018_May_29_1424,59.9369829434,MP-Perception Experiment,xx02w20,
63,vgpdm_dyn(35)-lvm(30)_final(8).mov,True,left,0,training(0).mov,0,62,62,74,,,,,,,,14:30:57:171,14:30:57:887,14:31:00:906,left,14:31:01:807,,2018_May_29_1424,59.9369829434,MP-Perception Experiment,xx02w20,
64,tmp_numprim(4)_final(3).mov,True,left,0,training(26).mov,0,63,63,77,,,,,,,,14:31:02:594,14:31:03:308,14:31:06:327,left,14:31:07:178,,2018_May_29_1424,59.9369829434,MP-Perception Experiment,xx02w20,
65,training(13).mov,False,right,0,vcgpdm_dyn(15)-lvm(5)_final(0).mov,0,64,64,14,,,,,,,,14:31:07:952,14:31:08:695,14:31:11:681,right,14:31:12:048,,2018_May_29_1424,59.9369829434,MP-Perception Experiment,xx02w20,
66,vcgpdm_dyn(25)-lvm(15)_final(5).mov,True,left,0,training(8).mov,0,65,65,30,,,,,,,,14:31:12:849,14:31:13:549,14:31:16:553,left,14:31:16:970,,2018_May_29_1424,59.9369829434,MP-Perception Experiment,xx02w20,
67,vgpdm_dyn(35)-lvm(15)_final(2)_out_of_screen.mov,True,left,0,training(9).mov,0,66,66,12,,,,,,,,14:31:17:762,14:31:18:471,14:31:21:472,left,14:31:21:956,,2018_May_29_1424,59.9369829434,MP-Perception Experiment,xx02w20,
68,training(11).mov,False,right,0,vcgpdm_dyn(30)-lvm(10)_final(4).mov,0,67,67,71,,,,,,,,14:31:22:737,14:31:23:457,14:31:26:459,right,14:31:26:809,,2018_May_29_1424,59.9369829434,MP-Perception Experiment,xx02w20,
69,training(14).mov,False,right,0,tmp_numprim(4)_final(0).mov,0,68,68,2,,,,,,,,14:31:27:605,14:31:28:327,14:31:31:313,right,14:31:31:731,,2018_May_29_1424,59.9369829434,MP-Perception Experiment,xx02w20,
70,training(18).mov,False,right,0,dmp_npsi(45)_final(2).mov,0,69,69,109,,,,,,,,14:31:32:516,14:31:33:234,14:31:36:253,right,14:31:36:787,,2018_May_29_1424,59.9369829434,MP-Perception Experiment,xx02w20,
71,vcgpdm_dyn(35)-lvm(10)_final(3).mov,True,left,0,training(17).mov,0,70,70,127,,,,,,,,14:31:37:578,14:31:38:288,14:31:41:307,left,14:31:42:075,,2018_May_29_1424,59.9369829434,MP-Perception Experiment,xx02w20,
72,vgpdm_dyn(20)-lvm(30)_final(2).mov,True,left,0,training(1).mov,0,71,71,56,,,,,,,,14:31:42:861,14:31:43:592,14:31:46:595,right,14:31:47:162,,2018_May_29_1424,59.9369829434,MP-Perception Experiment,xx02w20,
73,vcgpdm_dyn(15)-lvm(10)_final(1).mov,False,left,0,training(24).mov,0,72,72,96,,,,,,,,14:31:47:948,14:31:48:680,14:31:51:683,left,14:31:53:201,,2018_May_29_1424,59.9369829434,MP-Perception Experiment,xx02w20,
74,vcgpdm_dyn(20)-lvm(35)_final(4).mov,True,left,0,training(11).mov,0,73,73,38,,,,,,,,14:31:53:974,14:31:54:702,14:31:57:721,left,14:31:58:155,,2018_May_29_1424,59.9369829434,MP-Perception Experiment,xx02w20,
75,vgpdm_dyn(30)-lvm(25)_final(1).mov,False,left,0,training(21).mov,0,74,74,3,,,,,,,,14:31:58:946,14:31:59:656,14:32:02:676,left,14:32:03:826,,2018_May_29_1424,59.9369829434,MP-Perception Experiment,xx02w20,
76,training(9).mov,False,right,0,tmp_numprim(2)_final(8).mov,0,75,75,151,,,,,,,,14:32:04:605,14:32:05:327,14:32:08:331,right,14:32:09:215,,2018_May_29_1424,59.9369829434,MP-Perception Experiment,xx02w20,
77,vgpdm_dyn(35)-lvm(5)_final(8).mov,True,left,0,training(27).mov,0,76,76,144,,,,,,,,14:32:09:991,14:32:10:731,14:32:13:717,left,14:32:14:184,,2018_May_29_1424,59.9369829434,MP-Perception Experiment,xx02w20,
78,vgpdm_dyn(10)-lvm(5)_final(0).mov,True,left,0,training(31).mov,0,77,77,112,,,,,,,,14:32:14:966,14:32:15:685,14:32:18:687,left,14:32:19:205,,2018_May_29_1424,59.9369829434,MP-Perception Experiment,xx02w20,
79,training(29).mov,True,right,0,vcgpdm_dyn(35)-lvm(25)_final(7).mov,0,78,78,64,,,,,,,,14:32:19:971,14:32:20:706,14:32:23:693,right,14:32:24:378,,2018_May_29_1424,59.9369829434,MP-Perception Experiment,xx02w20,
80,training(7).mov,False,right,0,dmp_npsi(30)_final(8).mov,0,79,79,10,,,,,,,,14:32:25:158,14:32:25:879,14:32:28:898,right,14:32:29:366,,2018_May_29_1424,59.9369829434,MP-Perception Experiment,xx02w20,
81,vgpdm_dyn(10)-lvm(25)_final(0).mov,True,left,0,training(30).mov,0,80,80,79,,,,,,,,14:32:30:179,14:32:30:867,14:32:33:869,left,14:32:34:470,,2018_May_29_1424,59.9369829434,MP-Perception Experiment,xx02w20,
82,vcgpdm_dyn(20)-lvm(20)_final(1).mov,True,left,0,training(24).mov,0,81,81,31,,,,,,,,14:32:35:276,14:32:35:971,14:32:38:973,left,14:32:39:607,,2018_May_29_1424,59.9369829434,MP-Perception Experiment,xx02w20,
83,vgpdm_dyn(10)-lvm(25)_final(5).mov,False,left,0,training(37).mov,0,82,82,43,,,,,,,,14:32:40:378,14:32:41:108,14:32:44:112,right,14:32:45:279,,2018_May_29_1424,59.9369829434,MP-Perception Experiment,xx02w20,
84,training(19).mov,True,right,0,tmp_numprim(9)_final(2).mov,0,83,83,132,,,,,,,,14:32:46:056,14:32:46:781,14:32:49:800,left,14:32:50:334,,2018_May_29_1424,59.9369829434,MP-Perception Experiment,xx02w20,
85,training(29).mov,False,right,0,vcgpdm_dyn(15)-lvm(10)_final(3).mov,0,84,84,121,,,,,,,,14:32:51:119,14:32:51:851,14:32:54:837,right,14:32:55:221,,2018_May_29_1424,59.9369829434,MP-Perception Experiment,xx02w20,
86,training(9).mov,False,right,0,vgpdm_dyn(25)-lvm(20)_final(9).mov,0,85,85,60,,,,,,,,14:32:56:000,14:32:56:723,14:32:59:725,right,14:33:00:159,,2018_May_29_1424,59.9369829434,MP-Perception Experiment,xx02w20,
87,training(2).mov,True,right,0,vcgpdm_dyn(25)-lvm(30)_final(5).mov,0,86,86,90,,,,,,,,14:33:00:951,14:33:01:675,14:33:04:678,left,14:33:05:779,,2018_May_29_1424,59.9369829434,MP-Perception Experiment,xx02w20,
88,training(0).mov,False,right,0,dmp_npsi(5)_final(1)_bad.mov,0,87,87,136,,,,,,,,14:33:06:557,14:33:07:280,14:33:10:282,right,14:33:10:816,,2018_May_29_1424,59.9369829434,MP-Perception Experiment,xx02w20,
89,vgpdm_dyn(10)-lvm(5)_final(4).mov,True,left,0,training(32).mov,0,88,88,122,,,,,,,,14:33:11:653,14:33:12:319,14:33:15:322,left,14:33:15:888,,2018_May_29_1424,59.9369829434,MP-Perception Experiment,xx02w20,
90,training(48).mov,True,right,0,vgpdm_dyn(30)-lvm(5)_final(7).mov,0,89,89,82,,,,,,,,14:33:16:675,14:33:17:391,14:33:20:410,right,14:33:20:829,,2018_May_29_1424,59.9369829434,MP-Perception Experiment,xx02w20,
91,training(17).mov,False,right,0,vcgpdm_dyn(10)-lvm(35)_final(0).mov,0,90,90,59,,,,,,,,14:33:21:623,14:33:22:345,14:33:25:347,right,14:33:25:748,,2018_May_29_1424,59.9369829434,MP-Perception Experiment,xx02w20,
92,vcgpdm_dyn(20)-lvm(15)_final(2).mov,True,left,0,training(23).mov,0,91,91,1,,,,,,,,14:33:26:526,14:33:27:265,14:33:30:251,left,14:33:30:718,,2018_May_29_1424,59.9369829434,MP-Perception Experiment,xx02w20,
93,vgpdm_dyn(10)-lvm(5)_final(8).mov,True,left,0,training(5).mov,0,92,92,93,,,,,,,,14:33:31:499,14:33:32:236,14:33:35:223,left,14:33:35:673,,2018_May_29_1424,59.9369829434,MP-Perception Experiment,xx02w20,
94,training(32).mov,False,right,0,vgpdm_dyn(10)-lvm(5)_final(6).mov,0,93,93,153,,,,,,,,14:33:36:466,14:33:37:174,14:33:40:177,right,14:33:40:577,,2018_May_29_1424,59.9369829434,MP-Perception Experiment,xx02w20,
95,tmp_numprim(9)_final(6).mov,False,left,0,training(19).mov,0,94,94,85,,,,,,,,14:33:41:365,14:33:42:078,14:33:45:081,right,14:33:45:548,,2018_May_29_1424,59.9369829434,MP-Perception Experiment,xx02w20,
96,vcgpdm_dyn(20)-lvm(15)_final(3).mov,False,left,0,training(16).mov,0,95,95,34,,,,,,,,14:33:46:324,14:33:47:049,14:33:50:051,right,14:33:51:284,,2018_May_29_1424,59.9369829434,MP-Perception Experiment,xx02w20,
97,vcgpdm_dyn(10)-lvm(15)_final(8).mov,True,left,0,training(23).mov,0,96,96,23,,,,,,,,14:33:52:069,14:33:52:803,14:33:55:788,left,14:33:56:239,,2018_May_29_1424,59.9369829434,MP-Perception Experiment,xx02w20,
98,vgpdm_dyn(25)-lvm(5)_final(9).mov,False,left,0,training(30).mov,0,97,97,73,,,,,,,,14:33:57:012,14:33:57:740,14:34:00:742,left,14:34:01:043,,2018_May_29_1424,59.9369829434,MP-Perception Experiment,xx02w20,
99,training(35).mov,True,right,0,tmp_numprim(6)_final(7).mov,0,98,98,95,,,,,,,,14:34:01:816,14:34:02:546,14:34:05:531,left,14:34:06:015,,2018_May_29_1424,59.9369829434,MP-Perception Experiment,xx02w20,
100,training(39).mov,True,right,0,vcgpdm_dyn(25)-lvm(15)_final(9).mov,0,99,99,114,,,,,,,,14:34:06:811,14:34:07:516,14:34:10:520,right,14:34:10:770,,2018_May_29_1424,59.9369829434,MP-Perception Experiment,xx02w20,
101,training(15).mov,False,right,0,vgpdm_dyn(30)-lvm(5)_final(0).mov,0,100,100,130,,,,,,,,14:34:11:732,14:34:12:288,14:34:15:274,right,14:34:15:674,,2018_May_29_1424,59.9369829434,MP-Perception Experiment,xx02w20,
102,training(30).mov,False,right,0,vgpdm_dyn(20)-lvm(25)_final(7).mov,0,101,101,48,,,,,,,,14:34:16:468,14:34:17:175,14:34:20:178,right,14:34:20:695,,2018_May_29_1424,59.9369829434,MP-Perception Experiment,xx02w20,
103,training(13).mov,True,right,0,tmp_numprim(7)_final(5).mov,0,102,102,84,,,,,,,,14:34:21:506,14:34:22:196,14:34:25:215,right,14:34:25:799,,2018_May_29_1424,59.9369829434,MP-Perception Experiment,xx02w20,
104,vcgpdm_dyn(25)-lvm(20)_final(2).mov,True,left,0,training(5).mov,0,103,103,97,,,,,,,,14:34:26:569,14:34:27:318,14:34:30:303,left,14:34:30:687,,2018_May_29_1424,59.9369829434,MP-Perception Experiment,xx02w20,
105,training(26).mov,True,right,0,vcgpdm_dyn(30)-lvm(25)_final(2).mov,0,104,104,145,,,,,,,,14:34:31:480,14:34:32:205,14:34:35:191,right,14:34:35:641,,2018_May_29_1424,59.9369829434,MP-Perception Experiment,xx02w20,
106,tmp_numprim(3)_final(6).mov,False,left,0,training(32).mov,0,105,105,18,,,,,,,,14:34:36:444,14:34:37:142,14:34:40:162,left,14:34:40:710,,2018_May_29_1424,59.9369829434,MP-Perception Experiment,xx02w20,
107,training(22).mov,False,right,0,vcgpdm_dyn(25)-lvm(30)_final(1).mov,0,106,106,37,,,,,,,,14:34:41:483,14:34:42:211,14:34:45:215,left,14:34:45:782,,2018_May_29_1424,59.9369829434,MP-Perception Experiment,xx02w20,
108,training(35).mov,True,right,0,vgpdm_dyn(35)-lvm(30)_final(1).mov,0,107,107,141,,,,,,,,14:34:46:574,14:34:47:300,14:34:50:285,right,14:34:50:919,,2018_May_29_1424,59.9369829434,MP-Perception Experiment,xx02w20,
109,vgpdm_dyn(10)-lvm(10)_final(5).mov,True,left,0,training(25).mov,0,108,108,101,,,,,,,,14:34:51:691,14:34:52:422,14:34:55:425,left,14:34:56:476,,2018_May_29_1424,59.9369829434,MP-Perception Experiment,xx02w20,
110,training(40).mov,False,right,0,vgpdm_dyn(15)-lvm(15)_final(5).mov,0,109,109,119,,,,,,,,14:34:57:261,14:34:57:977,14:35:00:979,right,14:35:01:397,,2018_May_29_1424,59.9369829434,MP-Perception Experiment,xx02w20,
111,training(20).mov,False,right,0,vcgpdm_dyn(15)-lvm(30)_final(7).mov,0,110,110,53,,,,,,,,14:35:02:180,14:35:02:898,14:35:05:901,right,14:35:06:251,,2018_May_29_1424,59.9369829434,MP-Perception Experiment,xx02w20,
112,training(2).mov,False,right,0,vgpdm_dyn(35)-lvm(10)_final(9).mov,0,111,111,68,,,,,,,,14:35:07:034,14:35:07:769,14:35:10:755,right,14:35:11:672,,2018_May_29_1424,59.9369829434,MP-Perception Experiment,xx02w20,
113,training(33).mov,True,right,0,vcgpdm_dyn(10)-lvm(5)_final(2).mov,0,112,112,36,,,,,,,,14:35:12:457,14:35:13:173,14:35:16:193,right,14:35:17:944,,2018_May_29_1424,59.9369829434,MP-Perception Experiment,xx02w20,
114,training(21).mov,False,right,0,vcgpdm_dyn(35)-lvm(20)_final(6).mov,0,113,113,118,,,,,,,,14:35:18:724,14:35:19:446,14:35:22:449,left,14:35:23:416,,2018_May_29_1424,59.9369829434,MP-Perception Experiment,xx02w20,
115,training(9).mov,True,right,0,vgpdm_dyn(20)-lvm(20)_final(0).mov,0,114,114,111,,,,,,,,14:35:24:200,14:35:24:917,14:35:27:920,right,14:35:28:637,,2018_May_29_1424,59.9369829434,MP-Perception Experiment,xx02w20,
116,training(14).mov,True,right,0,vcgpdm_dyn(30)-lvm(5)_final(1).mov,0,115,115,21,,,,,,,,14:35:29:417,14:35:30:138,14:35:33:139,right,14:35:33:556,,2018_May_29_1424,59.9369829434,MP-Perception Experiment,xx02w20,
117,training(34).mov,True,right,0,vcgpdm_dyn(25)-lvm(5)_final(0).mov,0,116,116,92,,,,,,,,14:35:34:341,14:35:35:074,14:35:38:060,left,14:35:38:845,,2018_May_29_1424,59.9369829434,MP-Perception Experiment,xx02w20,
118,vgpdm_dyn(30)-lvm(20)_final(0).mov,False,left,0,training(22).mov,0,117,117,154,,,,,,,,14:35:39:614,14:35:40:346,14:35:43:350,right,14:35:44:468,,2018_May_29_1424,59.9369829434,MP-Perception Experiment,xx02w20,
119,dmp_npsi(25)_final(5).mov,True,left,0,training(22).mov,0,118,118,28,,,,,,,,14:35:45:254,14:35:45:969,14:35:48:971,left,14:35:49:555,,2018_May_29_1424,59.9369829434,MP-Perception Experiment,xx02w20,
120,vgpdm_dyn(5)-lvm(20)_final(0).mov,True,left,0,training(10).mov,0,119,119,20,,,,,,,,14:35:50:333,14:35:51:056,14:35:54:060,left,14:35:54:460,,2018_May_29_1424,59.9369829434,MP-Perception Experiment,xx02w20,
121,vgpdm_dyn(15)-lvm(30)_final(0).mov,False,left,0,training(19).mov,0,120,120,50,,,,,,,,14:35:55:255,14:35:55:961,14:35:58:964,left,14:35:59:380,,2018_May_29_1424,59.9369829434,MP-Perception Experiment,xx02w20,
122,vcgpdm_dyn(30)-lvm(30)_final(4).mov,False,left,0,training(23).mov,0,121,121,158,,,,,,,,14:36:00:157,14:36:00:882,14:36:03:901,left,14:36:05:068,,2018_May_29_1424,59.9369829434,MP-Perception Experiment,xx02w20,
123,vgpdm_dyn(20)-lvm(35)_final(8).mov,False,left,0,training(48).mov,0,122,122,19,,,,,,,,14:36:05:861,14:36:06:569,14:36:09:572,left,14:36:10:072,,2018_May_29_1424,59.9369829434,MP-Perception Experiment,xx02w20,
124,training(23).mov,True,right,0,tmp_numprim(6)_final(9).mov,0,123,123,52,,,,,,,,14:36:11:744,14:36:11:744,14:36:14:577,left,14:36:15:444,,2018_May_29_1424,59.9369829434,MP-Perception Experiment,xx02w20,
125,vgpdm_dyn(35)-lvm(5)_final(1).mov,True,left,0,training(41).mov,0,124,124,137,,,,,,,,14:36:16:226,14:36:16:946,14:36:19:948,left,14:36:20:315,,2018_May_29_1424,59.9369829434,MP-Perception Experiment,xx02w20,
126,training(3).mov,False,right,0,vcgpdm_dyn(10)-lvm(15)_final(4).mov,0,125,125,4,,,,,,,,14:36:21:098,14:36:21:831,14:36:24:850,right,14:36:25:201,,2018_May_29_1424,59.9369829434,MP-Perception Experiment,xx02w20,
127,vcgpdm_dyn(35)-lvm(35)_final(9)_bad.mov,True,left,0,training(12).mov,0,126,126,104,,,,,,,,14:36:25:984,14:36:26:702,14:36:29:705,left,14:36:30:156,,2018_May_29_1424,59.9369829434,MP-Perception Experiment,xx02w20,
128,training(2).mov,False,right,0,vcgpdm_dyn(20)-lvm(15)_final(0).mov,0,127,127,149,,,,,,,,14:36:30:948,14:36:31:657,14:36:34:644,left,14:36:35:478,,2018_May_29_1424,59.9369829434,MP-Perception Experiment,xx02w20,
129,vcgpdm_dyn(20)-lvm(25)_final(9).mov,False,left,0,training(26).mov,0,128,128,27,,,,,,,,14:36:36:259,14:36:36:979,14:36:39:999,left,14:36:40:416,,2018_May_29_1424,59.9369829434,MP-Perception Experiment,xx02w20,
130,vgpdm_dyn(15)-lvm(35)_final(6).mov,True,left,0,training(9).mov,0,129,129,80,,,,,,,,14:36:41:206,14:36:41:917,14:36:44:919,left,14:36:45:336,,2018_May_29_1424,59.9369829434,MP-Perception Experiment,xx02w20,
131,training(35).mov,False,right,0,vcgpdm_dyn(30)-lvm(35)_final(1).mov,0,130,130,86,,,,,,,,14:36:46:124,14:36:46:838,14:36:49:841,right,14:36:50:241,,2018_May_29_1424,59.9369829434,MP-Perception Experiment,xx02w20,
132,dmp_npsi(45)_final(8).mov,True,left,0,training(27).mov,0,131,131,117,,,,,,,,14:36:51:010,14:36:51:742,14:36:54:761,left,14:36:55:229,,2018_May_29_1424,59.9369829434,MP-Perception Experiment,xx02w20,
133,training(15).mov,False,right,0,vgpdm_dyn(35)-lvm(20)_final(4)_out_of_screen.mov,0,132,132,152,,,,,,,,14:36:56:007,14:36:56:746,14:36:59:732,right,14:37:00:199,,2018_May_29_1424,59.9369829434,MP-Perception Experiment,xx02w20,
134,vcgpdm_dyn(25)-lvm(35)_final(3).mov,True,left,0,training(13).mov,0,133,133,155,,,,,,,,14:37:00:977,14:37:01:700,14:37:04:720,left,14:37:05:154,,2018_May_29_1424,59.9369829434,MP-Perception Experiment,xx02w20,
135,training(14).mov,True,right,0,vgpdm_dyn(5)-lvm(35)_final(9)_bad.mov,0,134,134,51,,,,,,,,14:37:05:924,14:37:06:655,14:37:09:658,right,14:37:10:058,,2018_May_29_1424,59.9369829434,MP-Perception Experiment,xx02w20,
136,training(17).mov,False,right,0,vgpdm_dyn(10)-lvm(5)_final(7).mov,0,135,135,139,,,,,,,,14:37:11:647,14:37:11:647,14:37:14:560,right,14:37:15:060,,2018_May_29_1424,59.9369829434,MP-Perception Experiment,xx02w20,
137,vgpdm_dyn(20)-lvm(15)_final(0).mov,False,left,0,training(35).mov,0,136,136,102,,,,,,,,14:37:15:832,14:37:16:562,14:37:19:564,left,14:37:20:031,,2018_May_29_1424,59.9369829434,MP-Perception Experiment,xx02w20,
138,training(22).mov,False,right,0,vcgpdm_dyn(15)-lvm(5)_final(1).mov,0,137,137,61,,,,,,,,14:37:20:810,14:37:21:533,14:37:24:521,right,14:37:24:921,,2018_May_29_1424,59.9369829434,MP-Perception Experiment,xx02w20,
139,training(24).mov,True,right,0,vgpdm_dyn(10)-lvm(20)_final(0).mov,0,138,138,106,,,,,,,,14:37:25:701,14:37:26:422,14:37:29:442,right,14:37:29:992,,2018_May_29_1424,59.9369829434,MP-Perception Experiment,xx02w20,
140,training(1).mov,False,right,0,vcgpdm_dyn(5)-lvm(15)_final(5).mov,0,139,139,134,,,,,,,,14:37:30:823,14:37:31:510,14:37:34:495,right,14:37:36:898,,2018_May_29_1424,59.9369829434,MP-Perception Experiment,xx02w20,
141,training(7).mov,True,right,0,vgpdm_dyn(10)-lvm(20)_final(2).mov,0,140,140,63,,,,,,,,14:37:37:665,14:37:38:399,14:37:41:402,right,14:37:41:836,,2018_May_29_1424,59.9369829434,MP-Perception Experiment,xx02w20,
142,training(27).mov,False,right,0,vgpdm_dyn(35)-lvm(35)_final(9).mov,0,141,141,135,,,,,,,,14:37:42:610,14:37:43:337,14:37:46:340,right,14:37:46:907,,2018_May_29_1424,59.9369829434,MP-Perception Experiment,xx02w20,
143,vcgpdm_dyn(30)-lvm(20)_final(6).mov,True,left,0,training(21).mov,0,142,142,110,,,,,,,,14:37:47:693,14:37:48:408,14:37:51:410,right,14:37:52:177,,2018_May_29_1424,59.9369829434,MP-Perception Experiment,xx02w20,
144,vcgpdm_dyn(10)-lvm(30)_final(3).mov,True,left,0,training(24).mov,0,143,143,66,,,,,,,,14:37:52:963,14:37:53:679,14:37:56:699,left,14:37:57:083,,2018_May_29_1424,59.9369829434,MP-Perception Experiment,xx02w20,
145,vcgpdm_dyn(5)-lvm(25)_final(5).mov,True,left,0,training(9).mov,0,144,144,103,,,,,,,,14:37:57:853,14:37:58:584,14:38:01:586,left,14:38:02:051,,2018_May_29_1424,59.9369829434,MP-Perception Experiment,xx02w20,
146,training(22).mov,True,right,0,vcgpdm_dyn(5)-lvm(25)_final(7).mov,0,145,145,120,,,,,,,,14:38:02:839,14:38:03:552,14:38:06:555,right,14:38:06:922,,2018_May_29_1424,59.9369829434,MP-Perception Experiment,xx02w20,
147,training(11).mov,False,right,0,vgpdm_dyn(30)-lvm(10)_final(8).mov,0,146,146,47,,,,,,,,14:38:07:698,14:38:08:423,14:38:11:426,right,14:38:11:759,,2018_May_29_1424,59.9369829434,MP-Perception Experiment,xx02w20,
148,vcgpdm_dyn(30)-lvm(15)_final(6).mov,True,left,0,training(31).mov,0,147,147,8,,,,,,,,14:38:12:561,14:38:13:262,14:38:16:249,left,14:38:16:716,,2018_May_29_1424,59.9369829434,MP-Perception Experiment,xx02w20,
149,tmp_numprim(4)_final(8).mov,True,left,0,training(27).mov,0,148,148,72,,,,,,,,14:38:17:500,14:38:18:234,14:38:21:236,left,14:38:21:687,,2018_May_29_1424,59.9369829434,MP-Perception Experiment,xx02w20,
150,training(48).mov,True,right,0,vgpdm_dyn(15)-lvm(5)_final(7).mov,0,149,149,69,,,,,,,,14:38:22:468,14:38:23:188,14:38:26:190,right,14:38:26:941,,2018_May_29_1424,59.9369829434,MP-Perception Experiment,xx02w20,
151,training(15).mov,True,right,0,tmp_numprim(9)_final(1).mov,0,150,150,91,,,,,,,,14:38:27:727,14:38:28:442,14:38:31:446,right,14:38:32:163,,2018_May_29_1424,59.9369829434,MP-Perception Experiment,xx02w20,
152,vcgpdm_dyn(5)-lvm(25)_final(9).mov,False,left,0,training(3).mov,0,151,151,140,,,,,,,,14:38:32:943,14:38:33:664,14:38:36:666,left,14:38:37:117,,2018_May_29_1424,59.9369829434,MP-Perception Experiment,xx02w20,
153,vcgpdm_dyn(25)-lvm(20)_final(8).mov,True,left,0,training(38).mov,0,152,152,108,,,,,,,,14:38:37:906,14:38:38:635,14:38:41:637,left,14:38:42:004,,2018_May_29_1424,59.9369829434,MP-Perception Experiment,xx02w20,
154,training(19).mov,False,right,0,vgpdm_dyn(10)-lvm(35)_final(0).mov,0,153,153,147,,,,,,,,14:38:42:784,14:38:43:522,14:38:46:508,right,14:38:46:975,,2018_May_29_1424,59.9369829434,MP-Perception Experiment,xx02w20,
155,vgpdm_dyn(15)-lvm(25)_final(3).mov,False,left,0,training(8).mov,0,154,154,65,,,,,,,,14:38:47:781,14:38:48:476,14:38:51:479,right,14:38:52:195,,2018_May_29_1424,59.9369829434,MP-Perception Experiment,xx02w20,
156,vcgpdm_dyn(30)-lvm(25)_final(5).mov,True,left,0,training(31).mov,0,155,155,146,,,,,,,,14:38:52:975,14:38:53:696,14:38:56:699,left,14:38:57:015,,2018_May_29_1424,59.9369829434,MP-Perception Experiment,xx02w20,
157,training(32).mov,True,right,0,tmp_numprim(10)_final(8).mov,0,156,156,42,,,,,,,,14:38:57:792,14:38:58:516,14:39:01:519,left,14:39:02:003,,2018_May_29_1424,59.9369829434,MP-Perception Experiment,xx02w20,
158,vgpdm_dyn(20)-lvm(35)_final(2).mov,False,left,0,training(5).mov,0,157,157,81,,,,,,,,14:39:02:787,14:39:03:506,14:39:06:492,right,14:39:06:876,,2018_May_29_1424,59.9369829434,MP-Perception Experiment,xx02w20,
159,training(7).mov,False,right,0,vcgpdm_dyn(30)-lvm(20)_final(7).mov,0,158,158,22,,,,,,,,14:39:07:663,14:39:08:377,14:39:11:380,right,14:39:12:080,,2018_May_29_1424,59.9369829434,MP-Perception Experiment,xx02w20,
160,vgpdm_dyn(5)-lvm(10)_final(0).mov,False,left,1,training(3).mov,0,0,0,124,,,,,,,,14:42:19:163,14:42:19:891,14:42:22:877,left,14:42:23:263,,2018_May_29_1424,59.9369829434,MP-Perception Experiment,xx02w20,
161,vcgpdm_dyn(25)-lvm(25)_final(8).mov,True,left,1,training(11).mov,0,1,1,130,,,,,,,,14:42:24:048,14:42:24:780,14:42:27:766,left,14:42:28:266,,2018_May_29_1424,59.9369829434,MP-Perception Experiment,xx02w20,
162,vcgpdm_dyn(10)-lvm(25)_final(9).mov,True,left,1,training(41).mov,0,2,2,5,,,,,,,,14:42:29:034,14:42:29:784,14:42:32:770,left,14:42:33:204,,2018_May_29_1424,59.9369829434,MP-Perception Experiment,xx02w20,
163,vcgpdm_dyn(20)-lvm(5)_final(8).mov,True,left,1,training(39).mov,0,3,3,41,,,,,,,,14:42:33:981,14:42:34:705,14:42:37:708,left,14:42:38:125,,2018_May_29_1424,59.9369829434,MP-Perception Experiment,xx02w20,
164,vgpdm_dyn(25)-lvm(30)_final(4).mov,True,left,1,training(41).mov,0,4,4,112,,,,,,,,14:42:38:900,14:42:39:626,14:42:42:646,left,14:42:43:580,,2018_May_29_1424,59.9369829434,MP-Perception Experiment,xx02w20,
165,vgpdm_dyn(20)-lvm(20)_final(5).mov,True,left,1,training(31).mov,0,5,5,71,,,,,,,,14:42:44:348,14:42:45:081,14:42:48:083,left,14:42:48:467,,2018_May_29_1424,59.9369829434,MP-Perception Experiment,xx02w20,
166,vgpdm_dyn(10)-lvm(5)_final(0).mov,False,left,1,training(22).mov,0,6,6,148,,,,,,,,14:42:49:242,14:42:49:968,14:42:52:988,left,14:42:54:306,,2018_May_29_1424,59.9369829434,MP-Perception Experiment,xx02w20,
167,training(25).mov,True,right,1,vgpdm_dyn(35)-lvm(35)_final(2).mov,0,7,7,103,,,,,,,,14:42:55:086,14:42:55:807,14:42:58:810,right,14:42:59:227,,2018_May_29_1424,59.9369829434,MP-Perception Experiment,xx02w20,
168,vcgpdm_dyn(10)-lvm(10)_final(7).mov,False,left,1,training(8).mov,0,8,8,100,,,,,,,,14:43:00:003,14:43:00:745,14:43:03:728,left,14:43:04:146,,2018_May_29_1424,59.9369829434,MP-Perception Experiment,xx02w20,
169,training(15).mov,False,right,1,vgpdm_dyn(15)-lvm(15)_final(9).mov,0,9,9,153,,,,,,,,14:43:04:924,14:43:05:663,14:43:08:649,right,14:43:09:100,,2018_May_29_1424,59.9369829434,MP-Perception Experiment,xx02w20,
170,vgpdm_dyn(30)-lvm(35)_final(5).mov,False,left,1,training(30).mov,0,10,10,94,,,,,,,,14:43:09:898,14:43:10:601,14:43:13:606,left,14:43:13:990,,2018_May_29_1424,59.9369829434,MP-Perception Experiment,xx02w20,
171,vgpdm_dyn(20)-lvm(30)_final(3).mov,True,left,1,training(29).mov,0,11,11,67,,,,,,,,14:43:14:790,14:43:15:491,14:43:18:493,left,14:43:18:960,,2018_May_29_1424,59.9369829434,MP-Perception Experiment,xx02w20,
172,training(1).mov,True,right,1,vgpdm_dyn(10)-lvm(25)_final(7).mov,0,12,12,85,,,,,,,,14:43:19:732,14:43:20:461,14:43:23:464,left,14:43:24:064,,2018_May_29_1424,59.9369829434,MP-Perception Experiment,xx02w20,
173,training(27).mov,False,right,1,tmp_numprim(3)_final(7).mov,0,13,13,12,,,,,,,,14:43:24:852,14:43:25:582,14:43:28:569,right,14:43:28:953,,2018_May_29_1424,59.9369829434,MP-Perception Experiment,xx02w20,
174,training(40).mov,False,right,1,vcgpdm_dyn(10)-lvm(10)_final(2).mov,0,14,14,116,,,,,,,,14:43:29:737,14:43:30:454,14:43:33:456,right,14:43:33:840,,2018_May_29_1424,59.9369829434,MP-Perception Experiment,xx02w20,
175,vcgpdm_dyn(35)-lvm(30)_final(3).mov,True,left,1,training(16).mov,0,15,15,75,,,,,,,,14:43:34:626,14:43:35:341,14:43:38:344,left,14:43:38:877,,2018_May_29_1424,59.9369829434,MP-Perception Experiment,xx02w20,
176,vcgpdm_dyn(5)-lvm(15)_final(3).mov,False,left,1,training(30).mov,0,16,16,38,,,,,,,,14:43:39:679,14:43:40:378,14:43:43:398,left,14:43:43:848,,2018_May_29_1424,59.9369829434,MP-Perception Experiment,xx02w20,
177,dmp_npsi(20)_final(8).mov,True,left,1,training(22).mov,0,17,17,1,,,,,,,,14:43:44:636,14:43:45:349,14:43:48:369,left,14:43:49:037,,2018_May_29_1424,59.9369829434,MP-Perception Experiment,xx02w20,
178,vcgpdm_dyn(10)-lvm(20)_final(8).mov,True,left,1,training(10).mov,0,18,18,98,,,,,,,,14:43:49:822,14:43:50:538,14:43:53:538,left,14:43:53:922,,2018_May_29_1424,59.9369829434,MP-Perception Experiment,xx02w20,
179,vgpdm_dyn(5)-lvm(30)_final(2).mov,False,left,1,training(36).mov,0,19,19,78,,,,,,,,14:43:54:712,14:43:55:423,14:43:58:426,left,14:43:58:826,,2018_May_29_1424,59.9369829434,MP-Perception Experiment,xx02w20,
180,vcgpdm_dyn(5)-lvm(35)_final(6)_bad.mov,False,left,1,training(3).mov,0,20,20,82,,,,,,,,14:43:59:629,14:44:00:344,14:44:03:331,left,14:44:03:681,,2018_May_29_1424,59.9369829434,MP-Perception Experiment,xx02w20,
181,vcgpdm_dyn(30)-lvm(35)_final(0).mov,True,left,1,training(8).mov,0,21,21,22,,,,,,,,14:44:04:457,14:44:05:182,14:44:08:169,left,14:44:08:537,,2018_May_29_1424,59.9369829434,MP-Perception Experiment,xx02w20,
182,vcgpdm_dyn(35)-lvm(10)_final(6).mov,True,left,1,training(12).mov,0,22,22,114,,,,,,,,14:44:09:323,14:44:10:038,14:44:13:040,left,14:44:13:474,,2018_May_29_1424,59.9369829434,MP-Perception Experiment,xx02w20,
183,training(25).mov,False,right,1,vcgpdm_dyn(5)-lvm(15)_final(6).mov,0,23,23,63,,,,,,,,14:44:14:256,14:44:14:975,14:44:17:978,right,14:44:18:378,,2018_May_29_1424,59.9369829434,MP-Perception Experiment,xx02w20,
184,training(40).mov,True,right,1,vcgpdm_dyn(10)-lvm(5)_final(2).mov,0,24,24,57,,,,,,,,14:44:19:154,14:44:19:896,14:44:22:883,right,14:44:23:416,,2018_May_29_1424,59.9369829434,MP-Perception Experiment,xx02w20,
185,vgpdm_dyn(30)-lvm(5)_final(8).mov,True,left,1,training(15).mov,0,25,25,106,,,,,,,,14:44:24:190,14:44:24:917,14:44:27:920,left,14:44:28:237,,2018_May_29_1424,59.9369829434,MP-Perception Experiment,xx02w20,
186,vgpdm_dyn(10)-lvm(20)_final(0).mov,False,left,1,training(6).mov,0,26,26,61,,,,,,,,14:44:29:020,14:44:29:738,14:44:32:741,left,14:44:33:241,,2018_May_29_1424,59.9369829434,MP-Perception Experiment,xx02w20,
187,training(31).mov,True,right,1,vgpdm_dyn(20)-lvm(5)_final(7).mov,0,27,27,147,,,,,,,,14:44:34:033,14:44:34:742,14:44:37:744,left,14:44:38:145,,2018_May_29_1424,59.9369829434,MP-Perception Experiment,xx02w20,
188,dmp_npsi(10)_final(3)_bad.mov,True,left,1,training(29).mov,0,28,28,122,,,,,,,,14:44:38:923,14:44:39:647,14:44:42:648,left,14:44:43:031,,2018_May_29_1424,59.9369829434,MP-Perception Experiment,xx02w20,
189,vcgpdm_dyn(5)-lvm(5)_final(6).mov,False,left,1,training(23).mov,0,29,29,48,,,,,,,,14:44:43:825,14:44:44:532,14:44:47:535,left,14:44:48:085,,2018_May_29_1424,59.9369829434,MP-Perception Experiment,xx02w20,
190,vgpdm_dyn(25)-lvm(35)_final(1).mov,False,left,1,training(15).mov,0,30,30,39,,,,,,,,14:44:48:866,14:44:49:587,14:44:52:589,right,14:44:52:973,,2018_May_29_1424,59.9369829434,MP-Perception Experiment,xx02w20,
191,vgpdm_dyn(20)-lvm(30)_final(9).mov,True,left,1,training(9).mov,0,31,31,8,,,,,,,,14:44:53:758,14:44:54:492,14:44:57:496,left,14:44:57:996,,2018_May_29_1424,59.9369829434,MP-Perception Experiment,xx02w20,
192,dmp_npsi(40)_final(0).mov,True,left,1,training(8).mov,0,32,32,89,,,,,,,,14:44:58:780,14:44:59:497,14:45:02:500,left,14:45:02:917,,2018_May_29_1424,59.9369829434,MP-Perception Experiment,xx02w20,
193,training(34).mov,False,right,1,dmp_npsi(50)_final(0).mov,0,33,33,110,,,,,,,,14:45:03:710,14:45:04:435,14:45:07:421,right,14:45:07:771,,2018_May_29_1424,59.9369829434,MP-Perception Experiment,xx02w20,
194,dmp_npsi(35)_final(3).mov,False,left,1,training(20).mov,0,34,34,96,,,,,,,,14:45:08:549,14:45:09:272,14:45:12:274,left,14:45:12:725,,2018_May_29_1424,59.9369829434,MP-Perception Experiment,xx02w20,
195,vgpdm_dyn(10)-lvm(10)_final(1).mov,True,left,1,training(11).mov,0,35,35,30,,,,,,,,14:45:13:501,14:45:14:227,14:45:17:229,left,14:45:17:630,,2018_May_29_1424,59.9369829434,MP-Perception Experiment,xx02w20,
196,training(11).mov,True,right,1,vcgpdm_dyn(5)-lvm(10)_final(3).mov,0,36,36,88,,,,,,,,14:45:18:404,14:45:19:131,14:45:22:133,right,14:45:22:467,,2018_May_29_1424,59.9369829434,MP-Perception Experiment,xx02w20,
197,vgpdm_dyn(10)-lvm(30)_final(8).mov,True,left,1,training(24).mov,0,37,37,68,,,,,,,,14:45:23:280,14:45:23:968,14:45:26:988,left,14:45:27:388,,2018_May_29_1424,59.9369829434,MP-Perception Experiment,xx02w20,
198,training(9).mov,True,right,1,vgpdm_dyn(25)-lvm(5)_final(3).mov,0,38,38,140,,,,,,,,14:45:28:172,14:45:28:889,14:45:31:890,right,14:45:32:424,,2018_May_29_1424,59.9369829434,MP-Perception Experiment,xx02w20,
199,vcgpdm_dyn(5)-lvm(5)_final(2).mov,True,left,1,training(21).mov,0,39,39,50,,,,,,,,14:45:33:218,14:45:33:942,14:45:36:928,left,14:45:37:262,,2018_May_29_1424,59.9369829434,MP-Perception Experiment,xx02w20,
200,vgpdm_dyn(25)-lvm(35)_final(3).mov,True,left,1,training(4).mov,0,40,40,66,,,,,,,,14:45:38:039,14:45:38:763,14:45:41:765,left,14:45:42:000,,2018_May_29_1424,59.9369829434,MP-Perception Experiment,xx02w20,
201,training(36).mov,True,right,1,vgpdm_dyn(30)-lvm(10)_final(5).mov,0,41,41,107,,,,,,,,14:45:42:790,14:45:43:518,14:45:46:521,right,14:45:46:904,,2018_May_29_1424,59.9369829434,MP-Perception Experiment,xx02w20,
202,training(30).mov,False,right,1,vgpdm_dyn(30)-lvm(35)_final(4).mov,0,42,42,120,,,,,,,,14:45:47:704,14:45:48:406,14:45:51:409,right,14:45:51:743,,2018_May_29_1424,59.9369829434,MP-Perception Experiment,xx02w20,
203,training(20).mov,True,right,1,vcgpdm_dyn(20)-lvm(30)_final(4).mov,0,43,43,64,,,,,,,,14:45:52:524,14:45:53:244,14:45:56:246,right,14:45:56:563,,2018_May_29_1424,59.9369829434,MP-Perception Experiment,xx02w20,
204,training(11).mov,True,right,1,vgpdm_dyn(15)-lvm(25)_final(1).mov,0,44,44,19,,,,,,,,14:45:57:343,14:45:58:064,14:46:01:083,left,14:46:01:617,,2018_May_29_1424,59.9369829434,MP-Perception Experiment,xx02w20,
205,training(4).mov,False,right,1,vcgpdm_dyn(10)-lvm(20)_final(6).mov,0,45,45,35,,,,,,,,14:46:02:401,14:46:03:118,14:46:06:122,right,14:46:06:472,,2018_May_29_1424,59.9369829434,MP-Perception Experiment,xx02w20,
206,training(20).mov,True,right,1,vcgpdm_dyn(35)-lvm(10)_final(4).mov,0,46,46,21,,,,,,,,14:46:07:255,14:46:07:974,14:46:10:976,right,14:46:11:409,,2018_May_29_1424,59.9369829434,MP-Perception Experiment,xx02w20,
207,vgpdm_dyn(25)-lvm(5)_final(3).mov,False,left,1,training(27).mov,0,47,47,53,,,,,,,,14:46:12:187,14:46:12:911,14:46:15:913,right,14:46:16:764,,2018_May_29_1424,59.9369829434,MP-Perception Experiment,xx02w20,
208,training(10).mov,True,right,1,vcgpdm_dyn(35)-lvm(20)_final(9).mov,0,48,48,109,,,,,,,,14:46:17:542,14:46:18:265,14:46:21:284,left,14:46:21:850,,2018_May_29_1424,59.9369829434,MP-Perception Experiment,xx02w20,
209,training(7).mov,True,right,1,tmp_numprim(9)_final(8).mov,0,49,49,144,,,,,,,,14:46:22:620,14:46:23:368,14:46:26:354,right,14:46:26:671,,2018_May_29_1424,59.9369829434,MP-Perception Experiment,xx02w20,
210,tmp_numprim(6)_final(0).mov,False,left,1,training(39).mov,0,50,50,156,,,,,,,,14:46:27:468,14:46:28:172,14:46:31:175,right,14:46:31:525,,2018_May_29_1424,59.9369829434,MP-Perception Experiment,xx02w20,
211,training(34).mov,True,right,1,vgpdm_dyn(30)-lvm(15)_final(7).mov,0,51,51,70,,,,,,,,14:46:32:305,14:46:33:028,14:46:36:013,right,14:46:36:414,,2018_May_29_1424,59.9369829434,MP-Perception Experiment,xx02w20,
212,vcgpdm_dyn(10)-lvm(25)_final(0).mov,False,left,1,training(5).mov,0,52,52,34,,,,,,,,14:46:37:200,14:46:37:915,14:46:40:935,left,14:46:41:419,,2018_May_29_1424,59.9369829434,MP-Perception Experiment,xx02w20,
213,training(29).mov,True,right,1,vgpdm_dyn(5)-lvm(15)_final(7).mov,0,53,53,133,,,,,,,,14:46:42:184,14:46:42:937,14:46:45:923,right,14:46:46:306,,2018_May_29_1424,59.9369829434,MP-Perception Experiment,xx02w20,
214,training(36).mov,True,right,1,vgpdm_dyn(10)-lvm(20)_final(7).mov,0,54,54,20,,,,,,,,14:46:47:082,14:46:47:807,14:46:50:810,right,14:46:51:160,,2018_May_29_1424,59.9369829434,MP-Perception Experiment,xx02w20,
215,vcgpdm_dyn(25)-lvm(10)_final(2).mov,True,left,1,training(13).mov,0,55,55,59,,,,,,,,14:46:51:958,14:46:52:661,14:46:55:664,left,14:46:56:198,,2018_May_29_1424,59.9369829434,MP-Perception Experiment,xx02w20,
216,vcgpdm_dyn(35)-lvm(5)_final(5).mov,False,left,1,training(2).mov,0,56,56,126,,,,,,,,14:46:56:966,14:46:57:699,14:47:00:719,left,14:47:01:186,,2018_May_29_1424,59.9369829434,MP-Perception Experiment,xx02w20,
217,training(39).mov,False,right,1,vgpdm_dyn(20)-lvm(35)_final(0).mov,0,57,57,25,,,,,,,,14:47:01:958,14:47:02:687,14:47:05:689,right,14:47:06:073,,2018_May_29_1424,59.9369829434,MP-Perception Experiment,xx02w20,
218,training(25).mov,False,right,1,vcgpdm_dyn(15)-lvm(35)_final(3).mov,0,58,58,74,,,,,,,,14:47:06:861,14:47:07:574,14:47:10:577,right,14:47:10:944,,2018_May_29_1424,59.9369829434,MP-Perception Experiment,xx02w20,
219,vcgpdm_dyn(25)-lvm(5)_final(4).mov,False,left,1,training(26).mov,0,59,59,29,,,,,,,,14:47:11:744,14:47:12:460,14:47:15:446,left,14:47:15:830,,2018_May_29_1424,59.9369829434,MP-Perception Experiment,xx02w20,
220,vgpdm_dyn(30)-lvm(15)_final(2).mov,False,left,1,training(34).mov,0,60,60,15,,,,,,,,14:47:16:601,14:47:17:332,14:47:20:334,left,14:47:20:784,,2018_May_29_1424,59.9369829434,MP-Perception Experiment,xx02w20,
221,vgpdm_dyn(30)-lvm(15)_final(7).mov,True,left,1,training(20).mov,0,61,61,40,,,,,,,,14:47:21:560,14:47:22:285,14:47:25:273,left,14:47:25:757,,2018_May_29_1424,59.9369829434,MP-Perception Experiment,xx02w20,
222,training(27).mov,False,right,1,vcgpdm_dyn(10)-lvm(20)_final(1).mov,0,62,62,151,,,,,,,,14:47:26:529,14:47:27:258,14:47:30:277,right,14:47:30:678,,2018_May_29_1424,59.9369829434,MP-Perception Experiment,xx02w20,
223,dmp_npsi(30)_final(0).mov,True,left,1,training(21).mov,0,63,63,7,,,,,,,,14:47:31:468,14:47:32:179,14:47:35:199,left,14:47:35:599,,2018_May_29_1424,59.9369829434,MP-Perception Experiment,xx02w20,
224,training(13).mov,True,right,1,vcgpdm_dyn(10)-lvm(20)_final(9).mov,0,64,64,37,,,,,,,,14:47:36:380,14:47:37:100,14:47:40:119,right,14:47:40:536,,2018_May_29_1424,59.9369829434,MP-Perception Experiment,xx02w20,
225,training(37).mov,True,right,1,vgpdm_dyn(20)-lvm(35)_final(9).mov,0,65,65,32,,,,,,,,14:47:41:319,14:47:42:038,14:47:45:040,right,14:47:45:591,,2018_May_29_1424,59.9369829434,MP-Perception Experiment,xx02w20,
226,vgpdm_dyn(5)-lvm(30)_final(3).mov,False,left,1,training(36).mov,0,66,66,102,,,,,,,,14:47:46:369,14:47:47:092,14:47:50:094,left,14:47:50:612,,2018_May_29_1424,59.9369829434,MP-Perception Experiment,xx02w20,
227,training(7).mov,False,right,1,vgpdm_dyn(35)-lvm(25)_final(8).mov,0,67,67,9,,,,,,,,14:47:51:400,14:47:52:130,14:47:55:132,right,14:47:55:600,,2018_May_29_1424,59.9369829434,MP-Perception Experiment,xx02w20,
228,tmp_numprim(4)_final(5).mov,False,left,1,training(14).mov,0,68,68,155,,,,,,,,14:47:56:375,14:47:57:101,14:48:00:120,left,14:48:00:504,,2018_May_29_1424,59.9369829434,MP-Perception Experiment,xx02w20,
229,vcgpdm_dyn(20)-lvm(35)_final(1).mov,True,left,1,training(18).mov,0,69,69,54,,,,,,,,14:48:01:278,14:48:02:005,14:48:05:005,left,14:48:05:339,,2018_May_29_1424,59.9369829434,MP-Perception Experiment,xx02w20,
230,vcgpdm_dyn(20)-lvm(5)_final(6).mov,False,left,1,training(40).mov,0,70,70,72,,,,,,,,14:48:06:111,14:48:06:840,14:48:09:860,left,14:48:10:344,,2018_May_29_1424,59.9369829434,MP-Perception Experiment,xx02w20,
231,training(34).mov,True,right,1,vgpdm_dyn(15)-lvm(35)_final(0).mov,0,71,71,4,,,,,,,,14:48:12:186,14:48:12:187,14:48:14:833,left,14:48:15:283,,2018_May_29_1424,59.9369829434,MP-Perception Experiment,xx02w20,
232,training(2).mov,False,right,1,vcgpdm_dyn(20)-lvm(20)_final(0).mov,0,72,72,11,,,,,,,,14:48:16:048,14:48:16:784,14:48:19:787,right,14:48:20:104,,2018_May_29_1424,59.9369829434,MP-Perception Experiment,xx02w20,
233,vcgpdm_dyn(35)-lvm(30)_final(4).mov,True,left,1,training(36).mov,0,73,73,135,,,,,,,,14:48:20:884,14:48:21:605,14:48:24:607,left,14:48:25:024,,2018_May_29_1424,59.9369829434,MP-Perception Experiment,xx02w20,
234,training(36).mov,False,right,1,vcgpdm_dyn(15)-lvm(35)_final(5).mov,0,74,74,0,,,,,,,,14:48:25:790,14:48:26:526,14:48:29:546,right,14:48:29:879,,2018_May_29_1424,59.9369829434,MP-Perception Experiment,xx02w20,
235,training(16).mov,True,right,1,vgpdm_dyn(5)-lvm(20)_final(9).mov,0,75,75,6,,,,,,,,14:48:30:659,14:48:31:381,14:48:34:383,right,14:48:35:117,,2018_May_29_1424,59.9369829434,MP-Perception Experiment,xx02w20,
236,training(2).mov,True,right,1,vcgpdm_dyn(20)-lvm(10)_final(1).mov,0,76,76,136,,,,,,,,14:48:35:882,14:48:36:635,14:48:39:620,left,14:48:39:987,,2018_May_29_1424,59.9369829434,MP-Perception Experiment,xx02w20,
237,vcgpdm_dyn(15)-lvm(25)_final(5).mov,True,left,1,training(9).mov,0,77,77,69,,,,,,,,14:48:40:779,14:48:41:505,14:48:44:492,right,14:48:45:243,,2018_May_29_1424,59.9369829434,MP-Perception Experiment,xx02w20,
238,vgpdm_dyn(5)-lvm(30)_final(4).mov,True,left,1,training(15).mov,0,78,78,42,,,,,,,,14:48:46:019,14:48:46:744,14:48:49:763,left,14:48:50:163,,2018_May_29_1424,59.9369829434,MP-Perception Experiment,xx02w20,
239,training(24).mov,False,right,1,vgpdm_dyn(10)-lvm(15)_final(9).mov,0,79,79,46,,,,,,,,14:48:50:947,14:48:51:665,14:48:54:665,right,14:48:55:015,,2018_May_29_1424,59.9369829434,MP-Perception Experiment,xx02w20,
240,vcgpdm_dyn(30)-lvm(15)_final(0).mov,True,left,1,training(35).mov,0,80,80,97,,,,,,,,14:48:55:794,14:48:56:517,14:48:59:519,left,14:49:00:053,,2018_May_29_1424,59.9369829434,MP-Perception Experiment,xx02w20,
241,training(37).mov,False,right,1,vcgpdm_dyn(20)-lvm(35)_final(6).mov,0,81,81,23,,,,,,,,14:49:00:838,14:49:01:572,14:49:04:542,right,14:49:04:876,,2018_May_29_1424,59.9369829434,MP-Perception Experiment,xx02w20,
242,training(3).mov,True,right,1,vcgpdm_dyn(5)-lvm(25)_final(7).mov,0,82,82,90,,,,,,,,14:49:05:655,14:49:06:394,14:49:09:380,right,14:49:09:680,,2018_May_29_1424,59.9369829434,MP-Perception Experiment,xx02w20,
243,vgpdm_dyn(30)-lvm(20)_final(1).mov,False,left,1,training(22).mov,0,83,83,95,,,,,,,,14:49:10:454,14:49:11:181,14:49:14:184,right,14:49:14:634,,2018_May_29_1424,59.9369829434,MP-Perception Experiment,xx02w20,
244,vcgpdm_dyn(15)-lvm(20)_final(2).mov,True,left,1,training(25).mov,0,84,84,141,,,,,,,,14:49:15:437,14:49:16:135,14:49:19:139,left,14:49:19:589,,2018_May_29_1424,59.9369829434,MP-Perception Experiment,xx02w20,
245,training(27).mov,False,right,1,dmp_npsi(45)_final(6).mov,0,85,85,49,,,,,,,,14:49:20:364,14:49:21:090,14:49:24:109,right,14:49:24:510,,2018_May_29_1424,59.9369829434,MP-Perception Experiment,xx02w20,
246,training(30).mov,False,right,1,vcgpdm_dyn(5)-lvm(5)_final(0).mov,0,86,86,129,,,,,,,,14:49:25:293,14:49:26:028,14:49:29:013,right,14:49:29:430,,2018_May_29_1424,59.9369829434,MP-Perception Experiment,xx02w20,
247,vcgpdm_dyn(20)-lvm(30)_final(9).mov,False,left,1,training(7).mov,0,87,87,115,,,,,,,,14:49:30:196,14:49:30:931,14:49:33:934,left,14:49:34:434,,2018_May_29_1424,59.9369829434,MP-Perception Experiment,xx02w20,
248,vcgpdm_dyn(20)-lvm(25)_final(8).mov,False,left,1,training(24).mov,0,88,88,84,,,,,,,,14:49:35:223,14:49:35:936,14:49:38:939,left,14:49:39:656,,2018_May_29_1424,59.9369829434,MP-Perception Experiment,xx02w20,
249,training(28).mov,False,right,1,vcgpdm_dyn(5)-lvm(15)_final(6).mov,0,89,89,108,,,,,,,,14:49:40:450,14:49:41:157,14:49:44:158,right,14:49:44:542,,2018_May_29_1424,59.9369829434,MP-Perception Experiment,xx02w20,
250,training(32).mov,True,right,1,vgpdm_dyn(5)-lvm(30)_final(1).mov,0,90,90,105,,,,,,,,14:49:45:338,14:49:46:043,14:49:49:045,right,14:49:49:412,,2018_May_29_1424,59.9369829434,MP-Perception Experiment,xx02w20,
251,map_gpdm_final(5).mov,True,left,1,training(14).mov,0,91,91,17,,,,,,,,14:49:50:183,14:49:50:914,14:49:53:917,left,14:49:54:569,,2018_May_29_1424,59.9369829434,MP-Perception Experiment,xx02w20,
252,vgpdm_dyn(35)-lvm(35)_final(0).mov,False,left,1,training(11).mov,0,92,92,142,,,,,,,,14:49:55:345,14:49:56:070,14:49:59:073,left,14:49:59:540,,2018_May_29_1424,59.9369829434,MP-Perception Experiment,xx02w20,
253,tmp_numprim(10)_final(4).mov,False,left,1,training(19).mov,0,93,93,137,,,,,,,,14:50:00:320,14:50:01:058,14:50:04:060,right,14:50:04:477,,2018_May_29_1424,59.9369829434,MP-Perception Experiment,xx02w20,
254,training(25).mov,False,right,1,vgpdm_dyn(10)-lvm(15)_final(9).mov,0,94,94,158,,,,,,,,14:50:05:259,14:50:05:978,14:50:08:998,right,14:50:09:298,,2018_May_29_1424,59.9369829434,MP-Perception Experiment,xx02w20,
255,dmp_npsi(20)_final(1).mov,True,left,1,training(24).mov,0,95,95,60,,,,,,,,14:50:10:080,14:50:10:800,14:50:13:819,left,14:50:14:486,,2018_May_29_1424,59.9369829434,MP-Perception Experiment,xx02w20,
256,training(15).mov,False,right,1,vcgpdm_dyn(15)-lvm(10)_final(3).mov,0,96,96,150,,,,,,,,14:50:15:277,14:50:16:004,14:50:18:990,right,14:50:19:507,,2018_May_29_1424,59.9369829434,MP-Perception Experiment,xx02w20,
257,training(13).mov,False,right,1,vcgpdm_dyn(30)-lvm(30)_final(7).mov,0,97,97,24,,,,,,,,14:50:20:283,14:50:21:008,14:50:24:011,right,14:50:24:444,,2018_May_29_1424,59.9369829434,MP-Perception Experiment,xx02w20,
258,vcgpdm_dyn(10)-lvm(20)_final(1).mov,False,left,1,training(27).mov,0,98,98,77,,,,,,,,14:50:25:228,14:50:25:945,14:50:28:949,left,14:50:29:299,,2018_May_29_1424,59.9369829434,MP-Perception Experiment,xx02w20,
259,vcgpdm_dyn(15)-lvm(30)_final(9).mov,False,left,1,training(28).mov,0,99,99,134,,,,,,,,14:50:30:072,14:50:30:800,14:50:33:801,left,14:50:34:252,,2018_May_29_1424,59.9369829434,MP-Perception Experiment,xx02w20,
260,training(32).mov,False,right,1,vcgpdm_dyn(20)-lvm(30)_final(2).mov,0,100,100,121,,,,,,,,14:50:35:066,14:50:35:769,14:50:38:755,right,14:50:39:072,,2018_May_29_1424,59.9369829434,MP-Perception Experiment,xx02w20,
261,training(0).mov,True,right,1,vgpdm_dyn(20)-lvm(25)_final(9).mov,0,101,101,13,,,,,,,,14:50:39:859,14:50:40:573,14:50:43:576,right,14:50:44:043,,2018_May_29_1424,59.9369829434,MP-Perception Experiment,xx02w20,
262,vgpdm_dyn(20)-lvm(25)_final(0).mov,False,left,1,training(31).mov,0,102,102,86,,,,,,,,14:50:44:819,14:50:45:547,14:50:48:566,right,14:50:49:000,,2018_May_29_1424,59.9369829434,MP-Perception Experiment,xx02w20,
263,vcgpdm_dyn(20)-lvm(25)_final(4).mov,False,left,1,training(2).mov,0,103,103,87,,,,,,,,14:50:49:770,14:50:50:501,14:50:53:520,left,14:50:53:920,,2018_May_29_1424,59.9369829434,MP-Perception Experiment,xx02w20,
264,training(11).mov,True,right,1,vcgpdm_dyn(5)-lvm(10)_final(9).mov,0,104,104,154,,,,,,,,14:50:54:717,14:50:55:438,14:50:58:424,right,14:50:58:724,,2018_May_29_1424,59.9369829434,MP-Perception Experiment,xx02w20,
265,vcgpdm_dyn(35)-lvm(30)_final(2).mov,False,left,1,training(48).mov,0,105,105,62,,,,,,,,14:50:59:503,14:51:00:225,14:51:03:229,left,14:51:03:646,,2018_May_29_1424,59.9369829434,MP-Perception Experiment,xx02w20,
266,training(17).mov,False,right,1,vgpdm_dyn(20)-lvm(25)_final(0).mov,0,106,106,2,,,,,,,,14:51:04:431,14:51:05:147,14:51:08:150,right,14:51:08:483,,2018_May_29_1424,59.9369829434,MP-Perception Experiment,xx02w20,
267,dmp_npsi(40)_final(0).mov,True,left,1,training(38).mov,0,107,107,127,,,,,,,,14:51:09:288,14:51:09:984,14:51:12:986,left,14:51:14:221,,2018_May_29_1424,59.9369829434,MP-Perception Experiment,xx02w20,
268,training(18).mov,True,right,1,vcgpdm_dyn(20)-lvm(25)_final(6).mov,0,108,108,152,,,,,,,,14:51:15:067,14:51:15:722,14:51:18:724,right,14:51:19:192,,2018_May_29_1424,59.9369829434,MP-Perception Experiment,xx02w20,
269,vcgpdm_dyn(10)-lvm(10)_final(0).mov,False,left,1,training(7).mov,0,109,109,73,,,,,,,,14:51:19:970,14:51:20:694,14:51:23:694,left,14:51:24:078,,2018_May_29_1424,59.9369829434,MP-Perception Experiment,xx02w20,
270,training(15).mov,False,right,1,tmp_numprim(7)_final(3).mov,0,110,110,92,,,,,,,,14:51:24:875,14:51:25:579,14:51:28:582,right,14:51:28:982,,2018_May_29_1424,59.9369829434,MP-Perception Experiment,xx02w20,
271,training(1).mov,True,right,1,map_gpdm_final(9).mov,0,111,111,93,,,,,,,,14:51:29:775,14:51:30:500,14:51:33:486,right,14:51:33:919,,2018_May_29_1424,59.9369829434,MP-Perception Experiment,xx02w20,
272,training(25).mov,True,right,1,vcgpdm_dyn(30)-lvm(20)_final(1).mov,0,112,112,56,,,,,,,,14:51:34:712,14:51:35:422,14:51:38:443,right,14:51:38:876,,2018_May_29_1424,59.9369829434,MP-Perception Experiment,xx02w20,
273,vcgpdm_dyn(30)-lvm(35)_final(5).mov,False,left,1,training(24).mov,0,113,113,33,,,,,,,,14:51:39:692,14:51:40:377,14:51:43:380,left,14:51:44:230,,2018_May_29_1424,59.9369829434,MP-Perception Experiment,xx02w20,
274,vcgpdm_dyn(10)-lvm(30)_final(7).mov,True,left,1,training(9).mov,0,114,114,128,,,,,,,,14:51:45:005,14:51:45:732,14:51:48:734,left,14:51:49:201,,2018_May_29_1424,59.9369829434,MP-Perception Experiment,xx02w20,
275,training(36).mov,False,right,1,vgpdm_dyn(25)-lvm(20)_final(4).mov,0,115,115,143,,,,,,,,14:51:49:981,14:51:50:702,14:51:53:705,right,14:51:54:389,,2018_May_29_1424,59.9369829434,MP-Perception Experiment,xx02w20,
276,training(5).mov,False,right,1,vcgpdm_dyn(25)-lvm(20)_final(2).mov,0,116,116,10,,,,,,,,14:51:55:172,14:51:55:891,14:51:58:893,right,14:51:59:344,,2018_May_29_1424,59.9369829434,MP-Perception Experiment,xx02w20,
277,dmp_npsi(15)_final(4).mov,True,left,1,training(5).mov,0,117,117,101,,,,,,,,14:52:00:126,14:52:00:861,14:52:03:847,left,14:52:04:198,,2018_May_29_1424,59.9369829434,MP-Perception Experiment,xx02w20,
278,training(40).mov,False,right,1,vgpdm_dyn(20)-lvm(25)_final(2).mov,0,118,118,132,,,,,,,,14:52:04:961,14:52:05:715,14:52:08:718,right,14:52:09:102,,2018_May_29_1424,59.9369829434,MP-Perception Experiment,xx02w20,
279,training(2).mov,True,right,1,vcgpdm_dyn(15)-lvm(20)_final(2).mov,0,119,119,31,,,,,,,,14:52:09:869,14:52:10:619,14:52:13:604,right,14:52:14:205,,2018_May_29_1424,59.9369829434,MP-Perception Experiment,xx02w20,
280,training(0).mov,False,right,1,vgpdm_dyn(25)-lvm(5)_final(9).mov,0,120,120,111,,,,,,,,14:52:14:987,14:52:15:706,14:52:18:708,right,14:52:19:042,,2018_May_29_1424,59.9369829434,MP-Perception Experiment,xx02w20,
281,training(0).mov,True,right,1,vgpdm_dyn(20)-lvm(5)_final(5).mov,0,121,121,145,,,,,,,,14:52:19:817,14:52:20:543,14:52:23:546,right,14:52:23:930,,2018_May_29_1424,59.9369829434,MP-Perception Experiment,xx02w20,
282,training(30).mov,False,right,1,vgpdm_dyn(35)-lvm(5)_final(0).mov,0,122,122,79,,,,,,,,14:52:24:715,14:52:25:430,14:52:28:418,right,14:52:28:802,,2018_May_29_1424,59.9369829434,MP-Perception Experiment,xx02w20,
283,training(21).mov,False,right,1,vcgpdm_dyn(25)-lvm(10)_final(8).mov,0,123,123,117,,,,,,,,14:52:29:585,14:52:30:304,14:52:33:306,right,14:52:33:573,,2018_May_29_1424,59.9369829434,MP-Perception Experiment,xx02w20,
284,training(3).mov,True,right,1,dmp_npsi(15)_final(8).mov,0,124,124,45,,,,,,,,14:52:34:356,14:52:35:074,14:52:38:077,right,14:52:38:661,,2018_May_29_1424,59.9369829434,MP-Perception Experiment,xx02w20,
285,vcgpdm_dyn(15)-lvm(30)_final(2).mov,False,left,1,training(21).mov,0,125,125,76,,,,,,,,14:52:39:434,14:52:40:162,14:52:43:181,right,14:52:43:615,,2018_May_29_1424,59.9369829434,MP-Perception Experiment,xx02w20,
286,training(19).mov,False,right,1,vcgpdm_dyn(30)-lvm(15)_final(2).mov,0,126,126,123,,,,,,,,14:52:44:427,14:52:45:116,14:52:48:119,right,14:52:48:603,,2018_May_29_1424,59.9369829434,MP-Perception Experiment,xx02w20,
287,vcgpdm_dyn(30)-lvm(20)_final(0).mov,True,left,1,training(20).mov,0,127,127,125,,,,,,,,14:52:49:398,14:52:50:104,14:52:53:107,left,14:52:53:590,,2018_May_29_1424,59.9369829434,MP-Perception Experiment,xx02w20,
288,vcgpdm_dyn(35)-lvm(5)_final(4).mov,True,left,1,training(15).mov,0,128,128,36,,,,,,,,14:52:54:370,14:52:55:092,14:52:58:094,left,14:52:58:828,,2018_May_29_1424,59.9369829434,MP-Perception Experiment,xx02w20,
289,training(23).mov,False,right,1,vgpdm_dyn(35)-lvm(10)_final(6).mov,0,129,129,83,,,,,,,,14:52:59:609,14:53:00:329,14:53:03:330,left,14:53:03:747,,2018_May_29_1424,59.9369829434,MP-Perception Experiment,xx02w20,
290,training(14).mov,True,right,1,vgpdm_dyn(20)-lvm(15)_final(7).mov,0,130,130,104,,,,,,,,14:53:04:514,14:53:05:249,14:53:08:251,right,14:53:08:435,,2018_May_29_1424,59.9369829434,MP-Perception Experiment,xx02w20,
291,vcgpdm_dyn(20)-lvm(5)_final(1).mov,False,left,1,training(1).mov,0,131,131,157,,,,,,,,14:53:09:190,14:53:09:936,14:53:12:939,right,14:53:13:439,,2018_May_29_1424,59.9369829434,MP-Perception Experiment,xx02w20,
292,vcgpdm_dyn(15)-lvm(20)_final(7).mov,True,left,1,training(28).mov,0,132,132,27,,,,,,,,14:53:14:218,14:53:14:942,14:53:17:944,left,14:53:18:412,,2018_May_29_1424,59.9369829434,MP-Perception Experiment,xx02w20,
293,training(26).mov,True,right,1,tmp_numprim(5)_final(5).mov,0,133,133,18,,,,,,,,14:53:19:195,14:53:19:913,14:53:22:933,right,14:53:23:316,,2018_May_29_1424,59.9369829434,MP-Perception Experiment,xx02w20,
294,dmp_npsi(50)_final(5).mov,False,left,1,training(38).mov,0,134,134,113,,,,,,,,14:53:24:108,14:53:24:818,14:53:27:820,left,14:53:28:371,,2018_May_29_1424,59.9369829434,MP-Perception Experiment,xx02w20,
295,training(27).mov,True,right,1,vgpdm_dyn(15)-lvm(30)_final(1).mov,0,135,135,65,,,,,,,,14:53:29:156,14:53:29:872,14:53:32:891,right,14:53:33:358,,2018_May_29_1424,59.9369829434,MP-Perception Experiment,xx02w20,
296,vgpdm_dyn(25)-lvm(30)_final(0).mov,True,left,1,training(39).mov,0,136,136,43,,,,,,,,14:53:34:143,14:53:34:859,14:53:37:878,right,14:53:38:512,,2018_May_29_1424,59.9369829434,MP-Perception Experiment,xx02w20,
297,training(4).mov,True,right,1,vcgpdm_dyn(5)-lvm(5)_final(4).mov,0,137,137,131,,,,,,,,14:53:39:291,14:53:40:013,14:53:43:017,right,14:53:43:267,,2018_May_29_1424,59.9369829434,MP-Perception Experiment,xx02w20,
298,tmp_numprim(9)_final(3).mov,False,left,1,training(38).mov,0,138,138,51,,,,,,,,14:53:44:044,14:53:44:768,14:53:47:787,left,14:53:48:388,,2018_May_29_1424,59.9369829434,MP-Perception Experiment,xx02w20,
299,vcgpdm_dyn(15)-lvm(20)_final(1).mov,False,left,1,training(23).mov,0,139,139,80,,,,,,,,14:53:49:178,14:53:49:889,14:53:52:890,right,14:53:53:340,,2018_May_29_1424,59.9369829434,MP-Perception Experiment,xx02w20,
300,dmp_npsi(35)_final(4).mov,False,left,1,training(27).mov,0,140,140,47,,,,,,,,14:53:54:121,14:53:54:841,14:53:57:844,left,14:53:58:195,,2018_May_29_1424,59.9369829434,MP-Perception Experiment,xx02w20,
301,vgpdm_dyn(20)-lvm(15)_final(2).mov,False,left,1,training(0).mov,0,141,141,91,,,,,,,,14:53:58:988,14:53:59:696,14:54:02:698,left,14:54:03:116,,2018_May_29_1424,59.9369829434,MP-Perception Experiment,xx02w20,
302,training(11).mov,False,right,1,vcgpdm_dyn(35)-lvm(10)_final(3).mov,0,142,142,26,,,,,,,,14:54:03:902,14:54:04:618,14:54:07:604,right,14:54:07:905,,2018_May_29_1424,59.9369829434,MP-Perception Experiment,xx02w20,
303,training(35).mov,False,right,1,map_gpdm_final(7).mov,0,143,143,14,,,,,,,,14:54:08:686,14:54:09:405,14:54:12:408,right,14:54:12:809,,2018_May_29_1424,59.9369829434,MP-Perception Experiment,xx02w20,
304,vcgpdm_dyn(15)-lvm(10)_final(4).mov,True,left,1,training(38).mov,0,144,144,44,,,,,,,,14:54:13:584,14:54:14:309,14:54:17:330,left,14:54:17:747,,2018_May_29_1424,59.9369829434,MP-Perception Experiment,xx02w20,
305,vcgpdm_dyn(10)-lvm(35)_final(3).mov,True,left,1,training(24).mov,0,145,145,149,,,,,,,,14:54:18:532,14:54:19:248,14:54:22:250,left,14:54:22:701,,2018_May_29_1424,59.9369829434,MP-Perception Experiment,xx02w20,
306,vcgpdm_dyn(30)-lvm(15)_final(4).mov,True,left,1,training(36).mov,0,146,146,3,,,,,,,,14:54:23:474,14:54:24:202,14:54:27:204,left,14:54:27:671,,2018_May_29_1424,59.9369829434,MP-Perception Experiment,xx02w20,
307,vcgpdm_dyn(15)-lvm(15)_final(3).mov,False,left,1,training(40).mov,0,147,147,138,,,,,,,,14:54:28:449,14:54:29:172,14:54:32:175,right,14:54:32:559,,2018_May_29_1424,59.9369829434,MP-Perception Experiment,xx02w20,
308,training(7).mov,False,right,1,vgpdm_dyn(15)-lvm(30)_final(9).mov,0,148,148,58,,,,,,,,14:54:33:342,14:54:34:077,14:54:37:080,right,14:54:37:497,,2018_May_29_1424,59.9369829434,MP-Perception Experiment,xx02w20,
309,training(28).mov,False,right,1,vgpdm_dyn(10)-lvm(20)_final(7).mov,0,149,149,81,,,,,,,,14:54:38:287,14:54:38:998,14:54:42:017,right,14:54:42:416,,2018_May_29_1424,59.9369829434,MP-Perception Experiment,xx02w20,
310,dmp_npsi(50)_final(8).mov,False,left,1,training(26).mov,0,150,150,28,,,,,,,,14:54:43:201,14:54:43:934,14:54:46:919,right,14:54:47:220,,2018_May_29_1424,59.9369829434,MP-Perception Experiment,xx02w20,
311,training(18).mov,False,right,1,vcgpdm_dyn(35)-lvm(30)_final(5).mov,0,151,151,99,,,,,,,,14:54:47:996,14:54:48:738,14:54:51:724,right,14:54:51:975,,2018_May_29_1424,59.9369829434,MP-Perception Experiment,xx02w20,
312,training(25).mov,True,right,1,vgpdm_dyn(5)-lvm(20)_final(5).mov,0,152,152,16,,,,,,,,14:54:52:762,14:54:53:476,14:54:56:463,right,14:54:56:830,,2018_May_29_1424,59.9369829434,MP-Perception Experiment,xx02w20,
313,training(0).mov,False,right,1,vgpdm_dyn(30)-lvm(20)_final(7).mov,0,153,153,139,,,,,,,,14:54:57:597,14:54:58:348,14:55:01:334,right,14:55:01:984,,2018_May_29_1424,59.9369829434,MP-Perception Experiment,xx02w20,
314,training(17).mov,True,right,1,vgpdm_dyn(20)-lvm(20)_final(6).mov,0,154,154,146,,,,,,,,14:55:02:769,14:55:03:486,14:55:06:488,right,14:55:06:888,,2018_May_29_1424,59.9369829434,MP-Perception Experiment,xx02w20,
315,vgpdm_dyn(35)-lvm(35)_final(0).mov,False,left,1,training(38).mov,0,155,155,119,,,,,,,,14:55:07:669,14:55:08:390,14:55:11:410,left,14:55:11:977,,2018_May_29_1424,59.9369829434,MP-Perception Experiment,xx02w20,
316,vcgpdm_dyn(20)-lvm(20)_final(9).mov,False,left,1,training(3).mov,0,156,156,52,,,,,,,,14:55:12:779,14:55:13:478,14:55:16:480,right,14:55:16:881,,2018_May_29_1424,59.9369829434,MP-Perception Experiment,xx02w20,
317,vcgpdm_dyn(25)-lvm(10)_final(5).mov,False,left,1,training(25).mov,0,157,157,55,,,,,,,,14:55:17:656,14:55:18:382,14:55:21:384,left,14:55:21:818,,2018_May_29_1424,59.9369829434,MP-Perception Experiment,xx02w20,
318,training(24).mov,False,right,1,vgpdm_dyn(20)-lvm(25)_final(9).mov,0,158,158,118,,,,,,,,14:55:22:595,14:55:23:319,14:55:26:340,right,14:55:27:291,,2018_May_29_1424,59.9369829434,MP-Perception Experiment,xx02w20,
319,vcgpdm_dyn(15)-lvm(30)_final(0).mov,False,left,2,training(18).mov,0,0,0,114,,,,,,,,14:59:18:598,14:59:19:324,14:59:22:310,left,14:59:22:860,,2018_May_29_1424,59.9369829434,MP-Perception Experiment,xx02w20,
320,dmp_npsi(25)_final(4).mov,False,left,2,training(7).mov,0,1,1,151,,,,,,,,14:59:23:640,14:59:24:378,14:59:27:364,left,14:59:27:697,,2018_May_29_1424,59.9369829434,MP-Perception Experiment,xx02w20,
321,training(5).mov,False,right,2,vgpdm_dyn(30)-lvm(25)_final(0).mov,0,2,2,137,,,,,,,,14:59:28:477,14:59:29:215,14:59:32:219,right,14:59:32:669,,2018_May_29_1424,59.9369829434,MP-Perception Experiment,xx02w20,
322,training(18).mov,False,right,2,vgpdm_dyn(30)-lvm(5)_final(8).mov,0,3,3,63,,,,,,,,14:59:33:453,14:59:34:187,14:59:37:189,right,14:59:37:473,,2018_May_29_1424,59.9369829434,MP-Perception Experiment,xx02w20,
323,training(36).mov,False,right,2,tmp_numprim(6)_final(4).mov,0,4,4,125,,,,,,,,14:59:38:250,14:59:38:974,14:59:41:976,right,14:59:42:360,,2018_May_29_1424,59.9369829434,MP-Perception Experiment,xx02w20,
324,training(26).mov,False,right,2,vgpdm_dyn(25)-lvm(30)_final(1).mov,0,5,5,139,,,,,,,,14:59:43:162,14:59:43:893,14:59:46:879,right,14:59:47:162,,2018_May_29_1424,59.9369829434,MP-Perception Experiment,xx02w20,
325,vgpdm_dyn(35)-lvm(10)_final(4).mov,False,left,2,training(31).mov,0,6,6,101,,,,,,,,14:59:47:946,14:59:48:681,14:59:51:667,right,14:59:51:934,,2018_May_29_1424,59.9369829434,MP-Perception Experiment,xx02w20,
326,training(15).mov,True,right,2,vgpdm_dyn(30)-lvm(5)_final(7).mov,0,7,7,69,,,,,,,,14:59:52:714,14:59:53:435,14:59:56:422,left,14:59:56:923,,2018_May_29_1424,59.9369829434,MP-Perception Experiment,xx02w20,
327,training(30).mov,False,right,2,vgpdm_dyn(30)-lvm(35)_final(1).mov,0,8,8,88,,,,,,,,14:59:57:710,14:59:58:424,15:00:01:426,right,15:00:02:511,,2018_May_29_1424,59.9369829434,MP-Perception Experiment,xx02w20,
328,vgpdm_dyn(30)-lvm(30)_final(9).mov,True,left,2,training(48).mov,0,9,9,30,,,,,,,,15:00:03:300,15:00:04:012,15:00:07:015,left,15:00:07:466,,2018_May_29_1424,59.9369829434,MP-Perception Experiment,xx02w20,
329,tmp_numprim(5)_final(0).mov,False,left,2,training(24).mov,0,10,10,143,,,,,,,,15:00:08:238,15:00:08:983,15:00:11:986,left,15:00:12:386,,2018_May_29_1424,59.9369829434,MP-Perception Experiment,xx02w20,
330,training(17).mov,True,right,2,vcgpdm_dyn(10)-lvm(25)_final(3).mov,0,11,11,66,,,,,,,,15:00:13:158,15:00:13:887,15:00:16:890,right,15:00:17:390,,2018_May_29_1424,59.9369829434,MP-Perception Experiment,xx02w20,
331,dmp_npsi(15)_final(1).mov,True,left,2,training(11).mov,0,12,12,97,,,,,,,,15:00:18:182,15:00:18:891,15:00:21:894,left,15:00:22:329,,2018_May_29_1424,59.9369829434,MP-Perception Experiment,xx02w20,
332,vcgpdm_dyn(30)-lvm(20)_final(0).mov,True,left,2,training(22).mov,0,13,13,42,,,,,,,,15:00:23:100,15:00:23:830,15:00:26:832,left,15:00:27:266,,2018_May_29_1424,59.9369829434,MP-Perception Experiment,xx02w20,
333,vcgpdm_dyn(5)-lvm(20)_final(2).mov,False,left,2,training(11).mov,0,14,14,120,,,,,,,,15:00:28:044,15:00:28:784,15:00:31:769,left,15:00:32:220,,2018_May_29_1424,59.9369829434,MP-Perception Experiment,xx02w20,
334,vcgpdm_dyn(30)-lvm(30)_final(2).mov,False,left,2,training(1).mov,0,15,15,138,,,,,,,,15:00:33:022,15:00:33:736,15:00:36:739,left,15:00:37:039,,2018_May_29_1424,59.9369829434,MP-Perception Experiment,xx02w20,
335,map_gpdm_final(3).mov,False,left,2,training(12).mov,0,16,16,0,,,,,,,,15:00:37:828,15:00:38:540,15:00:41:543,left,15:00:41:944,,2018_May_29_1424,59.9369829434,MP-Perception Experiment,xx02w20,
336,vcgpdm_dyn(15)-lvm(20)_final(8).mov,True,left,2,training(9).mov,0,17,17,76,,,,,,,,15:00:42:720,15:00:43:445,15:00:46:449,left,15:00:46:833,,2018_May_29_1424,59.9369829434,MP-Perception Experiment,xx02w20,
337,training(33).mov,True,right,2,vgpdm_dyn(35)-lvm(30)_final(3).mov,0,18,18,156,,,,,,,,15:00:47:621,15:00:48:351,15:00:51:336,left,15:00:52:070,,2018_May_29_1424,59.9369829434,MP-Perception Experiment,xx02w20,
338,training(6).mov,True,right,2,vgpdm_dyn(5)-lvm(20)_final(6).mov,0,19,19,34,,,,,,,,15:00:52:847,15:00:53:571,15:00:56:574,right,15:00:56:991,,2018_May_29_1424,59.9369829434,MP-Perception Experiment,xx02w20,
339,training(3).mov,True,right,2,vgpdm_dyn(35)-lvm(30)_final(0).mov,0,20,20,78,,,,,,,,15:00:57:777,15:00:58:510,15:01:01:496,right,15:01:01:696,,2018_May_29_1424,59.9369829434,MP-Perception Experiment,xx02w20,
340,vcgpdm_dyn(10)-lvm(5)_final(7).mov,False,left,2,training(4).mov,0,21,21,148,,,,,,,,15:01:02:490,15:01:03:197,15:01:06:216,left,15:01:07:067,,2018_May_29_1424,59.9369829434,MP-Perception Experiment,xx02w20,
341,vgpdm_dyn(20)-lvm(35)_final(2).mov,False,left,2,training(7).mov,0,22,22,9,,,,,,,,15:01:07:844,15:01:08:568,15:01:11:587,right,15:01:11:971,,2018_May_29_1424,59.9369829434,MP-Perception Experiment,xx02w20,
342,training(40).mov,False,right,2,vgpdm_dyn(30)-lvm(10)_final(5).mov,0,23,23,119,,,,,,,,15:01:12:765,15:01:13:472,15:01:16:475,right,15:01:16:759,,2018_May_29_1424,59.9369829434,MP-Perception Experiment,xx02w20,
343,training(34).mov,True,right,2,vcgpdm_dyn(20)-lvm(5)_final(7).mov,0,24,24,47,,,,,,,,15:01:17:545,15:01:18:277,15:01:21:279,left,15:01:21:696,,2018_May_29_1424,59.9369829434,MP-Perception Experiment,xx02w20,
344,training(31).mov,True,right,2,vcgpdm_dyn(15)-lvm(30)_final(3).mov,0,25,25,22,,,,,,,,15:01:22:463,15:01:23:212,15:01:26:198,left,15:01:26:465,,2018_May_29_1424,59.9369829434,MP-Perception Experiment,xx02w20,
345,training(8).mov,True,right,2,tmp_numprim(3)_final(1).mov,0,26,26,43,,,,,,,,15:01:27:233,15:01:27:966,15:01:30:969,right,15:01:31:302,,2018_May_29_1424,59.9369829434,MP-Perception Experiment,xx02w20,
346,vcgpdm_dyn(25)-lvm(30)_final(4).mov,True,left,2,training(6).mov,0,27,27,140,,,,,,,,15:01:32:069,15:01:32:804,15:01:35:792,left,15:01:36:226,,2018_May_29_1424,59.9369829434,MP-Perception Experiment,xx02w20,
347,training(9).mov,True,right,2,vgpdm_dyn(25)-lvm(10)_final(8)_out_of_screen.mov,0,28,28,38,,,,,,,,15:01:37:015,15:01:37:727,15:01:40:729,right,15:01:41:113,,2018_May_29_1424,59.9369829434,MP-Perception Experiment,xx02w20,
348,vgpdm_dyn(30)-lvm(15)_final(7).mov,False,left,2,training(16).mov,0,29,29,118,,,,,,,,15:01:41:885,15:01:42:614,15:01:45:616,left,15:01:46:501,,2018_May_29_1424,59.9369829434,MP-Perception Experiment,xx02w20,
349,vgpdm_dyn(25)-lvm(35)_final(5).mov,False,left,2,training(36).mov,0,30,30,142,,,,,,,,15:01:47:297,15:01:48:002,15:01:51:005,right,15:01:51:355,,2018_May_29_1424,59.9369829434,MP-Perception Experiment,xx02w20,
350,training(13).mov,False,right,2,vgpdm_dyn(5)-lvm(10)_final(5).mov,0,31,31,57,,,,,,,,15:01:52:133,15:01:52:857,15:01:55:876,right,15:01:56:226,,2018_May_29_1424,59.9369829434,MP-Perception Experiment,xx02w20,
351,training(21).mov,True,right,2,vcgpdm_dyn(5)-lvm(15)_final(4).mov,0,32,32,32,,,,,,,,15:01:57:007,15:01:57:744,15:02:00:746,left,15:02:01:364,,2018_May_29_1424,59.9369829434,MP-Perception Experiment,xx02w20,
352,vcgpdm_dyn(35)-lvm(25)_final(9).mov,False,left,2,training(39).mov,0,33,33,55,,,,,,,,15:02:02:143,15:02:02:865,15:02:05:867,right,15:02:06:268,,2018_May_29_1424,59.9369829434,MP-Perception Experiment,xx02w20,
353,dmp_npsi(20)_final(5).mov,True,left,2,training(14).mov,0,34,34,51,,,,,,,,15:02:07:038,15:02:07:770,15:02:10:789,left,15:02:11:273,,2018_May_29_1424,59.9369829434,MP-Perception Experiment,xx02w20,
354,vcgpdm_dyn(25)-lvm(35)_final(8).mov,True,left,2,training(16).mov,0,35,35,149,,,,,,,,15:02:12:051,15:02:12:774,15:02:15:774,left,15:02:16:141,,2018_May_29_1424,59.9369829434,MP-Perception Experiment,xx02w20,
355,vcgpdm_dyn(5)-lvm(15)_final(6).mov,False,left,2,training(11).mov,0,36,36,54,,,,,,,,15:02:16:908,15:02:17:643,15:02:20:645,left,15:02:20:995,,2018_May_29_1424,59.9369829434,MP-Perception Experiment,xx02w20,
356,vcgpdm_dyn(35)-lvm(5)_final(1).mov,True,left,2,training(41).mov,0,37,37,1,,,,,,,,15:02:21:788,15:02:22:496,15:02:25:485,left,15:02:25:919,,2018_May_29_1424,59.9369829434,MP-Perception Experiment,xx02w20,
357,vgpdm_dyn(5)-lvm(10)_final(1).mov,False,left,2,training(5).mov,0,38,38,95,,,,,,,,15:02:26:699,15:02:27:420,15:02:30:422,left,15:02:31:006,,2018_May_29_1424,59.9369829434,MP-Perception Experiment,xx02w20,
358,vgpdm_dyn(35)-lvm(25)_final(7).mov,False,left,2,training(19).mov,0,39,39,83,,,,,,,,15:02:31:783,15:02:32:507,15:02:35:510,left,15:02:35:927,,2018_May_29_1424,59.9369829434,MP-Perception Experiment,xx02w20,
359,training(48).mov,True,right,2,dmp_npsi(45)_final(9).mov,0,40,40,129,,,,,,,,15:02:36:715,15:02:37:428,15:02:40:430,right,15:02:40:764,,2018_May_29_1424,59.9369829434,MP-Perception Experiment,xx02w20,
360,training(33).mov,True,right,2,vcgpdm_dyn(5)-lvm(20)_final(4).mov,0,41,41,130,,,,,,,,15:02:41:538,15:02:42:266,15:02:45:269,right,15:02:45:636,,2018_May_29_1424,59.9369829434,MP-Perception Experiment,xx02w20,
361,training(40).mov,False,right,2,vcgpdm_dyn(35)-lvm(30)_final(8).mov,0,42,42,153,,,,,,,,15:02:46:421,15:02:47:137,15:02:50:139,right,15:02:50:490,,2018_May_29_1424,59.9369829434,MP-Perception Experiment,xx02w20,
362,training(41).mov,False,right,2,vgpdm_dyn(30)-lvm(25)_final(7).mov,0,43,43,56,,,,,,,,15:02:51:695,15:02:52:207,15:02:54:993,right,15:02:55:360,,2018_May_29_1424,59.9369829434,MP-Perception Experiment,xx02w20,
363,training(31).mov,True,right,2,vcgpdm_dyn(5)-lvm(20)_final(5).mov,0,44,44,98,,,,,,,,15:02:56:137,15:02:56:861,15:02:59:865,right,15:03:00:815,,2018_May_29_1424,59.9369829434,MP-Perception Experiment,xx02w20,
364,tmp_numprim(10)_final(0).mov,False,left,2,training(14).mov,0,45,45,12,,,,,,,,15:03:01:591,15:03:02:333,15:03:05:318,left,15:03:05:701,,2018_May_29_1424,59.9369829434,MP-Perception Experiment,xx02w20,
365,vcgpdm_dyn(30)-lvm(25)_final(2).mov,False,left,2,training(12).mov,0,46,46,103,,,,,,,,15:03:06:483,15:03:07:203,15:03:10:205,left,15:03:10:538,,2018_May_29_1424,59.9369829434,MP-Perception Experiment,xx02w20,
366,training(40).mov,True,right,2,vgpdm_dyn(5)-lvm(10)_final(3).mov,0,47,47,75,,,,,,,,15:03:11:770,15:03:12:273,15:03:15:042,right,15:03:15:375,,2018_May_29_1424,59.9369829434,MP-Perception Experiment,xx02w20,
367,vcgpdm_dyn(30)-lvm(10)_final(4).mov,False,left,2,training(18).mov,0,48,48,71,,,,,,,,15:03:16:169,15:03:16:877,15:03:19:865,left,15:03:20:249,,2018_May_29_1424,59.9369829434,MP-Perception Experiment,xx02w20,
368,vcgpdm_dyn(15)-lvm(35)_final(6).mov,False,left,2,training(22).mov,0,49,49,126,,,,,,,,15:03:21:031,15:03:21:750,15:03:24:753,left,15:03:25:171,,2018_May_29_1424,59.9369829434,MP-Perception Experiment,xx02w20,
369,training(0).mov,True,right,2,vgpdm_dyn(35)-lvm(5)_final(7).mov,0,50,50,40,,,,,,,,15:03:25:964,15:03:26:687,15:03:29:690,right,15:03:30:023,,2018_May_29_1424,59.9369829434,MP-Perception Experiment,xx02w20,
370,training(3).mov,True,right,2,vcgpdm_dyn(10)-lvm(30)_final(9).mov,0,51,51,49,,,,,,,,15:03:30:829,15:03:31:524,15:03:34:527,right,15:03:34:895,,2018_May_29_1424,59.9369829434,MP-Perception Experiment,xx02w20,
371,vcgpdm_dyn(15)-lvm(25)_final(5).mov,False,left,2,training(31).mov,0,52,52,53,,,,,,,,15:03:35:673,15:03:36:396,15:03:39:399,right,15:03:39:732,,2018_May_29_1424,59.9369829434,MP-Perception Experiment,xx02w20,
372,vgpdm_dyn(15)-lvm(25)_final(3).mov,True,left,2,training(0).mov,0,53,53,8,,,,,,,,15:03:40:508,15:03:41:233,15:03:44:236,right,15:03:44:753,,2018_May_29_1424,59.9369829434,MP-Perception Experiment,xx02w20,
373,vgpdm_dyn(10)-lvm(15)_final(5).mov,False,left,2,training(28).mov,0,54,54,155,,,,,,,,15:03:45:547,15:03:46:271,15:03:49:273,left,15:03:49:774,,2018_May_29_1424,59.9369829434,MP-Perception Experiment,xx02w20,
374,vgpdm_dyn(10)-lvm(20)_final(7).mov,True,left,2,training(32).mov,0,55,55,79,,,,,,,,15:03:50:550,15:03:51:275,15:03:54:293,left,15:03:54:694,,2018_May_29_1424,59.9369829434,MP-Perception Experiment,xx02w20,
375,training(28).mov,False,right,2,tmp_numprim(8)_final(8).mov,0,56,56,19,,,,,,,,15:03:55:488,15:03:56:195,15:03:59:197,right,15:03:59:414,,2018_May_29_1424,59.9369829434,MP-Perception Experiment,xx02w20,
376,training(24).mov,False,right,2,vgpdm_dyn(15)-lvm(30)_final(6).mov,0,57,57,21,,,,,,,,15:04:00:244,15:04:00:932,15:04:03:918,right,15:04:04:201,,2018_May_29_1424,59.9369829434,MP-Perception Experiment,xx02w20,
377,vcgpdm_dyn(20)-lvm(25)_final(5).mov,True,left,2,training(24).mov,0,58,58,99,,,,,,,,15:04:04:978,15:04:05:704,15:04:08:706,left,15:04:09:124,,2018_May_29_1424,59.9369829434,MP-Perception Experiment,xx02w20,
378,vgpdm_dyn(35)-lvm(25)_final(7).mov,True,left,2,training(14).mov,0,59,59,134,,,,,,,,15:04:09:914,15:04:10:626,15:04:13:628,left,15:04:13:995,,2018_May_29_1424,59.9369829434,MP-Perception Experiment,xx02w20,
379,vcgpdm_dyn(20)-lvm(35)_final(5).mov,False,left,2,training(9).mov,0,60,60,113,,,,,,,,15:04:14:776,15:04:15:513,15:04:18:499,left,15:04:19:016,,2018_May_29_1424,59.9369829434,MP-Perception Experiment,xx02w20,
380,vcgpdm_dyn(30)-lvm(10)_final(7).mov,True,left,2,training(39).mov,0,61,61,146,,,,,,,,15:04:19:797,15:04:20:534,15:04:23:520,left,15:04:23:853,,2018_May_29_1424,59.9369829434,MP-Perception Experiment,xx02w20,
381,training(36).mov,True,right,2,tmp_numprim(3)_final(0).mov,0,62,62,128,,,,,,,,15:04:24:620,15:04:25:371,15:04:28:374,right,15:04:28:691,,2018_May_29_1424,59.9369829434,MP-Perception Experiment,xx02w20,
382,training(9).mov,True,right,2,vgpdm_dyn(30)-lvm(20)_final(2).mov,0,63,63,18,,,,,,,,15:04:29:465,15:04:30:193,15:04:33:196,left,15:04:33:562,,2018_May_29_1424,59.9369829434,MP-Perception Experiment,xx02w20,
383,training(1).mov,True,right,2,vcgpdm_dyn(15)-lvm(15)_final(1).mov,0,64,64,44,,,,,,,,15:04:34:365,15:04:35:080,15:04:38:066,left,15:04:38:516,,2018_May_29_1424,59.9369829434,MP-Perception Experiment,xx02w20,
384,training(22).mov,True,right,2,vcgpdm_dyn(30)-lvm(35)_final(5).mov,0,65,65,127,,,,,,,,15:04:39:302,15:04:40:017,15:04:43:020,right,15:04:43:585,,2018_May_29_1424,59.9369829434,MP-Perception Experiment,xx02w20,
385,training(27).mov,True,right,2,dmp_npsi(45)_final(5).mov,0,66,66,46,,,,,,,,15:04:44:371,15:04:45:087,15:04:48:090,right,15:04:48:374,,2018_May_29_1424,59.9369829434,MP-Perception Experiment,xx02w20,
386,vgpdm_dyn(30)-lvm(10)_final(3).mov,True,left,2,training(10).mov,0,67,67,77,,,,,,,,15:04:49:167,15:04:49:874,15:04:52:877,left,15:04:53:227,,2018_May_29_1424,59.9369829434,MP-Perception Experiment,xx02w20,
387,vcgpdm_dyn(15)-lvm(5)_final(1).mov,True,left,2,training(33).mov,0,68,68,48,,,,,,,,15:04:54:012,15:04:54:728,15:04:57:731,left,15:04:58:066,,2018_May_29_1424,59.9369829434,MP-Perception Experiment,xx02w20,
388,vcgpdm_dyn(35)-lvm(5)_final(6).mov,True,left,2,training(40).mov,0,69,69,64,,,,,,,,15:04:58:842,15:04:59:567,15:05:02:571,right,15:05:03:021,,2018_May_29_1424,59.9369829434,MP-Perception Experiment,xx02w20,
389,vcgpdm_dyn(25)-lvm(25)_final(3).mov,False,left,2,training(31).mov,0,70,70,74,,,,,,,,15:05:03:818,15:05:04:522,15:05:07:542,right,15:05:08:125,,2018_May_29_1424,59.9369829434,MP-Perception Experiment,xx02w20,
390,training(24).mov,True,right,2,vgpdm_dyn(30)-lvm(30)_final(1).mov,0,71,71,85,,,,,,,,15:05:08:915,15:05:09:626,15:05:12:629,right,15:05:13:179,,2018_May_29_1424,59.9369829434,MP-Perception Experiment,xx02w20,
391,vgpdm_dyn(20)-lvm(15)_final(2).mov,False,left,2,training(29).mov,0,72,72,31,,,,,,,,15:05:13:964,15:05:14:680,15:05:17:683,right,15:05:18:250,,2018_May_29_1424,59.9369829434,MP-Perception Experiment,xx02w20,
392,training(9).mov,False,right,2,tmp_numprim(7)_final(2).mov,0,73,73,121,,,,,,,,15:05:19:052,15:05:19:752,15:05:22:755,right,15:05:23:389,,2018_May_29_1424,59.9369829434,MP-Perception Experiment,xx02w20,
393,vgpdm_dyn(35)-lvm(25)_final(0).mov,False,left,2,training(0).mov,0,74,74,157,,,,,,,,15:05:24:173,15:05:24:890,15:05:27:893,left,15:05:28:326,,2018_May_29_1424,59.9369829434,MP-Perception Experiment,xx02w20,
394,training(7).mov,True,right,2,tmp_numprim(8)_final(1).mov,0,75,75,141,,,,,,,,15:05:29:140,15:05:29:827,15:05:32:829,right,15:05:33:228,,2018_May_29_1424,59.9369829434,MP-Perception Experiment,xx02w20,
395,training(3).mov,False,right,2,vcgpdm_dyn(5)-lvm(30)_final(8)_bad.mov,0,76,76,154,,,,,,,,15:05:34:032,15:05:34:729,15:05:37:733,right,15:05:38:033,,2018_May_29_1424,59.9369829434,MP-Perception Experiment,xx02w20,
396,vcgpdm_dyn(25)-lvm(30)_final(0).mov,False,left,2,training(19).mov,0,77,77,108,,,,,,,,15:05:38:816,15:05:39:534,15:05:42:537,left,15:05:42:854,,2018_May_29_1424,59.9369829434,MP-Perception Experiment,xx02w20,
397,vcgpdm_dyn(5)-lvm(5)_final(6).mov,False,left,2,training(8).mov,0,78,78,25,,,,,,,,15:05:43:638,15:05:44:355,15:05:47:359,left,15:05:47:826,,2018_May_29_1424,59.9369829434,MP-Perception Experiment,xx02w20,
398,training(4).mov,False,right,2,vgpdm_dyn(30)-lvm(15)_final(2).mov,0,79,79,89,,,,,,,,15:05:48:613,15:05:49:344,15:05:52:329,right,15:05:52:730,,2018_May_29_1424,59.9369829434,MP-Perception Experiment,xx02w20,
399,vgpdm_dyn(25)-lvm(15)_final(8)_out_of_screen.mov,False,left,2,training(37).mov,0,80,80,68,,,,,,,,15:05:53:500,15:05:54:231,15:05:57:235,left,15:05:57:685,,2018_May_29_1424,59.9369829434,MP-Perception Experiment,xx02w20,
400,training(35).mov,False,right,2,vcgpdm_dyn(35)-lvm(20)_final(1).mov,0,81,81,94,,,,,,,,15:05:58:482,15:05:59:186,15:06:02:189,right,15:06:02:622,,2018_May_29_1424,59.9369829434,MP-Perception Experiment,xx02w20,
401,training(18).mov,True,right,2,vgpdm_dyn(15)-lvm(30)_final(3).mov,0,82,82,73,,,,,,,,15:06:03:408,15:06:04:123,15:06:07:126,right,15:06:07:460,,2018_May_29_1424,59.9369829434,MP-Perception Experiment,xx02w20,
402,training(21).mov,False,right,2,vcgpdm_dyn(15)-lvm(25)_final(0).mov,0,83,83,122,,,,,,,,15:06:08:254,15:06:08:961,15:06:11:963,right,15:06:12:298,,2018_May_29_1424,59.9369829434,MP-Perception Experiment,xx02w20,
403,vgpdm_dyn(25)-lvm(5)_final(0).mov,True,left,2,training(7).mov,0,84,84,107,,,,,,,,15:06:13:071,15:06:13:799,15:06:16:801,left,15:06:17:202,,2018_May_29_1424,59.9369829434,MP-Perception Experiment,xx02w20,
404,vcgpdm_dyn(15)-lvm(25)_final(8).mov,True,left,2,training(7).mov,0,85,85,110,,,,,,,,15:06:18:012,15:06:18:703,15:06:21:722,left,15:06:22:139,,2018_May_29_1424,59.9369829434,MP-Perception Experiment,xx02w20,
405,training(14).mov,False,right,2,tmp_numprim(2)_final(7).mov,0,86,86,67,,,,,,,,15:06:22:920,15:06:23:655,15:06:26:641,right,15:06:26:974,,2018_May_29_1424,59.9369829434,MP-Perception Experiment,xx02w20,
406,vgpdm_dyn(25)-lvm(35)_final(1).mov,False,left,2,training(27).mov,0,87,87,105,,,,,,,,15:06:27:752,15:06:28:476,15:06:31:479,right,15:06:31:796,,2018_May_29_1424,59.9369829434,MP-Perception Experiment,xx02w20,
407,vgpdm_dyn(5)-lvm(10)_final(9).mov,False,left,2,training(12).mov,0,88,88,109,,,,,,,,15:06:32:584,15:06:33:297,15:06:36:285,left,15:06:36:685,,2018_May_29_1424,59.9369829434,MP-Perception Experiment,xx02w20,
408,training(5).mov,False,right,2,vcgpdm_dyn(35)-lvm(15)_final(3)_out_of_screen.mov,0,89,89,72,,,,,,,,15:06:37:487,15:06:38:186,15:06:41:189,right,15:06:41:522,,2018_May_29_1424,59.9369829434,MP-Perception Experiment,xx02w20,
409,training(30).mov,True,right,2,vcgpdm_dyn(20)-lvm(10)_final(8).mov,0,90,90,104,,,,,,,,15:06:42:297,15:06:43:023,15:06:46:043,left,15:06:46:393,,2018_May_29_1424,59.9369829434,MP-Perception Experiment,xx02w20,
410,vcgpdm_dyn(10)-lvm(10)_final(7).mov,True,left,2,training(31).mov,0,91,91,90,,,,,,,,15:06:47:181,15:06:47:895,15:06:50:897,left,15:06:51:281,,2018_May_29_1424,59.9369829434,MP-Perception Experiment,xx02w20,
411,training(37).mov,True,right,2,vcgpdm_dyn(20)-lvm(5)_final(9).mov,0,92,92,131,,,,,,,,15:06:52:062,15:06:52:782,15:06:55:785,left,15:06:56:269,,2018_May_29_1424,59.9369829434,MP-Perception Experiment,xx02w20,
412,vgpdm_dyn(10)-lvm(25)_final(3).mov,True,left,2,training(10).mov,0,93,93,87,,,,,,,,15:06:57:064,15:06:57:786,15:07:00:772,left,15:07:01:273,,2018_May_29_1424,59.9369829434,MP-Perception Experiment,xx02w20,
413,training(25).mov,True,right,2,vcgpdm_dyn(25)-lvm(25)_final(5).mov,0,94,94,27,,,,,,,,15:07:02:065,15:07:02:774,15:07:05:794,left,15:07:07:245,,2018_May_29_1424,59.9369829434,MP-Perception Experiment,xx02w20,
414,tmp_numprim(6)_final(2).mov,False,left,2,training(48).mov,0,95,95,3,,,,,,,,15:07:08:025,15:07:08:746,15:07:11:765,left,15:07:12:182,,2018_May_29_1424,59.9369829434,MP-Perception Experiment,xx02w20,
415,training(34).mov,True,right,2,vcgpdm_dyn(25)-lvm(15)_final(0).mov,0,96,96,84,,,,,,,,15:07:12:975,15:07:13:698,15:07:16:684,right,15:07:17:368,,2018_May_29_1424,59.9369829434,MP-Perception Experiment,xx02w20,
416,training(5).mov,True,right,2,tmp_numprim(10)_final(0).mov,0,97,97,123,,,,,,,,15:07:18:152,15:07:18:886,15:07:21:872,left,15:07:22:140,,2018_May_29_1424,59.9369829434,MP-Perception Experiment,xx02w20,
417,vcgpdm_dyn(10)-lvm(35)_final(1).mov,False,left,2,training(40).mov,0,98,98,106,,,,,,,,15:07:22:919,15:07:23:641,15:07:26:628,left,15:07:26:962,,2018_May_29_1424,59.9369829434,MP-Perception Experiment,xx02w20,
418,dmp_npsi(50)_final(5).mov,False,left,2,training(36).mov,0,99,99,36,,,,,,,,15:07:27:740,15:07:28:463,15:07:31:466,left,15:07:31:849,,2018_May_29_1424,59.9369829434,MP-Perception Experiment,xx02w20,
419,vcgpdm_dyn(20)-lvm(10)_final(4).mov,True,left,2,training(26).mov,0,100,100,11,,,,,,,,15:07:32:632,15:07:33:350,15:07:36:370,left,15:07:36:803,,2018_May_29_1424,59.9369829434,MP-Perception Experiment,xx02w20,
420,training(35).mov,True,right,2,dmp_npsi(45)_final(9).mov,0,101,101,24,,,,,,,,15:07:37:604,15:07:38:304,15:07:41:308,right,15:07:41:591,,2018_May_29_1424,59.9369829434,MP-Perception Experiment,xx02w20,
421,training(7).mov,False,right,2,dmp_npsi(25)_final(0).mov,0,102,102,135,,,,,,,,15:07:42:378,15:07:43:093,15:07:46:095,right,15:07:46:996,,2018_May_29_1424,59.9369829434,MP-Perception Experiment,xx02w20,
422,vcgpdm_dyn(25)-lvm(25)_final(2).mov,False,left,2,training(48).mov,0,103,103,116,,,,,,,,15:07:47:789,15:07:48:497,15:07:51:499,left,15:07:51:866,,2018_May_29_1424,59.9369829434,MP-Perception Experiment,xx02w20,
423,training(26).mov,True,right,2,vcgpdm_dyn(15)-lvm(20)_final(7).mov,0,104,104,41,,,,,,,,15:07:52:649,15:07:53:368,15:07:56:370,right,15:07:56:754,,2018_May_29_1424,59.9369829434,MP-Perception Experiment,xx02w20,
424,vgpdm_dyn(20)-lvm(5)_final(5).mov,False,left,2,training(0).mov,0,105,105,4,,,,,,,,15:07:57:537,15:07:58:256,15:08:01:275,right,15:08:01:725,,2018_May_29_1424,59.9369829434,MP-Perception Experiment,xx02w20,
425,training(8).mov,True,right,2,vcgpdm_dyn(15)-lvm(25)_final(7).mov,0,106,106,145,,,,,,,,15:08:02:516,15:08:03:226,15:08:06:227,right,15:08:06:527,,2018_May_29_1424,59.9369829434,MP-Perception Experiment,xx02w20,
426,training(34).mov,True,right,2,vcgpdm_dyn(5)-lvm(20)_final(7).mov,0,107,107,92,,,,,,,,15:08:07:318,15:08:08:029,15:08:11:031,right,15:08:11:315,,2018_May_29_1424,59.9369829434,MP-Perception Experiment,xx02w20,
427,training(39).mov,True,right,2,vgpdm_dyn(10)-lvm(25)_final(8).mov,0,108,108,82,,,,,,,,15:08:12:112,15:08:12:816,15:08:15:821,right,15:08:16:171,,2018_May_29_1424,59.9369829434,MP-Perception Experiment,xx02w20,
428,training(6).mov,False,right,2,vcgpdm_dyn(30)-lvm(15)_final(7).mov,0,109,109,111,,,,,,,,15:08:16:965,15:08:17:672,15:08:20:675,right,15:08:21:059,,2018_May_29_1424,59.9369829434,MP-Perception Experiment,xx02w20,
429,training(40).mov,False,right,2,vgpdm_dyn(30)-lvm(5)_final(5).mov,0,110,110,115,,,,,,,,15:08:21:839,15:08:22:560,15:08:25:579,right,15:08:26:113,,2018_May_29_1424,59.9369829434,MP-Perception Experiment,xx02w20,
430,training(40).mov,True,right,2,dmp_npsi(20)_final(3).mov,0,111,111,91,,,,,,,,15:08:26:900,15:08:27:630,15:08:30:616,right,15:08:31:050,,2018_May_29_1424,59.9369829434,MP-Perception Experiment,xx02w20,
431,training(40).mov,False,right,2,vcgpdm_dyn(10)-lvm(25)_final(5).mov,0,112,112,50,,,,,,,,15:08:31:871,15:08:32:552,15:08:35:555,right,15:08:35:922,,2018_May_29_1424,59.9369829434,MP-Perception Experiment,xx02w20,
432,training(18).mov,False,right,2,vcgpdm_dyn(25)-lvm(20)_final(7).mov,0,113,113,16,,,,,,,,15:08:36:703,15:08:37:423,15:08:40:425,right,15:08:40:809,,2018_May_29_1424,59.9369829434,MP-Perception Experiment,xx02w20,
433,vgpdm_dyn(25)-lvm(30)_final(1).mov,True,left,2,training(20).mov,0,114,114,45,,,,,,,,15:08:41:578,15:08:42:310,15:08:45:329,right,15:08:45:797,,2018_May_29_1424,59.9369829434,MP-Perception Experiment,xx02w20,
434,vcgpdm_dyn(10)-lvm(20)_final(9).mov,False,left,2,training(20).mov,0,115,115,2,,,,,,,,15:08:46:566,15:08:47:297,15:08:50:318,left,15:08:50:768,,2018_May_29_1424,59.9369829434,MP-Perception Experiment,xx02w20,
435,vcgpdm_dyn(5)-lvm(20)_final(2).mov,True,left,2,training(40).mov,0,116,116,150,,,,,,,,15:08:51:541,15:08:52:269,15:08:55:270,left,15:08:55:703,,2018_May_29_1424,59.9369829434,MP-Perception Experiment,xx02w20,
436,dmp_npsi(15)_final(0).mov,False,left,2,training(2).mov,0,117,117,147,,,,,,,,15:08:56:493,15:08:57:221,15:09:00:207,left,15:09:00:557,,2018_May_29_1424,59.9369829434,MP-Perception Experiment,xx02w20,
437,training(11).mov,False,right,2,tmp_numprim(8)_final(8).mov,0,118,118,26,,,,,,,,15:09:01:356,15:09:02:075,15:09:05:061,right,15:09:05:411,,2018_May_29_1424,59.9369829434,MP-Perception Experiment,xx02w20,
438,training(20).mov,True,right,2,vcgpdm_dyn(35)-lvm(20)_final(0).mov,0,119,119,133,,,,,,,,15:09:06:196,15:09:06:914,15:09:09:918,right,15:09:10:368,,2018_May_29_1424,59.9369829434,MP-Perception Experiment,xx02w20,
439,training(14).mov,True,right,2,vgpdm_dyn(30)-lvm(15)_final(7).mov,0,120,120,33,,,,,,,,15:09:11:794,15:09:12:303,15:09:14:857,right,15:09:15:289,,2018_May_29_1424,59.9369829434,MP-Perception Experiment,xx02w20,
440,vcgpdm_dyn(10)-lvm(5)_final(8).mov,False,left,2,training(21).mov,0,121,121,61,,,,,,,,15:09:16:072,15:09:16:806,15:09:19:793,right,15:09:20:276,,2018_May_29_1424,59.9369829434,MP-Perception Experiment,xx02w20,
441,training(15).mov,True,right,2,vcgpdm_dyn(10)-lvm(5)_final(9).mov,0,122,122,86,,,,,,,,15:09:21:052,15:09:21:777,15:09:24:781,right,15:09:25:098,,2018_May_29_1424,59.9369829434,MP-Perception Experiment,xx02w20,
442,training(22).mov,True,right,2,vgpdm_dyn(10)-lvm(10)_final(8).mov,0,123,123,124,,,,,,,,15:09:25:885,15:09:26:599,15:09:29:601,right,15:09:29:968,,2018_May_29_1424,59.9369829434,MP-Perception Experiment,xx02w20,
443,training(19).mov,True,right,2,tmp_numprim(2)_final(1).mov,0,124,124,7,,,,,,,,15:09:30:744,15:09:31:469,15:09:34:472,right,15:09:34:839,,2018_May_29_1424,59.9369829434,MP-Perception Experiment,xx02w20,
444,vgpdm_dyn(35)-lvm(5)_final(9).mov,False,left,2,training(0).mov,0,125,125,93,,,,,,,,15:09:35:613,15:09:36:340,15:09:39:343,right,15:09:39:676,,2018_May_29_1424,59.9369829434,MP-Perception Experiment,xx02w20,
445,training(32).mov,False,right,2,vgpdm_dyn(10)-lvm(35)_final(8).mov,0,126,126,62,,,,,,,,15:09:40:457,15:09:41:194,15:09:44:179,right,15:09:44:613,,2018_May_29_1424,59.9369829434,MP-Perception Experiment,xx02w20,
446,vgpdm_dyn(15)-lvm(5)_final(4).mov,True,left,2,training(31).mov,0,127,127,102,,,,,,,,15:09:45:404,15:09:46:114,15:09:49:116,left,15:09:49:517,,2018_May_29_1424,59.9369829434,MP-Perception Experiment,xx02w20,
447,vcgpdm_dyn(30)-lvm(10)_final(0).mov,True,left,2,training(33).mov,0,128,128,10,,,,,,,,15:09:50:307,15:09:51:018,15:09:54:020,left,15:09:54:704,,2018_May_29_1424,59.9369829434,MP-Perception Experiment,xx02w20,
448,vcgpdm_dyn(25)-lvm(20)_final(6).mov,False,left,2,training(0).mov,0,129,129,23,,,,,,,,15:09:55:486,15:09:56:207,15:09:59:210,left,15:09:59:611,,2018_May_29_1424,59.9369829434,MP-Perception Experiment,xx02w20,
449,vgpdm_dyn(20)-lvm(20)_final(7).mov,False,left,2,training(11).mov,0,130,130,58,,,,,,,,15:10:00:395,15:10:01:112,15:10:04:114,left,15:10:05:032,,2018_May_29_1424,59.9369829434,MP-Perception Experiment,xx02w20,
450,training(36).mov,False,right,2,dmp_npsi(40)_final(0).mov,0,131,131,144,,,,,,,,15:10:05:840,15:10:06:533,15:10:09:535,right,15:10:09:952,,2018_May_29_1424,59.9369829434,MP-Perception Experiment,xx02w20,
451,vgpdm_dyn(15)-lvm(5)_final(5).mov,True,left,2,training(32).mov,0,132,132,28,,,,,,,,15:10:11:830,15:10:11:830,15:10:14:456,right,15:10:14:890,,2018_May_29_1424,59.9369829434,MP-Perception Experiment,xx02w20,
452,training(41).mov,True,right,2,vgpdm_dyn(5)-lvm(15)_final(5).mov,0,133,133,29,,,,,,,,15:10:15:661,15:10:16:391,15:10:19:395,right,15:10:19:728,,2018_May_29_1424,59.9369829434,MP-Perception Experiment,xx02w20,
453,training(38).mov,True,right,2,vcgpdm_dyn(10)-lvm(25)_final(1).mov,0,134,134,117,,,,,,,,15:10:20:520,15:10:21:229,15:10:24:232,right,15:10:24:599,,2018_May_29_1424,59.9369829434,MP-Perception Experiment,xx02w20,
454,training(6).mov,False,right,2,tmp_numprim(7)_final(2).mov,0,135,135,14,,,,,,,,15:10:25:379,15:10:26:100,15:10:29:102,right,15:10:29:469,,2018_May_29_1424,59.9369829434,MP-Perception Experiment,xx02w20,
455,vcgpdm_dyn(20)-lvm(35)_final(0).mov,True,left,2,training(18).mov,0,136,136,39,,,,,,,,15:10:30:261,15:10:30:970,15:10:33:971,right,15:10:34:356,,2018_May_29_1424,59.9369829434,MP-Perception Experiment,xx02w20,
456,vcgpdm_dyn(20)-lvm(20)_final(6).mov,True,left,2,training(40).mov,0,137,137,65,,,,,,,,15:10:35:142,15:10:35:874,15:10:38:859,right,15:10:39:260,,2018_May_29_1424,59.9369829434,MP-Perception Experiment,xx02w20,
457,training(34).mov,True,right,2,vcgpdm_dyn(30)-lvm(10)_final(9).mov,0,138,138,15,,,,,,,,15:10:40:057,15:10:40:761,15:10:43:763,right,15:10:44:080,,2018_May_29_1424,59.9369829434,MP-Perception Experiment,xx02w20,
458,vgpdm_dyn(30)-lvm(35)_final(7).mov,False,left,2,training(35).mov,0,139,139,136,,,,,,,,15:10:44:867,15:10:45:581,15:10:48:586,right,15:10:48:936,,2018_May_29_1424,59.9369829434,MP-Perception Experiment,xx02w20,
459,training(34).mov,True,right,2,vgpdm_dyn(10)-lvm(15)_final(3).mov,0,140,140,5,,,,,,,,15:10:49:720,15:10:50:437,15:10:53:457,right,15:10:53:958,,2018_May_29_1424,59.9369829434,MP-Perception Experiment,xx02w20,
460,training(22).mov,True,right,2,vcgpdm_dyn(15)-lvm(30)_final(9).mov,0,141,141,96,,,,,,,,15:10:54:744,15:10:55:459,15:10:58:461,right,15:10:58:878,,2018_May_29_1424,59.9369829434,MP-Perception Experiment,xx02w20,
461,vgpdm_dyn(10)-lvm(30)_final(5).mov,False,left,2,training(9).mov,0,142,142,37,,,,,,,,15:10:59:647,15:11:00:379,15:11:03:382,left,15:11:03:870,,2018_May_29_1424,59.9369829434,MP-Perception Experiment,xx02w20,
462,vgpdm_dyn(30)-lvm(35)_final(3).mov,False,left,2,training(29).mov,0,143,143,132,,,,,,,,15:11:04:665,15:11:05:383,15:11:08:386,left,15:11:09:588,,2018_May_29_1424,59.9369829434,MP-Perception Experiment,xx02w20,
463,training(2).mov,False,right,2,vgpdm_dyn(25)-lvm(20)_final(2).mov,0,144,144,60,,,,,,,,15:11:10:374,15:11:11:089,15:11:14:108,right,15:11:14:675,,2018_May_29_1424,59.9369829434,MP-Perception Experiment,xx02w20,
464,training(9).mov,False,right,2,vcgpdm_dyn(35)-lvm(10)_final(8).mov,0,145,145,81,,,,,,,,15:11:15:474,15:11:16:177,15:11:19:196,right,15:11:19:596,,2018_May_29_1424,59.9369829434,MP-Perception Experiment,xx02w20,
465,training(6).mov,False,right,2,vcgpdm_dyn(15)-lvm(15)_final(7).mov,0,146,146,6,,,,,,,,15:11:20:378,15:11:21:097,15:11:24:098,right,15:11:24:416,,2018_May_29_1424,59.9369829434,MP-Perception Experiment,xx02w20,
466,vgpdm_dyn(30)-lvm(30)_final(9).mov,False,left,2,training(38).mov,0,147,147,20,,,,,,,,15:11:25:224,15:11:25:933,15:11:28:936,right,15:11:29:236,,2018_May_29_1424,59.9369829434,MP-Perception Experiment,xx02w20,
467,training(38).mov,True,right,2,vcgpdm_dyn(15)-lvm(5)_final(5).mov,0,148,148,70,,,,,,,,15:11:30:025,15:11:30:754,15:11:33:740,left,15:11:34:040,,2018_May_29_1424,59.9369829434,MP-Perception Experiment,xx02w20,
468,training(16).mov,False,right,2,vcgpdm_dyn(20)-lvm(25)_final(9).mov,0,149,149,158,,,,,,,,15:11:34:829,15:11:35:543,15:11:38:529,right,15:11:38:913,,2018_May_29_1424,59.9369829434,MP-Perception Experiment,xx02w20,
469,training(23).mov,False,right,2,vgpdm_dyn(15)-lvm(5)_final(2).mov,0,150,150,112,,,,,,,,15:11:39:699,15:11:40:414,15:11:43:416,right,15:11:44:100,,2018_May_29_1424,59.9369829434,MP-Perception Experiment,xx02w20,
470,training(7).mov,False,right,2,vgpdm_dyn(15)-lvm(15)_final(5).mov,0,151,151,59,,,,,,,,15:11:44:882,15:11:45:619,15:11:48:605,right,15:11:48:972,,2018_May_29_1424,59.9369829434,MP-Perception Experiment,xx02w20,
471,training(20).mov,True,right,2,vcgpdm_dyn(20)-lvm(15)_final(8).mov,0,152,152,17,,,,,,,,15:11:49:748,15:11:50:490,15:11:53:492,right,15:11:53:876,,2018_May_29_1424,59.9369829434,MP-Perception Experiment,xx02w20,
472,vgpdm_dyn(30)-lvm(30)_final(8).mov,False,left,2,training(23).mov,0,153,153,152,,,,,,,,15:11:54:680,15:11:55:377,15:11:58:379,right,15:11:58:830,,2018_May_29_1424,59.9369829434,MP-Perception Experiment,xx02w20,
