trial_number,right,flipped,correct,block,left,trials.thisRepN,trials.thisTrialN,trials.thisN,trials.thisIndex,flipwelcome.keys,flipwelcome.corr,flipwelcome.rt,flippreparations.keys,flippreparations.rt,flipInstructions.keys,flipInstructions.rt,time_at_fixation_cross_onset,time_at_videoonset,time_at_videoend,participant_key_response,time_at_key_response,key_resp_4.keys,date,frameRate,expName,participant,
,,,,,,,,,,space,0,49.6920566321,,,,,,,,,,,2018_May_29_1732,59.9384437645,MP-Perception Experiment,xx03w22,
,,,,,,,,,,,,,space,14.6641116378,,,,,,,,,2018_May_29_1732,59.9384437645,MP-Perception Experiment,xx03w22,
,,,,,,,,,,,,,,,space,11.9768701173,,,,,,,2018_May_29_1732,59.9384437645,MP-Perception Experiment,xx03w22,
1,vcgpdm_dyn(35)-lvm(5)_final(0).mov,True,left,0,training(23).mov,0,0,0,62,,,,,,,,17:34:07:419,17:34:07:419,17:34:10:236,left,17:34:10:370,,2018_May_29_1732,59.9384437645,MP-Perception Experiment,xx03w22,
2,training(35).mov,True,right,0,vcgpdm_dyn(30)-lvm(10)_final(0).mov,0,1,1,141,,,,,,,,17:34:11:160,17:34:11:888,17:34:14:873,right,17:34:16:475,,2018_May_29_1732,59.9384437645,MP-Perception Experiment,xx03w22,
3,training(7).mov,False,right,0,vcgpdm_dyn(15)-lvm(25)_final(9).mov,0,2,2,72,,,,,,,,17:34:17:265,17:34:17:977,17:34:20:979,left,17:34:21:580,,2018_May_29_1732,59.9384437645,MP-Perception Experiment,xx03w22,
4,vcgpdm_dyn(35)-lvm(25)_final(9).mov,False,left,0,training(38).mov,0,3,3,3,,,,,,,,17:34:22:368,17:34:23:098,17:34:26:084,right,17:34:26:651,,2018_May_29_1732,59.9384437645,MP-Perception Experiment,xx03w22,
5,training(20).mov,True,right,0,vcgpdm_dyn(25)-lvm(25)_final(5).mov,0,4,4,143,,,,,,,,17:34:27:431,17:34:28:152,17:34:31:152,left,17:34:31:703,,2018_May_29_1732,59.9384437645,MP-Perception Experiment,xx03w22,
6,tmp_numprim(2)_final(3).mov,True,left,0,training(38).mov,0,5,5,17,,,,,,,,17:34:32:481,17:34:33:204,17:34:36:207,left,17:34:36:808,,2018_May_29_1732,59.9384437645,MP-Perception Experiment,xx03w22,
7,vgpdm_dyn(30)-lvm(15)_final(0).mov,False,left,0,training(10).mov,0,6,6,70,,,,,,,,17:34:37:584,17:34:38:309,17:34:41:297,left,17:34:41:580,,2018_May_29_1732,59.9384437645,MP-Perception Experiment,xx03w22,
8,training(21).mov,True,right,0,vgpdm_dyn(10)-lvm(25)_final(0).mov,0,7,7,68,,,,,,,,17:34:42:369,17:34:43:081,17:34:46:084,left,17:34:47:168,,2018_May_29_1732,59.9384437645,MP-Perception Experiment,xx03w22,
9,dmp_npsi(35)_final(9).mov,True,left,0,training(12).mov,0,8,8,32,,,,,,,,17:34:47:964,17:34:48:669,17:34:51:688,left,17:34:52:841,,2018_May_29_1732,59.9384437645,MP-Perception Experiment,xx03w22,
10,training(10).mov,False,right,0,tmp_numprim(9)_final(3).mov,0,9,9,63,,,,,,,,17:34:53:605,17:34:54:342,17:34:57:344,left,17:34:57:361,,2018_May_29_1732,59.9384437645,MP-Perception Experiment,xx03w22,
11,training(38).mov,False,right,0,vcgpdm_dyn(30)-lvm(20)_final(1).mov,0,10,10,144,,,,,,,,17:34:58:136,17:34:58:862,17:35:01:864,left,17:35:02:915,,2018_May_29_1732,59.9384437645,MP-Perception Experiment,xx03w22,
12,training(10).mov,False,right,0,vgpdm_dyn(5)-lvm(10)_final(1).mov,0,11,11,86,,,,,,,,17:35:03:700,17:35:04:416,17:35:07:419,right,17:35:07:769,,2018_May_29_1732,59.9384437645,MP-Perception Experiment,xx03w22,
13,training(33).mov,False,right,0,vgpdm_dyn(15)-lvm(5)_final(3).mov,0,12,12,146,,,,,,,,17:35:08:555,17:35:09:270,17:35:12:274,right,17:35:12:707,,2018_May_29_1732,59.9384437645,MP-Perception Experiment,xx03w22,
14,vgpdm_dyn(15)-lvm(30)_final(8).mov,True,left,0,training(10).mov,0,13,13,61,,,,,,,,17:35:13:487,17:35:14:225,17:35:17:211,left,17:35:17:562,,2018_May_29_1732,59.9384437645,MP-Perception Experiment,xx03w22,
15,vgpdm_dyn(5)-lvm(10)_final(9).mov,True,left,0,training(29).mov,0,14,14,34,,,,,,,,17:35:18:346,17:35:19:094,17:35:22:080,left,17:35:22:614,,2018_May_29_1732,59.9384437645,MP-Perception Experiment,xx03w22,
16,training(36).mov,True,right,0,vcgpdm_dyn(35)-lvm(5)_final(5).mov,0,15,15,114,,,,,,,,17:35:23:392,17:35:24:115,17:35:27:117,right,17:35:27:469,,2018_May_29_1732,59.9384437645,MP-Perception Experiment,xx03w22,
17,training(25).mov,True,right,0,vgpdm_dyn(25)-lvm(35)_final(4).mov,0,16,16,54,,,,,,,,17:35:28:256,17:35:28:970,17:35:31:957,right,17:35:32:875,,2018_May_29_1732,59.9384437645,MP-Perception Experiment,xx03w22,
18,tmp_numprim(4)_final(3).mov,False,left,0,training(25).mov,0,17,17,26,,,,,,,,17:35:33:652,17:35:34:376,17:35:37:379,left,17:35:37:896,,2018_May_29_1732,59.9384437645,MP-Perception Experiment,xx03w22,
19,training(23).mov,False,right,0,dmp_npsi(35)_final(0).mov,0,18,18,103,,,,,,,,17:35:38:706,17:35:39:397,17:35:42:399,right,17:35:42:816,,2018_May_29_1732,59.9384437645,MP-Perception Experiment,xx03w22,
20,training(12).mov,True,right,0,vgpdm_dyn(30)-lvm(30)_final(4).mov,0,19,19,107,,,,,,,,17:35:43:584,17:35:44:317,17:35:47:321,right,17:35:47:821,,2018_May_29_1732,59.9384437645,MP-Perception Experiment,xx03w22,
21,training(33).mov,True,right,0,dmp_npsi(45)_final(4).mov,0,20,20,136,,,,,,,,17:35:48:593,17:35:49:322,17:35:52:325,left,17:35:52:842,,2018_May_29_1732,59.9384437645,MP-Perception Experiment,xx03w22,
22,training(33).mov,False,right,0,vcgpdm_dyn(35)-lvm(20)_final(0).mov,0,21,21,154,,,,,,,,17:35:53:618,17:35:54:343,17:35:57:346,right,17:35:57:796,,2018_May_29_1732,59.9384437645,MP-Perception Experiment,xx03w22,
23,training(12).mov,False,right,0,vcgpdm_dyn(15)-lvm(35)_final(2).mov,0,22,22,139,,,,,,,,17:35:58:579,17:35:59:314,17:36:02:300,right,17:36:02:834,,2018_May_29_1732,59.9384437645,MP-Perception Experiment,xx03w22,
24,training(8).mov,False,right,0,vgpdm_dyn(35)-lvm(5)_final(2).mov,0,23,23,74,,,,,,,,17:36:03:644,17:36:04:335,17:36:07:355,right,17:36:07:788,,2018_May_29_1732,59.9384437645,MP-Perception Experiment,xx03w22,
25,training(17).mov,False,right,0,vcgpdm_dyn(25)-lvm(10)_final(0).mov,0,24,24,130,,,,,,,,17:36:08:559,17:36:09:304,17:36:12:290,right,17:36:12:807,,2018_May_29_1732,59.9384437645,MP-Perception Experiment,xx03w22,
26,training(7).mov,True,right,0,vgpdm_dyn(10)-lvm(5)_final(0).mov,0,25,25,76,,,,,,,,17:36:13:569,17:36:14:308,17:36:17:311,right,17:36:17:661,,2018_May_29_1732,59.9384437645,MP-Perception Experiment,xx03w22,
27,vgpdm_dyn(10)-lvm(20)_final(2).mov,False,left,0,training(14).mov,0,26,26,46,,,,,,,,17:36:18:441,17:36:19:162,17:36:22:167,left,17:36:22:618,,2018_May_29_1732,59.9384437645,MP-Perception Experiment,xx03w22,
28,vcgpdm_dyn(5)-lvm(15)_final(8).mov,False,left,0,training(40).mov,0,27,27,118,,,,,,,,17:36:23:409,17:36:24:119,17:36:27:121,left,17:36:27:622,,2018_May_29_1732,59.9384437645,MP-Perception Experiment,xx03w22,
29,vgpdm_dyn(5)-lvm(10)_final(9).mov,False,left,0,training(33).mov,0,28,28,15,,,,,,,,17:36:28:391,17:36:29:123,17:36:32:142,left,17:36:32:593,,2018_May_29_1732,59.9384437645,MP-Perception Experiment,xx03w22,
30,training(20).mov,True,right,0,vcgpdm_dyn(15)-lvm(25)_final(2).mov,0,29,29,138,,,,,,,,17:36:33:368,17:36:34:094,17:36:37:113,left,17:36:38:048,,2018_May_29_1732,59.9384437645,MP-Perception Experiment,xx03w22,
31,training(34).mov,True,right,0,vcgpdm_dyn(35)-lvm(10)_final(2).mov,0,30,30,77,,,,,,,,17:36:38:835,17:36:39:566,17:36:42:551,left,17:36:42:985,,2018_May_29_1732,59.9384437645,MP-Perception Experiment,xx03w22,
32,training(13).mov,True,right,0,vcgpdm_dyn(25)-lvm(25)_final(7).mov,0,31,31,121,,,,,,,,17:36:43:765,17:36:44:487,17:36:47:489,left,17:36:47:639,,2018_May_29_1732,59.9384437645,MP-Perception Experiment,xx03w22,
33,training(11).mov,False,right,0,vgpdm_dyn(15)-lvm(15)_final(8).mov,0,32,32,112,,,,,,,,17:36:48:426,17:36:49:140,17:36:52:160,right,17:36:52:627,,2018_May_29_1732,59.9384437645,MP-Perception Experiment,xx03w22,
34,vgpdm_dyn(25)-lvm(10)_final(4)_out_of_screen.mov,True,left,0,training(10).mov,0,33,33,94,,,,,,,,17:36:53:405,17:36:54:144,17:36:57:131,left,17:36:57:315,,2018_May_29_1732,59.9384437645,MP-Perception Experiment,xx03w22,
35,vcgpdm_dyn(5)-lvm(30)_final(5)_bad.mov,True,left,0,training(29).mov,0,34,34,11,,,,,,,,17:36:58:100,17:36:58:831,17:37:01:816,left,17:37:02:150,,2018_May_29_1732,59.9384437645,MP-Perception Experiment,xx03w22,
36,tmp_numprim(3)_final(0).mov,True,left,0,training(24).mov,0,35,35,8,,,,,,,,17:37:02:924,17:37:03:651,17:37:06:654,left,17:37:07:071,,2018_May_29_1732,59.9384437645,MP-Perception Experiment,xx03w22,
37,training(39).mov,False,right,0,vcgpdm_dyn(25)-lvm(5)_final(5).mov,0,36,36,52,,,,,,,,17:37:07:844,17:37:08:572,17:37:11:559,right,17:37:12:010,,2018_May_29_1732,59.9384437645,MP-Perception Experiment,xx03w22,
38,training(1).mov,False,right,0,tmp_numprim(9)_final(5).mov,0,37,37,44,,,,,,,,17:37:12:802,17:37:13:529,17:37:16:531,right,17:37:17:132,,2018_May_29_1732,59.9384437645,MP-Perception Experiment,xx03w22,
39,training(6).mov,False,right,0,vcgpdm_dyn(30)-lvm(5)_final(7).mov,0,38,38,101,,,,,,,,17:37:17:913,17:37:18:633,17:37:21:635,right,17:37:22:086,,2018_May_29_1732,59.9384437645,MP-Perception Experiment,xx03w22,
40,training(9).mov,False,right,0,vcgpdm_dyn(20)-lvm(5)_final(6).mov,0,39,39,119,,,,,,,,17:37:22:865,17:37:23:587,17:37:26:606,right,17:37:27:023,,2018_May_29_1732,59.9384437645,MP-Perception Experiment,xx03w22,
41,training(21).mov,False,right,0,vcgpdm_dyn(25)-lvm(35)_final(1).mov,0,40,40,122,,,,,,,,17:37:27:810,17:37:28:524,17:37:31:528,left,17:37:32:028,,2018_May_29_1732,59.9384437645,MP-Perception Experiment,xx03w22,
42,dmp_npsi(45)_final(5).mov,True,left,0,training(24).mov,0,41,41,116,,,,,,,,17:37:32:815,17:37:33:529,17:37:36:548,left,17:37:37:115,,2018_May_29_1732,59.9384437645,MP-Perception Experiment,xx03w22,
43,training(22).mov,False,right,0,vgpdm_dyn(30)-lvm(25)_final(9).mov,0,42,42,97,,,,,,,,17:37:37:879,17:37:38:616,17:37:41:636,right,17:37:42:119,,2018_May_29_1732,59.9384437645,MP-Perception Experiment,xx03w22,
44,vgpdm_dyn(35)-lvm(25)_final(1).mov,False,left,0,training(31).mov,0,43,43,5,,,,,,,,17:37:42:903,17:37:43:620,17:37:46:623,right,17:37:47:040,,2018_May_29_1732,59.9384437645,MP-Perception Experiment,xx03w22,
45,tmp_numprim(8)_final(0).mov,False,left,0,training(34).mov,0,44,44,131,,,,,,,,17:37:47:822,17:37:48:542,17:37:51:543,right,17:37:51:843,,2018_May_29_1732,59.9384437645,MP-Perception Experiment,xx03w22,
46,vgpdm_dyn(20)-lvm(35)_final(3).mov,False,left,0,training(17).mov,0,45,45,51,,,,,,,,17:37:52:612,17:37:53:344,17:37:56:347,left,17:37:56:747,,2018_May_29_1732,59.9384437645,MP-Perception Experiment,xx03w22,
47,training(36).mov,True,right,0,vgpdm_dyn(25)-lvm(35)_final(6).mov,0,46,46,40,,,,,,,,17:37:57:474,17:37:58:248,17:38:01:251,right,17:38:01:751,,2018_May_29_1732,59.9384437645,MP-Perception Experiment,xx03w22,
48,vgpdm_dyn(10)-lvm(15)_final(8).mov,True,left,0,training(26).mov,0,47,47,59,,,,,,,,17:38:02:563,17:38:03:254,17:38:06:241,left,17:38:06:691,,2018_May_29_1732,59.9384437645,MP-Perception Experiment,xx03w22,
49,training(22).mov,True,right,0,dmp_npsi(20)_final(8).mov,0,48,48,0,,,,,,,,17:38:07:468,17:38:08:209,17:38:11:195,right,17:38:11:579,,2018_May_29_1732,59.9384437645,MP-Perception Experiment,xx03w22,
50,training(6).mov,True,right,0,vgpdm_dyn(5)-lvm(30)_final(4).mov,0,49,49,75,,,,,,,,17:38:12:373,17:38:13:080,17:38:16:082,right,17:38:16:499,,2018_May_29_1732,59.9384437645,MP-Perception Experiment,xx03w22,
51,vgpdm_dyn(10)-lvm(20)_final(7).mov,False,left,0,training(33).mov,0,50,50,6,,,,,,,,17:38:17:266,17:38:18:000,17:38:21:003,left,17:38:21:454,,2018_May_29_1732,59.9384437645,MP-Perception Experiment,xx03w22,
52,training(28).mov,False,right,0,vcgpdm_dyn(30)-lvm(25)_final(3).mov,0,51,51,151,,,,,,,,17:38:22:239,17:38:22:972,17:38:25:958,left,17:38:26:358,,2018_May_29_1732,59.9384437645,MP-Perception Experiment,xx03w22,
53,vgpdm_dyn(20)-lvm(15)_final(7).mov,False,left,0,training(19).mov,0,52,52,106,,,,,,,,17:38:27:147,17:38:27:859,17:38:30:862,left,17:38:31:145,,2018_May_29_1732,59.9384437645,MP-Perception Experiment,xx03w22,
54,vcgpdm_dyn(30)-lvm(5)_final(6).mov,False,left,0,training(27).mov,0,53,53,93,,,,,,,,17:38:31:920,17:38:32:646,17:38:35:666,right,17:38:36:016,,2018_May_29_1732,59.9384437645,MP-Perception Experiment,xx03w22,
55,vcgpdm_dyn(20)-lvm(30)_final(2).mov,False,left,0,training(22).mov,0,54,54,142,,,,,,,,17:38:36:794,17:38:37:517,17:38:40:519,right,17:38:41:320,,2018_May_29_1732,59.9384437645,MP-Perception Experiment,xx03w22,
56,training(22).mov,False,right,0,vcgpdm_dyn(30)-lvm(25)_final(7).mov,0,55,55,80,,,,,,,,17:38:42:090,17:38:42:821,17:38:45:823,left,17:38:46:123,,2018_May_29_1732,59.9384437645,MP-Perception Experiment,xx03w22,
57,training(7).mov,True,right,0,vgpdm_dyn(25)-lvm(20)_final(0).mov,0,56,56,24,,,,,,,,17:38:46:897,17:38:47:624,17:38:50:612,right,17:38:50:962,,2018_May_29_1732,59.9384437645,MP-Perception Experiment,xx03w22,
58,training(39).mov,False,right,0,vcgpdm_dyn(25)-lvm(35)_final(8).mov,0,57,57,96,,,,,,,,17:38:52:212,17:38:52:730,17:38:55:483,right,17:38:55:883,,2018_May_29_1732,59.9384437645,MP-Perception Experiment,xx03w22,
59,training(14).mov,False,right,0,vgpdm_dyn(10)-lvm(25)_final(1).mov,0,58,58,37,,,,,,,,17:38:56:678,17:38:57:385,17:39:00:404,left,17:39:00:754,,2018_May_29_1732,59.9384437645,MP-Perception Experiment,xx03w22,
60,training(17).mov,True,right,0,vcgpdm_dyn(25)-lvm(25)_final(4).mov,0,59,59,125,,,,,,,,17:39:01:555,17:39:02:256,17:39:05:258,left,17:39:05:592,,2018_May_29_1732,59.9384437645,MP-Perception Experiment,xx03w22,
61,vcgpdm_dyn(10)-lvm(30)_final(6).mov,False,left,0,training(39).mov,0,60,60,55,,,,,,,,17:39:06:399,17:39:07:093,17:39:10:112,left,17:39:10:379,,2018_May_29_1732,59.9384437645,MP-Perception Experiment,xx03w22,
62,dmp_npsi(25)_final(7).mov,True,left,0,training(18).mov,0,61,61,65,,,,,,,,17:39:11:184,17:39:11:880,17:39:14:883,left,17:39:15:184,,2018_May_29_1732,59.9384437645,MP-Perception Experiment,xx03w22,
63,training(0).mov,False,right,0,tmp_numprim(5)_final(4).mov,0,62,62,13,,,,,,,,17:39:15:967,17:39:16:702,17:39:19:688,right,17:39:20:021,,2018_May_29_1732,59.9384437645,MP-Perception Experiment,xx03w22,
64,training(14).mov,False,right,0,vcgpdm_dyn(30)-lvm(30)_final(9).mov,0,63,63,2,,,,,,,,17:39:20:798,17:39:21:539,17:39:24:525,right,17:39:24:825,,2018_May_29_1732,59.9384437645,MP-Perception Experiment,xx03w22,
65,training(20).mov,False,right,0,tmp_numprim(2)_final(1).mov,0,64,64,28,,,,,,,,17:39:25:612,17:39:26:343,17:39:29:327,left,17:39:29:627,,2018_May_29_1732,59.9384437645,MP-Perception Experiment,xx03w22,
66,vcgpdm_dyn(20)-lvm(10)_final(6).mov,False,left,0,training(37).mov,0,65,65,39,,,,,,,,17:39:30:419,17:39:31:128,17:39:34:132,right,17:39:34:465,,2018_May_29_1732,59.9384437645,MP-Perception Experiment,xx03w22,
67,vcgpdm_dyn(5)-lvm(20)_final(5).mov,True,left,0,training(31).mov,0,66,66,126,,,,,,,,17:39:35:275,17:39:35:967,17:39:38:969,left,17:39:39:453,,2018_May_29_1732,59.9384437645,MP-Perception Experiment,xx03w22,
68,training(2).mov,True,right,0,tmp_numprim(4)_final(8).mov,0,67,67,31,,,,,,,,17:39:40:233,17:39:40:956,17:39:43:958,right,17:39:44:475,,2018_May_29_1732,59.9384437645,MP-Perception Experiment,xx03w22,
69,training(21).mov,False,right,0,vgpdm_dyn(30)-lvm(5)_final(4).mov,0,68,68,148,,,,,,,,17:39:45:235,17:39:45:976,17:39:48:979,right,17:39:49:764,,2018_May_29_1732,59.9384437645,MP-Perception Experiment,xx03w22,
70,dmp_npsi(50)_final(4).mov,False,left,0,training(8).mov,0,69,69,90,,,,,,,,17:39:50:545,17:39:51:265,17:39:54:267,left,17:39:54:768,,2018_May_29_1732,59.9384437645,MP-Perception Experiment,xx03w22,
71,training(33).mov,True,right,0,vcgpdm_dyn(30)-lvm(5)_final(4).mov,0,70,70,132,,,,,,,,17:39:55:559,17:39:56:269,17:39:59:271,right,17:39:59:739,,2018_May_29_1732,59.9384437645,MP-Perception Experiment,xx03w22,
72,vcgpdm_dyn(20)-lvm(35)_final(4).mov,True,left,0,training(30).mov,0,71,71,27,,,,,,,,17:40:00:520,17:40:01:240,17:40:04:242,left,17:40:04:826,,2018_May_29_1732,59.9384437645,MP-Perception Experiment,xx03w22,
73,training(36).mov,False,right,0,vcgpdm_dyn(30)-lvm(30)_final(3).mov,0,72,72,36,,,,,,,,17:40:05:619,17:40:06:327,17:40:09:347,right,17:40:09:781,,2018_May_29_1732,59.9384437645,MP-Perception Experiment,xx03w22,
74,training(35).mov,False,right,0,vgpdm_dyn(15)-lvm(35)_final(1).mov,0,73,73,79,,,,,,,,17:40:10:541,17:40:11:299,17:40:14:284,left,17:40:14:768,,2018_May_29_1732,59.9384437645,MP-Perception Experiment,xx03w22,
75,vgpdm_dyn(10)-lvm(15)_final(2).mov,True,left,0,training(22).mov,0,74,74,82,,,,,,,,17:40:15:554,17:40:16:269,17:40:19:270,left,17:40:19:937,,2018_May_29_1732,59.9384437645,MP-Perception Experiment,xx03w22,
76,vgpdm_dyn(15)-lvm(30)_final(9).mov,False,left,0,training(39).mov,0,75,75,120,,,,,,,,17:40:20:709,17:40:21:438,17:40:24:441,left,17:40:24:809,,2018_May_29_1732,59.9384437645,MP-Perception Experiment,xx03w22,
77,vgpdm_dyn(30)-lvm(20)_final(7).mov,True,left,0,training(5).mov,0,76,76,81,,,,,,,,17:40:25:592,17:40:26:327,17:40:29:313,left,17:40:29:629,,2018_May_29_1732,59.9384437645,MP-Perception Experiment,xx03w22,
78,vcgpdm_dyn(15)-lvm(30)_final(6).mov,True,left,0,training(10).mov,0,77,77,115,,,,,,,,17:40:30:430,17:40:31:131,17:40:34:118,right,17:40:34:702,,2018_May_29_1732,59.9384437645,MP-Perception Experiment,xx03w22,
79,vgpdm_dyn(15)-lvm(5)_final(6).mov,False,left,0,training(16).mov,0,78,78,85,,,,,,,,17:40:35:487,17:40:36:203,17:40:39:206,left,17:40:39:773,,2018_May_29_1732,59.9384437645,MP-Perception Experiment,xx03w22,
80,vcgpdm_dyn(35)-lvm(25)_final(1).mov,False,left,0,training(2).mov,0,79,79,104,,,,,,,,17:40:40:542,17:40:41:274,17:40:44:278,right,17:40:44:644,,2018_May_29_1732,59.9384437645,MP-Perception Experiment,xx03w22,
81,tmp_numprim(5)_final(7).mov,True,left,0,training(36).mov,0,80,80,69,,,,,,,,17:40:45:428,17:40:46:145,17:40:49:148,left,17:40:49:498,,2018_May_29_1732,59.9384437645,MP-Perception Experiment,xx03w22,
82,dmp_npsi(20)_final(0).mov,False,left,0,training(14).mov,0,81,81,20,,,,,,,,17:40:50:281,17:40:50:999,17:40:54:002,left,17:40:54:369,,2018_May_29_1732,59.9384437645,MP-Perception Experiment,xx03w22,
83,training(20).mov,False,right,0,vcgpdm_dyn(35)-lvm(20)_final(1).mov,0,82,82,4,,,,,,,,17:40:55:142,17:40:55:870,17:40:58:873,right,17:40:59:206,,2018_May_29_1732,59.9384437645,MP-Perception Experiment,xx03w22,
84,training(4).mov,False,right,0,vcgpdm_dyn(20)-lvm(35)_final(9).mov,0,83,83,7,,,,,,,,17:41:00:000,17:41:00:708,17:41:03:727,right,17:41:04:061,,2018_May_29_1732,59.9384437645,MP-Perception Experiment,xx03w22,
85,training(35).mov,True,right,0,vgpdm_dyn(15)-lvm(25)_final(0).mov,0,84,84,150,,,,,,,,17:41:04:843,17:41:05:562,17:41:08:565,right,17:41:09:380,,2018_May_29_1732,59.9384437645,MP-Perception Experiment,xx03w22,
86,vcgpdm_dyn(15)-lvm(15)_final(2).mov,True,left,0,training(30).mov,0,85,85,14,,,,,,,,17:41:10:153,17:41:10:881,17:41:13:884,right,17:41:14:067,,2018_May_29_1732,59.9384437645,MP-Perception Experiment,xx03w22,
87,training(39).mov,False,right,0,vgpdm_dyn(35)-lvm(15)_final(0)_out_of_screen.mov,0,86,86,87,,,,,,,,17:41:14:841,17:41:15:568,17:41:18:572,right,17:41:18:839,,2018_May_29_1732,59.9384437645,MP-Perception Experiment,xx03w22,
88,vcgpdm_dyn(5)-lvm(20)_final(1).mov,False,left,0,training(7).mov,0,87,87,60,,,,,,,,17:41:19:630,17:41:20:357,17:41:23:328,left,17:41:23:695,,2018_May_29_1732,59.9384437645,MP-Perception Experiment,xx03w22,
89,training(11).mov,False,right,0,vgpdm_dyn(15)-lvm(35)_final(8).mov,0,88,88,53,,,,,,,,17:41:24:485,17:41:25:196,17:41:28:198,left,17:41:28:632,,2018_May_29_1732,59.9384437645,MP-Perception Experiment,xx03w22,
90,vgpdm_dyn(5)-lvm(30)_final(8).mov,False,left,0,training(9).mov,0,89,89,71,,,,,,,,17:41:29:428,17:41:30:133,17:41:33:136,left,17:41:33:402,,2018_May_29_1732,59.9384437645,MP-Perception Experiment,xx03w22,
91,vgpdm_dyn(25)-lvm(5)_final(4).mov,True,left,0,training(19).mov,0,90,90,57,,,,,,,,17:41:34:185,17:41:34:905,17:41:37:924,right,17:41:38:641,,2018_May_29_1732,59.9384437645,MP-Perception Experiment,xx03w22,
92,tmp_numprim(9)_final(6).mov,False,left,0,training(38).mov,0,91,91,43,,,,,,,,17:41:39:431,17:41:40:142,17:41:43:145,right,17:41:44:196,,2018_May_29_1732,59.9384437645,MP-Perception Experiment,xx03w22,
93,training(31).mov,True,right,0,vcgpdm_dyn(20)-lvm(5)_final(0).mov,0,92,92,16,,,,,,,,17:41:44:981,17:41:45:713,17:41:48:716,right,17:41:49:316,,2018_May_29_1732,59.9384437645,MP-Perception Experiment,xx03w22,
94,training(39).mov,True,right,0,map_gpdm_final(9).mov,0,93,93,23,,,,,,,,17:41:50:097,17:41:50:817,17:41:53:821,right,17:41:54:205,,2018_May_29_1732,59.9384437645,MP-Perception Experiment,xx03w22,
95,tmp_numprim(8)_final(1).mov,False,left,0,training(2).mov,0,94,94,100,,,,,,,,17:41:54:983,17:41:55:706,17:41:58:706,right,17:41:59:023,,2018_May_29_1732,59.9384437645,MP-Perception Experiment,xx03w22,
96,vgpdm_dyn(20)-lvm(15)_final(7).mov,True,left,0,training(5).mov,0,95,95,129,,,,,,,,17:41:59:812,17:42:00:525,17:42:03:527,left,17:42:03:727,,2018_May_29_1732,59.9384437645,MP-Perception Experiment,xx03w22,
97,vcgpdm_dyn(20)-lvm(10)_final(8).mov,True,left,0,training(38).mov,0,96,96,22,,,,,,,,17:42:04:513,17:42:05:228,17:42:08:231,right,17:42:08:498,,2018_May_29_1732,59.9384437645,MP-Perception Experiment,xx03w22,
98,vgpdm_dyn(5)-lvm(10)_final(2).mov,True,left,0,training(10).mov,0,97,97,89,,,,,,,,17:42:09:262,17:42:10:000,17:42:13:004,left,17:42:13:354,,2018_May_29_1732,59.9384437645,MP-Perception Experiment,xx03w22,
99,training(35).mov,True,right,0,vcgpdm_dyn(35)-lvm(20)_final(5).mov,0,98,98,157,,,,,,,,17:42:14:130,17:42:14:855,17:42:17:875,left,17:42:18:208,,2018_May_29_1732,59.9384437645,MP-Perception Experiment,xx03w22,
100,training(37).mov,False,right,0,vgpdm_dyn(25)-lvm(35)_final(5).mov,0,99,99,92,,,,,,,,17:42:18:968,17:42:19:709,17:42:22:712,right,17:42:23:096,,2018_May_29_1732,59.9384437645,MP-Perception Experiment,xx03w22,
101,vgpdm_dyn(35)-lvm(10)_final(8).mov,False,left,0,training(16).mov,0,100,100,110,,,,,,,,17:42:23:868,17:42:24:613,17:42:27:600,right,17:42:27:884,,2018_May_29_1732,59.9384437645,MP-Perception Experiment,xx03w22,
102,training(39).mov,True,right,0,vcgpdm_dyn(10)-lvm(30)_final(8).mov,0,101,101,9,,,,,,,,17:42:28:654,17:42:29:385,17:42:32:388,left,17:42:33:071,,2018_May_29_1732,59.9384437645,MP-Perception Experiment,xx03w22,
103,vgpdm_dyn(30)-lvm(20)_final(4).mov,False,left,0,training(31).mov,0,102,102,134,,,,,,,,17:42:33:852,17:42:34:589,17:42:37:575,left,17:42:37:909,,2018_May_29_1732,59.9384437645,MP-Perception Experiment,xx03w22,
104,training(12).mov,False,right,0,vcgpdm_dyn(5)-lvm(10)_final(9).mov,0,103,103,12,,,,,,,,17:42:38:682,17:42:39:410,17:42:42:412,right,17:42:42:896,,2018_May_29_1732,59.9384437645,MP-Perception Experiment,xx03w22,
105,training(48).mov,True,right,0,vcgpdm_dyn(5)-lvm(25)_final(8).mov,0,104,104,124,,,,,,,,17:42:43:669,17:42:44:398,17:42:47:400,right,17:42:47:868,,2018_May_29_1732,59.9384437645,MP-Perception Experiment,xx03w22,
106,training(37).mov,True,right,0,vcgpdm_dyn(5)-lvm(5)_final(3).mov,0,105,105,108,,,,,,,,17:42:48:645,17:42:49:384,17:42:52:369,right,17:42:52:737,,2018_May_29_1732,59.9384437645,MP-Perception Experiment,xx03w22,
107,vgpdm_dyn(5)-lvm(15)_final(5).mov,True,left,0,training(15).mov,0,106,106,1,,,,,,,,17:42:53:556,17:42:54:238,17:42:57:240,left,17:42:57:590,,2018_May_29_1732,59.9384437645,MP-Perception Experiment,xx03w22,
108,training(29).mov,True,right,0,tmp_numprim(6)_final(1).mov,0,107,107,155,,,,,,,,17:42:58:365,17:42:59:108,17:43:02:080,left,17:43:02:280,,2018_May_29_1732,59.9384437645,MP-Perception Experiment,xx03w22,
109,vgpdm_dyn(5)-lvm(10)_final(3).mov,False,left,0,training(38).mov,0,108,108,84,,,,,,,,17:43:03:065,17:43:03:781,17:43:06:784,left,17:43:07:385,,2018_May_29_1732,59.9384437645,MP-Perception Experiment,xx03w22,
110,training(38).mov,False,right,0,vcgpdm_dyn(25)-lvm(20)_final(6).mov,0,109,109,33,,,,,,,,17:43:08:182,17:43:08:885,17:43:11:888,right,17:43:12:238,,2018_May_29_1732,59.9384437645,MP-Perception Experiment,xx03w22,
111,training(10).mov,False,right,0,vgpdm_dyn(25)-lvm(20)_final(5).mov,0,110,110,127,,,,,,,,17:43:13:017,17:43:13:756,17:43:16:742,right,17:43:17:176,,2018_May_29_1732,59.9384437645,MP-Perception Experiment,xx03w22,
112,training(48).mov,False,right,0,dmp_npsi(35)_final(7).mov,0,111,111,123,,,,,,,,17:43:17:951,17:43:18:677,17:43:21:680,right,17:43:22:031,,2018_May_29_1732,59.9384437645,MP-Perception Experiment,xx03w22,
113,vgpdm_dyn(20)-lvm(15)_final(2).mov,True,left,0,training(40).mov,0,112,112,135,,,,,,,,17:43:22:813,17:43:23:532,17:43:26:534,left,17:43:26:901,,2018_May_29_1732,59.9384437645,MP-Perception Experiment,xx03w22,
114,vcgpdm_dyn(20)-lvm(15)_final(7).mov,True,left,0,training(38).mov,0,113,113,35,,,,,,,,17:43:27:679,17:43:28:402,17:43:31:405,left,17:43:31:722,,2018_May_29_1732,59.9384437645,MP-Perception Experiment,xx03w22,
115,training(28).mov,True,right,0,dmp_npsi(50)_final(4).mov,0,114,114,91,,,,,,,,17:43:32:492,17:43:33:223,17:43:36:225,right,17:43:36:576,,2018_May_29_1732,59.9384437645,MP-Perception Experiment,xx03w22,
116,vgpdm_dyn(35)-lvm(30)_final(4).mov,True,left,0,training(40).mov,0,115,115,10,,,,,,,,17:43:37:376,17:43:38:078,17:43:41:078,left,17:43:41:379,,2018_May_29_1732,59.9384437645,MP-Perception Experiment,xx03w22,
117,training(41).mov,False,right,0,vgpdm_dyn(35)-lvm(5)_final(8).mov,0,116,116,147,,,,,,,,17:43:42:147,17:43:42:880,17:43:45:882,right,17:43:46:149,,2018_May_29_1732,59.9384437645,MP-Perception Experiment,xx03w22,
118,training(48).mov,False,right,0,vcgpdm_dyn(35)-lvm(30)_final(0).mov,0,117,117,25,,,,,,,,17:43:46:922,17:43:47:650,17:43:50:653,right,17:43:51:389,,2018_May_29_1732,59.9384437645,MP-Perception Experiment,xx03w22,
119,vgpdm_dyn(5)-lvm(20)_final(0).mov,True,left,0,training(1).mov,0,118,118,95,,,,,,,,17:43:52:170,17:43:52:890,17:43:55:893,left,17:43:56:193,,2018_May_29_1732,59.9384437645,MP-Perception Experiment,xx03w22,
120,training(8).mov,False,right,0,vcgpdm_dyn(25)-lvm(30)_final(3).mov,0,119,119,45,,,,,,,,17:43:56:977,17:43:57:694,17:44:00:697,right,17:44:01:214,,2018_May_29_1732,59.9384437645,MP-Perception Experiment,xx03w22,
121,vcgpdm_dyn(10)-lvm(35)_final(8).mov,False,left,0,training(41).mov,0,120,120,113,,,,,,,,17:44:01:984,17:44:02:732,17:44:05:718,left,17:44:06:001,,2018_May_29_1732,59.9384437645,MP-Perception Experiment,xx03w22,
122,vgpdm_dyn(30)-lvm(30)_final(7).mov,False,left,0,training(5).mov,0,121,121,99,,,,,,,,17:44:06:784,17:44:07:502,17:44:10:505,right,17:44:10:972,,2018_May_29_1732,59.9384437645,MP-Perception Experiment,xx03w22,
123,training(8).mov,True,right,0,vgpdm_dyn(25)-lvm(15)_final(6)_out_of_screen.mov,0,122,122,47,,,,,,,,17:44:11:744,17:44:12:474,17:44:15:477,right,17:44:16:311,,2018_May_29_1732,59.9384437645,MP-Perception Experiment,xx03w22,
124,training(31).mov,True,right,0,vcgpdm_dyn(35)-lvm(35)_final(1)_bad.mov,0,123,123,58,,,,,,,,17:44:17:087,17:44:17:812,17:44:20:814,right,17:44:22:082,,2018_May_29_1732,59.9384437645,MP-Perception Experiment,xx03w22,
125,vcgpdm_dyn(5)-lvm(15)_final(7).mov,False,left,0,training(9).mov,0,124,124,102,,,,,,,,17:44:22:857,17:44:23:600,17:44:26:602,left,17:44:27:019,,2018_May_29_1732,59.9384437645,MP-Perception Experiment,xx03w22,
126,map_cgpdm_final(3).mov,False,left,0,training(22).mov,0,125,125,30,,,,,,,,17:44:27:798,17:44:28:520,17:44:31:522,left,17:44:31:973,,2018_May_29_1732,59.9384437645,MP-Perception Experiment,xx03w22,
127,training(11).mov,True,right,0,dmp_npsi(50)_final(7).mov,0,126,126,38,,,,,,,,17:44:32:755,17:44:33:474,17:44:36:476,left,17:44:36:877,,2018_May_29_1732,59.9384437645,MP-Perception Experiment,xx03w22,
128,training(4).mov,False,right,0,vcgpdm_dyn(15)-lvm(15)_final(9).mov,0,127,127,98,,,,,,,,17:44:37:659,17:44:38:378,17:44:41:365,right,17:44:41:682,,2018_May_29_1732,59.9384437645,MP-Perception Experiment,xx03w22,
129,vcgpdm_dyn(30)-lvm(20)_final(3).mov,False,left,0,training(25).mov,0,128,128,140,,,,,,,,17:44:42:469,17:44:43:183,17:44:46:202,left,17:44:46:570,,2018_May_29_1732,59.9384437645,MP-Perception Experiment,xx03w22,
130,training(36).mov,False,right,0,tmp_numprim(10)_final(1).mov,0,129,129,152,,,,,,,,17:44:47:348,17:44:48:072,17:44:51:074,right,17:44:51:608,,2018_May_29_1732,59.9384437645,MP-Perception Experiment,xx03w22,
131,training(25).mov,False,right,0,vgpdm_dyn(10)-lvm(5)_final(3).mov,0,130,130,49,,,,,,,,17:44:52:407,17:44:53:109,17:44:56:111,right,17:44:56:845,,2018_May_29_1732,59.9384437645,MP-Perception Experiment,xx03w22,
132,vcgpdm_dyn(5)-lvm(10)_final(1).mov,False,left,0,training(41).mov,0,131,131,42,,,,,,,,17:44:57:628,17:44:58:346,17:45:01:366,left,17:45:02:066,,2018_May_29_1732,59.9384437645,MP-Perception Experiment,xx03w22,
133,training(33).mov,False,right,0,vcgpdm_dyn(30)-lvm(30)_final(7).mov,0,132,132,18,,,,,,,,17:45:02:849,17:45:03:567,17:45:06:588,right,17:45:07:055,,2018_May_29_1732,59.9384437645,MP-Perception Experiment,xx03w22,
134,training(29).mov,True,right,0,vcgpdm_dyn(10)-lvm(5)_final(8).mov,0,133,133,149,,,,,,,,17:45:07:837,17:45:08:556,17:45:11:558,right,17:45:12:843,,2018_May_29_1732,59.9384437645,MP-Perception Experiment,xx03w22,
135,training(0).mov,False,right,0,tmp_numprim(8)_final(7).mov,0,134,134,133,,,,,,,,17:45:13:632,17:45:14:360,17:45:17:363,right,17:45:18:431,,2018_May_29_1732,59.9384437645,MP-Perception Experiment,xx03w22,
136,training(19).mov,True,right,0,vcgpdm_dyn(15)-lvm(5)_final(5).mov,0,135,135,117,,,,,,,,17:45:19:208,17:45:19:946,17:45:22:933,right,17:45:23:300,,2018_May_29_1732,59.9384437645,MP-Perception Experiment,xx03w22,
137,training(29).mov,True,right,0,dmp_npsi(15)_final(8).mov,0,136,136,29,,,,,,,,17:45:24:080,17:45:24:818,17:45:27:804,right,17:45:28:254,,2018_May_29_1732,59.9384437645,MP-Perception Experiment,xx03w22,
138,training(28).mov,False,right,0,vgpdm_dyn(20)-lvm(25)_final(9).mov,0,137,137,128,,,,,,,,17:45:29:030,17:45:29:755,17:45:32:743,right,17:45:33:243,,2018_May_29_1732,59.9384437645,MP-Perception Experiment,xx03w22,
139,vcgpdm_dyn(30)-lvm(20)_final(9).mov,False,left,0,training(31).mov,0,138,138,66,,,,,,,,17:45:34:037,17:45:34:745,17:45:37:747,left,17:45:39:015,,2018_May_29_1732,59.9384437645,MP-Perception Experiment,xx03w22,
140,training(17).mov,True,right,0,vcgpdm_dyn(15)-lvm(30)_final(2).mov,0,139,139,156,,,,,,,,17:45:39:795,17:45:40:517,17:45:43:536,right,17:45:44:070,,2018_May_29_1732,59.9384437645,MP-Perception Experiment,xx03w22,
141,training(8).mov,False,right,0,vcgpdm_dyn(10)-lvm(20)_final(2).mov,0,140,140,153,,,,,,,,17:45:44:856,17:45:45:571,17:45:48:574,right,17:45:49:291,,2018_May_29_1732,59.9384437645,MP-Perception Experiment,xx03w22,
142,training(27).mov,True,right,0,vgpdm_dyn(30)-lvm(35)_final(8).mov,0,141,141,41,,,,,,,,17:45:50:066,17:45:50:792,17:45:53:794,left,17:45:54:195,,2018_May_29_1732,59.9384437645,MP-Perception Experiment,xx03w22,
143,vcgpdm_dyn(15)-lvm(20)_final(5).mov,True,left,0,training(3).mov,0,142,142,56,,,,,,,,17:45:54:974,17:45:55:696,17:45:58:699,left,17:45:59:133,,2018_May_29_1732,59.9384437645,MP-Perception Experiment,xx03w22,
144,vcgpdm_dyn(25)-lvm(5)_final(5).mov,True,left,0,training(1).mov,0,143,143,105,,,,,,,,17:45:59:927,17:46:00:634,17:46:03:636,left,17:46:04:120,,2018_May_29_1732,59.9384437645,MP-Perception Experiment,xx03w22,
145,training(39).mov,False,right,0,tmp_numprim(4)_final(5).mov,0,144,144,64,,,,,,,,17:46:04:901,17:46:05:621,17:46:08:624,right,17:46:09:356,,2018_May_29_1732,59.9384437645,MP-Perception Experiment,xx03w22,
146,training(13).mov,True,right,0,vgpdm_dyn(15)-lvm(5)_final(3).mov,0,145,145,111,,,,,,,,17:46:10:120,17:46:10:857,17:46:13:860,right,17:46:14:361,,2018_May_29_1732,59.9384437645,MP-Perception Experiment,xx03w22,
147,vcgpdm_dyn(10)-lvm(25)_final(3).mov,False,left,0,training(40).mov,0,146,146,50,,,,,,,,17:46:15:136,17:46:15:862,17:46:18:865,left,17:46:19:232,,2018_May_29_1732,59.9384437645,MP-Perception Experiment,xx03w22,
148,vgpdm_dyn(10)-lvm(25)_final(7).mov,True,left,0,training(20).mov,0,147,147,78,,,,,,,,17:46:20:007,17:46:20:733,17:46:23:720,right,17:46:24:705,,2018_May_29_1732,59.9384437645,MP-Perception Experiment,xx03w22,
149,training(15).mov,False,right,0,tmp_numprim(4)_final(2).mov,0,148,148,19,,,,,,,,17:46:25:483,17:46:26:222,17:46:29:208,right,17:46:29:692,,2018_May_29_1732,59.9384437645,MP-Perception Experiment,xx03w22,
150,training(39).mov,False,right,0,vcgpdm_dyn(20)-lvm(30)_final(1).mov,0,149,149,109,,,,,,,,17:46:30:472,17:46:31:193,17:46:34:213,right,17:46:34:530,,2018_May_29_1732,59.9384437645,MP-Perception Experiment,xx03w22,
151,training(1).mov,False,right,0,vcgpdm_dyn(20)-lvm(35)_final(6).mov,0,150,150,83,,,,,,,,17:46:35:315,17:46:36:031,17:46:39:051,right,17:46:39:534,,2018_May_29_1732,59.9384437645,MP-Perception Experiment,xx03w22,
152,training(0).mov,True,right,0,vcgpdm_dyn(35)-lvm(25)_final(7).mov,0,151,151,145,,,,,,,,17:46:40:311,17:46:41:035,17:46:44:055,right,17:46:44:488,,2018_May_29_1732,59.9384437645,MP-Perception Experiment,xx03w22,
153,training(10).mov,True,right,0,dmp_npsi(30)_final(2).mov,0,152,152,158,,,,,,,,17:46:45:271,17:46:46:006,17:46:48:992,right,17:46:49:460,,2018_May_29_1732,59.9384437645,MP-Perception Experiment,xx03w22,
154,training(21).mov,False,right,0,vcgpdm_dyn(15)-lvm(5)_final(4).mov,0,153,153,73,,,,,,,,17:46:50:234,17:46:50:961,17:46:53:964,right,17:46:54:564,,2018_May_29_1732,59.9384437645,MP-Perception Experiment,xx03w22,
155,training(11).mov,True,right,0,vcgpdm_dyn(20)-lvm(15)_final(4).mov,0,154,154,137,,,,,,,,17:46:55:347,17:46:56:065,17:46:59:068,right,17:46:59:533,,2018_May_29_1732,59.9384437645,MP-Perception Experiment,xx03w22,
156,vgpdm_dyn(5)-lvm(10)_final(7).mov,True,left,0,training(31).mov,0,155,155,88,,,,,,,,17:47:00:316,17:47:01:051,17:47:04:037,left,17:47:04:354,,2018_May_29_1732,59.9384437645,MP-Perception Experiment,xx03w22,
157,training(22).mov,True,right,0,vcgpdm_dyn(10)-lvm(30)_final(4).mov,0,156,156,67,,,,,,,,17:47:05:129,17:47:05:855,17:47:08:858,right,17:47:09:142,,2018_May_29_1732,59.9384437645,MP-Perception Experiment,xx03w22,
158,vgpdm_dyn(15)-lvm(25)_final(6).mov,False,left,0,training(1).mov,0,157,157,21,,,,,,,,17:47:09:916,17:47:10:643,17:47:13:630,left,17:47:14:097,,2018_May_29_1732,59.9384437645,MP-Perception Experiment,xx03w22,
159,training(1).mov,True,right,0,vgpdm_dyn(30)-lvm(10)_final(3).mov,0,158,158,48,,,,,,,,17:47:14:873,17:47:15:599,17:47:18:618,right,17:47:18:952,,2018_May_29_1732,59.9384437645,MP-Perception Experiment,xx03w22,
160,training(0).mov,False,right,1,vcgpdm_dyn(30)-lvm(35)_final(3).mov,0,0,0,147,,,,,,,,17:50:00:737,17:50:01:476,17:50:04:462,right,17:50:04:945,,2018_May_29_1732,59.9384437645,MP-Perception Experiment,xx03w22,
161,training(31).mov,False,right,1,dmp_npsi(40)_final(9).mov,0,1,1,34,,,,,,,,17:50:05:713,17:50:06:463,17:50:09:449,right,17:50:09:899,,2018_May_29_1732,59.9384437645,MP-Perception Experiment,xx03w22,
162,vcgpdm_dyn(15)-lvm(35)_final(7).mov,True,left,1,training(4).mov,0,2,2,31,,,,,,,,17:50:10:693,17:50:11:417,17:50:14:403,left,17:50:14:787,,2018_May_29_1732,59.9384437645,MP-Perception Experiment,xx03w22,
163,vgpdm_dyn(10)-lvm(30)_final(8).mov,False,left,1,training(40).mov,0,3,3,6,,,,,,,,17:50:15:557,17:50:16:288,17:50:19:291,left,17:50:19:723,,2018_May_29_1732,59.9384437645,MP-Perception Experiment,xx03w22,
164,vgpdm_dyn(15)-lvm(30)_final(9).mov,False,left,1,training(36).mov,0,4,4,3,,,,,,,,17:50:20:494,17:50:21:241,17:50:24:227,left,17:50:24:527,,2018_May_29_1732,59.9384437645,MP-Perception Experiment,xx03w22,
165,training(10).mov,True,right,1,map_gpdm_final(2).mov,0,5,5,119,,,,,,,,17:50:25:306,17:50:26:045,17:50:29:031,right,17:50:29:114,,2018_May_29_1732,59.9384437645,MP-Perception Experiment,xx03w22,
166,tmp_numprim(10)_final(2).mov,False,left,1,training(40).mov,0,6,6,137,,,,,,,,17:50:29:920,17:50:30:615,17:50:33:603,right,17:50:34:020,,2018_May_29_1732,59.9384437645,MP-Perception Experiment,xx03w22,
167,training(4).mov,True,right,1,vcgpdm_dyn(20)-lvm(5)_final(4).mov,0,7,7,89,,,,,,,,17:50:34:798,17:50:35:521,17:50:38:524,right,17:50:40:009,,2018_May_29_1732,59.9384437645,MP-Perception Experiment,xx03w22,
168,vcgpdm_dyn(5)-lvm(35)_final(5)_bad.mov,True,left,1,training(17).mov,0,8,8,13,,,,,,,,17:50:40:779,17:50:41:510,17:50:44:513,left,17:50:44:863,,2018_May_29_1732,59.9384437645,MP-Perception Experiment,xx03w22,
169,vgpdm_dyn(10)-lvm(30)_final(2).mov,False,left,1,training(3).mov,0,9,9,16,,,,,,,,17:50:45:646,17:50:46:364,17:50:49:383,left,17:50:49:767,,2018_May_29_1732,59.9384437645,MP-Perception Experiment,xx03w22,
170,training(40).mov,False,right,1,vcgpdm_dyn(30)-lvm(15)_final(5).mov,0,10,10,76,,,,,,,,17:50:50:552,17:50:51:268,17:50:54:271,right,17:50:54:622,,2018_May_29_1732,59.9384437645,MP-Perception Experiment,xx03w22,
171,vgpdm_dyn(35)-lvm(5)_final(2).mov,True,left,1,training(15).mov,0,11,11,26,,,,,,,,17:50:55:399,17:50:56:123,17:50:59:125,left,17:50:59:559,,2018_May_29_1732,59.9384437645,MP-Perception Experiment,xx03w22,
172,vgpdm_dyn(20)-lvm(5)_final(4).mov,True,left,1,training(9).mov,0,12,12,42,,,,,,,,17:51:00:362,17:51:01:060,17:51:04:063,left,17:51:04:747,,2018_May_29_1732,59.9384437645,MP-Perception Experiment,xx03w22,
173,training(28).mov,True,right,1,map_cgpdm_final(1).mov,0,13,13,151,,,,,,,,17:51:05:520,17:51:06:264,17:51:09:250,right,17:51:09:632,,2018_May_29_1732,59.9384437645,MP-Perception Experiment,xx03w22,
174,training(34).mov,True,right,1,vgpdm_dyn(30)-lvm(35)_final(0).mov,0,14,14,123,,,,,,,,17:51:10:410,17:51:11:133,17:51:14:137,left,17:51:14:437,,2018_May_29_1732,59.9384437645,MP-Perception Experiment,xx03w22,
175,vgpdm_dyn(25)-lvm(5)_final(5).mov,False,left,1,training(21).mov,0,15,15,64,,,,,,,,17:51:15:219,17:51:15:938,17:51:18:941,right,17:51:19:875,,2018_May_29_1732,59.9384437645,MP-Perception Experiment,xx03w22,
176,training(2).mov,False,right,1,vgpdm_dyn(35)-lvm(30)_final(9).mov,0,16,16,111,,,,,,,,17:51:20:650,17:51:21:378,17:51:24:380,right,17:51:24:997,,2018_May_29_1732,59.9384437645,MP-Perception Experiment,xx03w22,
177,vgpdm_dyn(15)-lvm(5)_final(6).mov,False,left,1,training(8).mov,0,17,17,88,,,,,,,,17:51:25:800,17:51:26:515,17:51:29:502,left,17:51:30:119,,2018_May_29_1732,59.9384437645,MP-Perception Experiment,xx03w22,
178,vcgpdm_dyn(30)-lvm(5)_final(7).mov,False,left,1,training(35).mov,0,18,18,48,,,,,,,,17:51:30:890,17:51:31:620,17:51:34:623,right,17:51:35:190,,2018_May_29_1732,59.9384437645,MP-Perception Experiment,xx03w22,
179,vgpdm_dyn(10)-lvm(35)_final(4).mov,True,left,1,training(10).mov,0,19,19,45,,,,,,,,17:51:35:997,17:51:36:691,17:51:39:710,left,17:51:40:511,,2018_May_29_1732,59.9384437645,MP-Perception Experiment,xx03w22,
180,training(3).mov,False,right,1,tmp_numprim(8)_final(7).mov,0,20,20,47,,,,,,,,17:51:41:284,17:51:42:012,17:51:45:014,right,17:51:45:782,,2018_May_29_1732,59.9384437645,MP-Perception Experiment,xx03w22,
181,training(19).mov,True,right,1,vgpdm_dyn(20)-lvm(15)_final(7).mov,0,21,21,30,,,,,,,,17:51:46:560,17:51:47:284,17:51:50:286,right,17:51:50:987,,2018_May_29_1732,59.9384437645,MP-Perception Experiment,xx03w22,
182,dmp_npsi(25)_final(2).mov,False,left,1,training(26).mov,0,22,22,59,,,,,,,,17:51:52:059,17:51:52:572,17:51:55:491,left,17:51:56:124,,2018_May_29_1732,59.9384437645,MP-Perception Experiment,xx03w22,
183,vgpdm_dyn(30)-lvm(10)_final(3).mov,False,left,1,training(9).mov,0,23,23,134,,,,,,,,17:51:56:894,17:51:57:626,17:52:00:626,left,17:52:01:010,,2018_May_29_1732,59.9384437645,MP-Perception Experiment,xx03w22,
184,training(35).mov,False,right,1,map_gpdm_final(4).mov,0,24,24,37,,,,,,,,17:52:01:784,17:52:02:511,17:52:05:515,right,17:52:05:581,,2018_May_29_1732,59.9384437645,MP-Perception Experiment,xx03w22,
185,vgpdm_dyn(20)-lvm(30)_final(3).mov,True,left,1,training(22).mov,0,25,25,127,,,,,,,,17:52:06:370,17:52:07:083,17:52:10:085,left,17:52:10:769,,2018_May_29_1732,59.9384437645,MP-Perception Experiment,xx03w22,
186,vgpdm_dyn(10)-lvm(5)_final(3).mov,True,left,1,training(48).mov,0,26,26,109,,,,,,,,17:52:11:573,17:52:12:270,17:52:15:258,left,17:52:16:142,,2018_May_29_1732,59.9384437645,MP-Perception Experiment,xx03w22,
187,training(31).mov,True,right,1,vcgpdm_dyn(25)-lvm(35)_final(3).mov,0,27,27,79,,,,,,,,17:52:16:932,17:52:17:643,17:52:20:645,right,17:52:21:313,,2018_May_29_1732,59.9384437645,MP-Perception Experiment,xx03w22,
188,training(7).mov,False,right,1,vcgpdm_dyn(20)-lvm(25)_final(7).mov,0,28,28,93,,,,,,,,17:52:22:101,17:52:22:815,17:52:25:817,right,17:52:26:518,,2018_May_29_1732,59.9384437645,MP-Perception Experiment,xx03w22,
189,vcgpdm_dyn(30)-lvm(20)_final(2).mov,True,left,1,training(5).mov,0,29,29,5,,,,,,,,17:52:27:300,17:52:28:019,17:52:31:038,left,17:52:31:872,,2018_May_29_1732,59.9384437645,MP-Perception Experiment,xx03w22,
190,training(38).mov,True,right,1,vcgpdm_dyn(15)-lvm(25)_final(0).mov,0,30,30,77,,,,,,,,17:52:32:651,17:52:33:390,17:52:36:375,right,17:52:36:776,,2018_May_29_1732,59.9384437645,MP-Perception Experiment,xx03w22,
191,training(26).mov,True,right,1,vgpdm_dyn(30)-lvm(15)_final(2).mov,0,31,31,49,,,,,,,,17:52:37:561,17:52:38:277,17:52:41:280,right,17:52:41:781,,2018_May_29_1732,59.9384437645,MP-Perception Experiment,xx03w22,
192,tmp_numprim(9)_final(7).mov,False,left,1,training(14).mov,0,32,32,50,,,,,,,,17:52:42:549,17:52:43:282,17:52:46:284,left,17:52:46:802,,2018_May_29_1732,59.9384437645,MP-Perception Experiment,xx03w22,
193,vcgpdm_dyn(25)-lvm(20)_final(9).mov,False,left,1,training(37).mov,0,33,33,154,,,,,,,,17:52:47:567,17:52:48:320,17:52:51:304,left,17:52:51:637,,2018_May_29_1732,59.9384437645,MP-Perception Experiment,xx03w22,
194,vgpdm_dyn(20)-lvm(35)_final(6).mov,True,left,1,training(13).mov,0,34,34,8,,,,,,,,17:52:52:415,17:52:53:138,17:52:56:141,left,17:52:56:526,,2018_May_29_1732,59.9384437645,MP-Perception Experiment,xx03w22,
195,training(5).mov,False,right,1,vcgpdm_dyn(5)-lvm(10)_final(8).mov,0,35,35,96,,,,,,,,17:52:57:313,17:52:58:027,17:53:01:031,right,17:53:01:615,,2018_May_29_1732,59.9384437645,MP-Perception Experiment,xx03w22,
196,training(13).mov,True,right,1,vcgpdm_dyn(30)-lvm(30)_final(0).mov,0,36,36,150,,,,,,,,17:53:02:403,17:53:03:133,17:53:06:118,right,17:53:06:569,,2018_May_29_1732,59.9384437645,MP-Perception Experiment,xx03w22,
197,training(27).mov,False,right,1,vcgpdm_dyn(5)-lvm(25)_final(7).mov,0,37,37,65,,,,,,,,17:53:07:344,17:53:08:070,17:53:11:072,right,17:53:11:606,,2018_May_29_1732,59.9384437645,MP-Perception Experiment,xx03w22,
198,vcgpdm_dyn(35)-lvm(30)_final(2).mov,True,left,1,training(32).mov,0,38,38,158,,,,,,,,17:53:12:404,17:53:13:107,17:53:16:111,right,17:53:16:695,,2018_May_29_1732,59.9384437645,MP-Perception Experiment,xx03w22,
199,training(41).mov,False,right,1,vcgpdm_dyn(35)-lvm(10)_final(5).mov,0,39,39,11,,,,,,,,17:53:17:475,17:53:18:196,17:53:21:198,left,17:53:21:899,,2018_May_29_1732,59.9384437645,MP-Perception Experiment,xx03w22,
200,training(4).mov,True,right,1,vgpdm_dyn(35)-lvm(30)_final(2).mov,0,40,40,80,,,,,,,,17:53:22:673,17:53:23:400,17:53:26:402,right,17:53:26:920,,2018_May_29_1732,59.9384437645,MP-Perception Experiment,xx03w22,
201,vcgpdm_dyn(20)-lvm(30)_final(1).mov,True,left,1,training(48).mov,0,41,41,78,,,,,,,,17:53:27:714,17:53:28:421,17:53:31:424,left,17:53:31:891,,2018_May_29_1732,59.9384437645,MP-Perception Experiment,xx03w22,
202,training(29).mov,False,right,1,vgpdm_dyn(30)-lvm(35)_final(8).mov,0,42,42,82,,,,,,,,17:53:32:671,17:53:33:392,17:53:36:395,right,17:53:36:728,,2018_May_29_1732,59.9384437645,MP-Perception Experiment,xx03w22,
203,training(27).mov,True,right,1,dmp_npsi(20)_final(3).mov,0,43,43,22,,,,,,,,17:53:37:527,17:53:38:229,17:53:41:230,right,17:53:41:747,,2018_May_29_1732,59.9384437645,MP-Perception Experiment,xx03w22,
204,training(28).mov,False,right,1,vgpdm_dyn(20)-lvm(20)_final(8).mov,0,44,44,136,,,,,,,,17:53:42:526,17:53:43:265,17:53:46:251,right,17:53:46:618,,2018_May_29_1732,59.9384437645,MP-Perception Experiment,xx03w22,
205,training(23).mov,False,right,1,vcgpdm_dyn(20)-lvm(30)_final(0).mov,0,45,45,99,,,,,,,,17:53:47:412,17:53:48:136,17:53:51:123,right,17:53:51:573,,2018_May_29_1732,59.9384437645,MP-Perception Experiment,xx03w22,
206,vcgpdm_dyn(15)-lvm(10)_final(9).mov,True,left,1,training(26).mov,0,46,46,10,,,,,,,,17:53:52:357,17:53:53:074,17:53:56:061,left,17:53:56:662,,2018_May_29_1732,59.9384437645,MP-Perception Experiment,xx03w22,
207,vcgpdm_dyn(20)-lvm(20)_final(2).mov,False,left,1,training(16).mov,0,47,47,51,,,,,,,,17:53:57:430,17:53:58:163,17:54:01:166,right,17:54:01:649,,2018_May_29_1732,59.9384437645,MP-Perception Experiment,xx03w22,
208,vcgpdm_dyn(5)-lvm(5)_final(8).mov,False,left,1,training(25).mov,0,48,48,133,,,,,,,,17:54:02:431,17:54:03:167,17:54:06:153,left,17:54:06:505,,2018_May_29_1732,59.9384437645,MP-Perception Experiment,xx03w22,
209,training(33).mov,False,right,1,vcgpdm_dyn(35)-lvm(25)_final(0).mov,0,49,49,67,,,,,,,,17:54:07:310,17:54:08:005,17:54:11:008,right,17:54:11:359,,2018_May_29_1732,59.9384437645,MP-Perception Experiment,xx03w22,
210,vgpdm_dyn(15)-lvm(15)_final(0).mov,True,left,1,training(9).mov,0,50,50,20,,,,,,,,17:54:12:144,17:54:12:859,17:54:15:862,left,17:54:16:379,,2018_May_29_1732,59.9384437645,MP-Perception Experiment,xx03w22,
211,training(10).mov,True,right,1,vgpdm_dyn(25)-lvm(35)_final(7).mov,0,51,51,124,,,,,,,,17:54:17:164,17:54:17:880,17:54:20:883,left,17:54:21:433,,2018_May_29_1732,59.9384437645,MP-Perception Experiment,xx03w22,
212,training(40).mov,True,right,1,vgpdm_dyn(25)-lvm(20)_final(7).mov,0,52,52,90,,,,,,,,17:54:22:218,17:54:22:934,17:54:25:938,left,17:54:26:505,,2018_May_29_1732,59.9384437645,MP-Perception Experiment,xx03w22,
213,vcgpdm_dyn(25)-lvm(15)_final(0).mov,True,left,1,training(6).mov,0,53,53,130,,,,,,,,17:54:27:281,17:54:28:006,17:54:31:007,right,17:54:31:557,,2018_May_29_1732,59.9384437645,MP-Perception Experiment,xx03w22,
214,vcgpdm_dyn(35)-lvm(5)_final(1).mov,False,left,1,training(13).mov,0,54,54,113,,,,,,,,17:54:32:341,17:54:33:058,17:54:36:061,left,17:54:37:062,,2018_May_29_1732,59.9384437645,MP-Perception Experiment,xx03w22,
215,training(32).mov,False,right,1,vgpdm_dyn(5)-lvm(15)_final(8).mov,0,55,55,148,,,,,,,,17:54:37:832,17:54:38:579,17:54:41:568,right,17:54:42:069,,2018_May_29_1732,59.9384437645,MP-Perception Experiment,xx03w22,
216,vcgpdm_dyn(30)-lvm(15)_final(1).mov,False,left,1,training(23).mov,0,56,56,120,,,,,,,,17:54:42:853,17:54:43:586,17:54:46:589,left,17:54:47:206,,2018_May_29_1732,59.9384437645,MP-Perception Experiment,xx03w22,
217,training(16).mov,False,right,1,vcgpdm_dyn(15)-lvm(15)_final(5).mov,0,57,57,9,,,,,,,,17:54:47:990,17:54:48:707,17:54:51:710,right,17:54:52:260,,2018_May_29_1732,59.9384437645,MP-Perception Experiment,xx03w22,
218,vcgpdm_dyn(25)-lvm(15)_final(1).mov,False,left,1,training(22).mov,0,58,58,141,,,,,,,,17:54:53:041,17:54:53:761,17:54:56:781,right,17:54:59:050,,2018_May_29_1732,59.9384437645,MP-Perception Experiment,xx03w22,
219,vgpdm_dyn(10)-lvm(35)_final(2).mov,False,left,1,training(24).mov,0,59,59,57,,,,,,,,17:54:59:841,17:55:00:568,17:55:03:553,left,17:55:04:771,,2018_May_29_1732,59.9384437645,MP-Perception Experiment,xx03w22,
220,vcgpdm_dyn(30)-lvm(35)_final(5).mov,True,left,1,training(38).mov,0,60,60,35,,,,,,,,17:55:05:567,17:55:06:272,17:55:09:275,left,17:55:09:775,,2018_May_29_1732,59.9384437645,MP-Perception Experiment,xx03w22,
221,dmp_npsi(20)_final(8).mov,False,left,1,training(26).mov,0,61,61,126,,,,,,,,17:55:10:567,17:55:11:276,17:55:14:278,left,17:55:14:762,,2018_May_29_1732,59.9384437645,MP-Perception Experiment,xx03w22,
222,training(29).mov,False,right,1,vcgpdm_dyn(30)-lvm(35)_final(0).mov,0,62,62,156,,,,,,,,17:55:15:541,17:55:16:281,17:55:19:267,right,17:55:19:699,,2018_May_29_1732,59.9384437645,MP-Perception Experiment,xx03w22,
223,training(41).mov,True,right,1,vgpdm_dyn(20)-lvm(10)_final(0)_out_of_screen.mov,0,63,63,129,,,,,,,,17:55:20:486,17:55:21:200,17:55:24:203,right,17:55:24:386,,2018_May_29_1732,59.9384437645,MP-Perception Experiment,xx03w22,
224,training(25).mov,True,right,1,vcgpdm_dyn(5)-lvm(20)_final(5).mov,0,64,64,70,,,,,,,,17:55:25:157,17:55:25:887,17:55:28:890,right,17:55:29:190,,2018_May_29_1732,59.9384437645,MP-Perception Experiment,xx03w22,
225,training(28).mov,False,right,1,vcgpdm_dyn(30)-lvm(20)_final(3).mov,0,65,65,38,,,,,,,,17:55:29:969,17:55:30:691,17:55:33:680,right,17:55:34:264,,2018_May_29_1732,59.9384437645,MP-Perception Experiment,xx03w22,
226,vgpdm_dyn(35)-lvm(30)_final(5).mov,False,left,1,training(5).mov,0,66,66,143,,,,,,,,17:55:35:059,17:55:35:781,17:55:38:784,right,17:55:39:151,,2018_May_29_1732,59.9384437645,MP-Perception Experiment,xx03w22,
227,training(1).mov,True,right,1,dmp_npsi(50)_final(9).mov,0,67,67,115,,,,,,,,17:55:39:962,17:55:40:652,17:55:43:654,right,17:55:44:622,,2018_May_29_1732,59.9384437645,MP-Perception Experiment,xx03w22,
228,vgpdm_dyn(30)-lvm(35)_final(7).mov,True,left,1,training(29).mov,0,68,68,66,,,,,,,,17:55:45:401,17:55:46:123,17:55:49:142,left,17:55:49:526,,2018_May_29_1732,59.9384437645,MP-Perception Experiment,xx03w22,
229,vcgpdm_dyn(30)-lvm(35)_final(9).mov,True,left,1,training(14).mov,0,69,69,142,,,,,,,,17:55:50:307,17:55:51:027,17:55:54:030,left,17:55:54:331,,2018_May_29_1732,59.9384437645,MP-Perception Experiment,xx03w22,
230,vgpdm_dyn(15)-lvm(30)_final(7).mov,True,left,1,training(16).mov,0,70,70,118,,,,,,,,17:55:55:105,17:55:55:832,17:55:58:834,left,17:55:59:118,,2018_May_29_1732,59.9384437645,MP-Perception Experiment,xx03w22,
231,vgpdm_dyn(10)-lvm(5)_final(7).mov,False,left,1,training(34).mov,0,71,71,102,,,,,,,,17:55:59:946,17:56:00:619,17:56:03:638,left,17:56:04:439,,2018_May_29_1732,59.9384437645,MP-Perception Experiment,xx03w22,
232,training(32).mov,True,right,1,vcgpdm_dyn(15)-lvm(5)_final(6).mov,0,72,72,152,,,,,,,,17:56:05:211,17:56:05:957,17:56:08:944,right,17:56:09:294,,2018_May_29_1732,59.9384437645,MP-Perception Experiment,xx03w22,
233,training(35).mov,True,right,1,vgpdm_dyn(10)-lvm(25)_final(9).mov,0,73,73,112,,,,,,,,17:56:10:105,17:56:10:810,17:56:13:812,left,17:56:14:179,,2018_May_29_1732,59.9384437645,MP-Perception Experiment,xx03w22,
234,training(9).mov,False,right,1,tmp_numprim(3)_final(3).mov,0,74,74,81,,,,,,,,17:56:14:964,17:56:15:681,17:56:18:683,right,17:56:19:017,,2018_May_29_1732,59.9384437645,MP-Perception Experiment,xx03w22,
235,training(11).mov,True,right,1,vcgpdm_dyn(10)-lvm(10)_final(4).mov,0,75,75,72,,,,,,,,17:56:19:789,17:56:20:534,17:56:23:505,right,17:56:23:989,,2018_May_29_1732,59.9384437645,MP-Perception Experiment,xx03w22,
236,vgpdm_dyn(20)-lvm(15)_final(7).mov,True,left,1,training(2).mov,0,76,76,83,,,,,,,,17:56:24:778,17:56:25:490,17:56:28:510,left,17:56:28:861,,2018_May_29_1732,59.9384437645,MP-Perception Experiment,xx03w22,
237,vgpdm_dyn(20)-lvm(25)_final(7).mov,True,left,1,training(11).mov,0,77,77,24,,,,,,,,17:56:29:649,17:56:30:362,17:56:33:364,left,17:56:34:015,,2018_May_29_1732,59.9384437645,MP-Perception Experiment,xx03w22,
238,training(36).mov,False,right,1,vgpdm_dyn(15)-lvm(5)_final(7).mov,0,78,78,155,,,,,,,,17:56:34:786,17:56:35:516,17:56:38:519,right,17:56:39:236,,2018_May_29_1732,59.9384437645,MP-Perception Experiment,xx03w22,
239,training(31).mov,False,right,1,vgpdm_dyn(25)-lvm(35)_final(7).mov,0,79,79,101,,,,,,,,17:56:40:003,17:56:40:737,17:56:43:740,right,17:56:44:124,,2018_May_29_1732,59.9384437645,MP-Perception Experiment,xx03w22,
240,training(11).mov,False,right,1,vcgpdm_dyn(20)-lvm(35)_final(0).mov,0,80,80,132,,,,,,,,17:56:44:893,17:56:45:625,17:56:48:627,right,17:56:49:045,,2018_May_29_1732,59.9384437645,MP-Perception Experiment,xx03w22,
241,training(15).mov,True,right,1,vgpdm_dyn(15)-lvm(35)_final(7).mov,0,81,81,60,,,,,,,,17:56:49:824,17:56:50:546,17:56:53:553,right,17:56:54:182,,2018_May_29_1732,59.9384437645,MP-Perception Experiment,xx03w22,
242,training(33).mov,False,right,1,vgpdm_dyn(20)-lvm(5)_final(1).mov,0,82,82,63,,,,,,,,17:56:54:970,17:56:55:683,17:56:58:703,right,17:56:59:003,,2018_May_29_1732,59.9384437645,MP-Perception Experiment,xx03w22,
243,training(9).mov,False,right,1,vgpdm_dyn(10)-lvm(5)_final(7).mov,0,83,83,27,,,,,,,,17:56:59:800,17:57:00:519,17:57:03:522,right,17:57:03:772,,2018_May_29_1732,59.9384437645,MP-Perception Experiment,xx03w22,
244,training(20).mov,True,right,1,vgpdm_dyn(20)-lvm(30)_final(5).mov,0,84,84,135,,,,,,,,17:57:04:563,17:57:05:290,17:57:08:276,right,17:57:08:610,,2018_May_29_1732,59.9384437645,MP-Perception Experiment,xx03w22,
245,training(28).mov,False,right,1,tmp_numprim(10)_final(8).mov,0,85,85,87,,,,,,,,17:57:09:379,17:57:10:111,17:57:13:098,right,17:57:13:516,,2018_May_29_1732,59.9384437645,MP-Perception Experiment,xx03w22,
246,tmp_numprim(7)_final(2).mov,True,left,1,training(40).mov,0,86,86,146,,,,,,,,17:57:14:293,17:57:15:033,17:57:18:019,left,17:57:18:436,,2018_May_29_1732,59.9384437645,MP-Perception Experiment,xx03w22,
247,dmp_npsi(30)_final(5).mov,False,left,1,training(20).mov,0,87,87,74,,,,,,,,17:57:19:212,17:57:19:938,17:57:22:957,left,17:57:23:491,,2018_May_29_1732,59.9384437645,MP-Perception Experiment,xx03w22,
248,dmp_npsi(25)_final(0).mov,False,left,1,training(40).mov,0,88,88,15,,,,,,,,17:57:24:281,17:57:24:992,17:57:27:995,left,17:57:28:428,,2018_May_29_1732,59.9384437645,MP-Perception Experiment,xx03w22,
249,training(6).mov,False,right,1,vgpdm_dyn(10)-lvm(35)_final(3).mov,0,89,89,19,,,,,,,,17:57:29:215,17:57:29:929,17:57:32:932,right,17:57:33:316,,2018_May_29_1732,59.9384437645,MP-Perception Experiment,xx03w22,
250,training(7).mov,False,right,1,dmp_npsi(15)_final(0).mov,0,90,90,36,,,,,,,,17:57:34:099,17:57:34:817,17:57:37:820,right,17:57:38:087,,2018_May_29_1732,59.9384437645,MP-Perception Experiment,xx03w22,
251,vgpdm_dyn(15)-lvm(30)_final(7).mov,False,left,1,training(35).mov,0,91,91,114,,,,,,,,17:57:38:866,17:57:39:588,17:57:42:591,left,17:57:42:925,,2018_May_29_1732,59.9384437645,MP-Perception Experiment,xx03w22,
252,vcgpdm_dyn(20)-lvm(20)_final(1).mov,True,left,1,training(18).mov,0,92,92,85,,,,,,,,17:57:43:700,17:57:44:426,17:57:47:445,left,17:57:47:779,,2018_May_29_1732,59.9384437645,MP-Perception Experiment,xx03w22,
253,vgpdm_dyn(20)-lvm(20)_final(2).mov,True,left,1,training(29).mov,0,93,93,1,,,,,,,,17:57:48:558,17:57:49:296,17:57:52:280,right,17:57:52:597,,2018_May_29_1732,59.9384437645,MP-Perception Experiment,xx03w22,
254,vcgpdm_dyn(25)-lvm(25)_final(2).mov,False,left,1,training(39).mov,0,94,94,4,,,,,,,,17:57:53:373,17:57:54:099,17:57:57:102,left,17:57:57:419,,2018_May_29_1732,59.9384437645,MP-Perception Experiment,xx03w22,
255,training(28).mov,True,right,1,vcgpdm_dyn(10)-lvm(20)_final(3).mov,0,95,95,58,,,,,,,,17:57:58:190,17:57:58:920,17:58:01:907,right,17:58:02:341,,2018_May_29_1732,59.9384437645,MP-Perception Experiment,xx03w22,
256,vgpdm_dyn(35)-lvm(35)_final(2).mov,True,left,1,training(18).mov,0,96,96,153,,,,,,,,17:58:03:111,17:58:03:842,17:58:06:845,left,17:58:07:445,,2018_May_29_1732,59.9384437645,MP-Perception Experiment,xx03w22,
257,training(17).mov,True,right,1,vcgpdm_dyn(5)-lvm(5)_final(9).mov,0,97,97,105,,,,,,,,17:58:08:230,17:58:08:963,17:58:11:950,left,17:58:12:734,,2018_May_29_1732,59.9384437645,MP-Perception Experiment,xx03w22,
258,training(29).mov,False,right,1,vgpdm_dyn(10)-lvm(25)_final(9).mov,0,98,98,110,,,,,,,,17:58:13:508,17:58:14:235,17:58:17:237,right,17:58:17:771,,2018_May_29_1732,59.9384437645,MP-Perception Experiment,xx03w22,
259,training(37).mov,True,right,1,vgpdm_dyn(15)-lvm(5)_final(8).mov,0,99,99,18,,,,,,,,17:58:18:550,17:58:19:272,17:58:22:275,right,17:58:22:675,,2018_May_29_1732,59.9384437645,MP-Perception Experiment,xx03w22,
260,training(24).mov,True,right,1,vgpdm_dyn(20)-lvm(35)_final(1).mov,0,100,100,21,,,,,,,,17:58:23:450,17:58:24:176,17:58:27:179,right,17:58:27:562,,2018_May_29_1732,59.9384437645,MP-Perception Experiment,xx03w22,
261,vcgpdm_dyn(5)-lvm(25)_final(4).mov,True,left,1,training(12).mov,0,101,101,104,,,,,,,,17:58:28:358,17:58:29:081,17:58:32:067,left,17:58:32:451,,2018_May_29_1732,59.9384437645,MP-Perception Experiment,xx03w22,
262,training(19).mov,True,right,1,vcgpdm_dyn(5)-lvm(10)_final(9).mov,0,102,102,128,,,,,,,,17:58:33:234,17:58:33:952,17:58:36:954,right,17:58:37:488,,2018_May_29_1732,59.9384437645,MP-Perception Experiment,xx03w22,
263,training(39).mov,False,right,1,vcgpdm_dyn(10)-lvm(5)_final(9).mov,0,103,103,61,,,,,,,,17:58:38:282,17:58:38:989,17:58:41:990,right,17:58:42:190,,2018_May_29_1732,59.9384437645,MP-Perception Experiment,xx03w22,
264,training(27).mov,False,right,1,dmp_npsi(15)_final(9).mov,0,104,104,117,,,,,,,,17:58:42:980,17:58:43:691,17:58:46:695,right,17:58:46:978,,2018_May_29_1732,59.9384437645,MP-Perception Experiment,xx03w22,
265,training(19).mov,False,right,1,dmp_npsi(30)_final(6).mov,0,105,105,108,,,,,,,,17:58:47:754,17:58:48:480,17:58:51:482,right,17:58:51:565,,2018_May_29_1732,59.9384437645,MP-Perception Experiment,xx03w22,
266,training(38).mov,False,right,1,vgpdm_dyn(20)-lvm(30)_final(2).mov,0,106,106,145,,,,,,,,17:58:52:353,17:58:53:067,17:58:56:054,left,17:58:56:421,,2018_May_29_1732,59.9384437645,MP-Perception Experiment,xx03w22,
267,training(35).mov,False,right,1,vcgpdm_dyn(10)-lvm(20)_final(7).mov,0,107,107,100,,,,,,,,17:58:57:204,17:58:57:922,17:59:00:925,right,17:59:01:292,,2018_May_29_1732,59.9384437645,MP-Perception Experiment,xx03w22,
268,training(29).mov,False,right,1,vcgpdm_dyn(35)-lvm(10)_final(2).mov,0,108,108,140,,,,,,,,17:59:02:069,17:59:02:793,17:59:05:796,right,17:59:06:097,,2018_May_29_1732,59.9384437645,MP-Perception Experiment,xx03w22,
269,vgpdm_dyn(30)-lvm(25)_final(1).mov,True,left,1,training(26).mov,0,109,109,55,,,,,,,,17:59:06:904,17:59:07:614,17:59:10:600,right,17:59:11:084,,2018_May_29_1732,59.9384437645,MP-Perception Experiment,xx03w22,
270,training(23).mov,True,right,1,vcgpdm_dyn(30)-lvm(15)_final(6).mov,0,110,110,73,,,,,,,,17:59:11:866,17:59:12:585,17:59:15:588,left,17:59:16:505,,2018_May_29_1732,59.9384437645,MP-Perception Experiment,xx03w22,
271,vgpdm_dyn(15)-lvm(15)_final(8).mov,True,left,1,training(36).mov,0,111,111,144,,,,,,,,17:59:17:280,17:59:18:006,17:59:21:010,left,17:59:21:293,,2018_May_29_1732,59.9384437645,MP-Perception Experiment,xx03w22,
272,vgpdm_dyn(30)-lvm(25)_final(0).mov,True,left,1,training(21).mov,0,112,112,121,,,,,,,,17:59:22:085,17:59:22:794,17:59:25:797,left,17:59:26:147,,2018_May_29_1732,59.9384437645,MP-Perception Experiment,xx03w22,
273,vcgpdm_dyn(5)-lvm(25)_final(9).mov,True,left,1,training(12).mov,0,113,113,69,,,,,,,,17:59:26:931,17:59:27:648,17:59:30:649,left,17:59:30:916,,2018_May_29_1732,59.9384437645,MP-Perception Experiment,xx03w22,
274,vcgpdm_dyn(20)-lvm(10)_final(7).mov,True,left,1,training(19).mov,0,114,114,95,,,,,,,,17:59:31:698,17:59:32:434,17:59:35:419,left,17:59:35:653,,2018_May_29_1732,59.9384437645,MP-Perception Experiment,xx03w22,
275,training(29).mov,False,right,1,vgpdm_dyn(20)-lvm(35)_final(6).mov,0,115,115,7,,,,,,,,17:59:36:453,17:59:37:154,17:59:40:158,right,17:59:40:458,,2018_May_29_1732,59.9384437645,MP-Perception Experiment,xx03w22,
276,training(13).mov,False,right,1,vgpdm_dyn(10)-lvm(20)_final(2).mov,0,116,116,149,,,,,,,,17:59:41:254,17:59:41:961,17:59:44:963,right,17:59:45:430,,2018_May_29_1732,59.9384437645,MP-Perception Experiment,xx03w22,
277,training(8).mov,True,right,1,dmp_npsi(40)_final(5).mov,0,117,117,122,,,,,,,,17:59:46:221,17:59:46:931,17:59:49:934,right,17:59:50:368,,2018_May_29_1732,59.9384437645,MP-Perception Experiment,xx03w22,
278,vcgpdm_dyn(15)-lvm(25)_final(0).mov,False,left,1,training(34).mov,0,118,118,40,,,,,,,,17:59:52:071,17:59:52:071,17:59:54:888,left,17:59:55:906,,2018_May_29_1732,59.9384437645,MP-Perception Experiment,xx03w22,
279,training(5).mov,True,right,1,vcgpdm_dyn(30)-lvm(15)_final(4).mov,0,119,119,84,,,,,,,,17:59:56:684,17:59:57:424,18:00:00:410,left,18:00:00:660,,2018_May_29_1732,59.9384437645,MP-Perception Experiment,xx03w22,
280,vcgpdm_dyn(15)-lvm(15)_final(7).mov,True,left,1,training(30).mov,0,120,120,138,,,,,,,,18:00:01:447,18:00:02:161,18:00:05:180,right,18:00:05:564,,2018_May_29_1732,59.9384437645,MP-Perception Experiment,xx03w22,
281,training(27).mov,False,right,1,vcgpdm_dyn(20)-lvm(25)_final(1).mov,0,121,121,43,,,,,,,,18:00:06:347,18:00:07:082,18:00:10:085,right,18:00:10:452,,2018_May_29_1732,59.9384437645,MP-Perception Experiment,xx03w22,
282,training(24).mov,True,right,1,map_gpdm_final(7).mov,0,122,122,107,,,,,,,,18:00:11:245,18:00:11:969,18:00:14:956,right,18:00:15:273,,2018_May_29_1732,59.9384437645,MP-Perception Experiment,xx03w22,
283,vgpdm_dyn(20)-lvm(25)_final(7).mov,False,left,1,training(18).mov,0,123,123,29,,,,,,,,18:00:16:053,18:00:16:774,18:00:19:775,right,18:00:20:225,,2018_May_29_1732,59.9384437645,MP-Perception Experiment,xx03w22,
284,training(40).mov,True,right,1,vgpdm_dyn(25)-lvm(30)_final(5).mov,0,124,124,14,,,,,,,,18:00:21:016,18:00:21:726,18:00:24:729,left,18:00:25:096,,2018_May_29_1732,59.9384437645,MP-Perception Experiment,xx03w22,
285,vgpdm_dyn(20)-lvm(20)_final(4).mov,True,left,1,training(16).mov,0,125,125,0,,,,,,,,18:00:25:869,18:00:26:597,18:00:29:599,left,18:00:30:217,,2018_May_29_1732,59.9384437645,MP-Perception Experiment,xx03w22,
286,training(7).mov,True,right,1,vcgpdm_dyn(35)-lvm(25)_final(6).mov,0,126,126,56,,,,,,,,18:00:31:002,18:00:31:719,18:00:34:723,right,18:00:35:040,,2018_May_29_1732,59.9384437645,MP-Perception Experiment,xx03w22,
287,vcgpdm_dyn(20)-lvm(35)_final(6).mov,False,left,1,training(35).mov,0,127,127,157,,,,,,,,18:00:35:808,18:00:36:541,18:00:39:544,left,18:00:39:827,,2018_May_29_1732,59.9384437645,MP-Perception Experiment,xx03w22,
288,training(2).mov,False,right,1,vgpdm_dyn(5)-lvm(15)_final(6).mov,0,128,128,106,,,,,,,,18:00:40:611,18:00:41:328,18:00:44:348,right,18:00:44:598,,2018_May_29_1732,59.9384437645,MP-Perception Experiment,xx03w22,
289,training(4).mov,True,right,1,tmp_numprim(8)_final(6).mov,0,129,129,62,,,,,,,,18:00:45:383,18:00:46:115,18:00:49:102,right,18:00:49:386,,2018_May_29_1732,59.9384437645,MP-Perception Experiment,xx03w22,
290,tmp_numprim(5)_final(9).mov,True,left,1,training(34).mov,0,130,130,28,,,,,,,,18:00:50:168,18:00:50:887,18:00:53:890,left,18:00:54:290,,2018_May_29_1732,59.9384437645,MP-Perception Experiment,xx03w22,
291,training(10).mov,False,right,1,tmp_numprim(6)_final(2).mov,0,131,131,33,,,,,,,,18:00:55:070,18:00:55:808,18:00:58:795,right,18:00:59:161,,2018_May_29_1732,59.9384437645,MP-Perception Experiment,xx03w22,
292,vcgpdm_dyn(25)-lvm(10)_final(2).mov,True,left,1,training(9).mov,0,132,132,54,,,,,,,,18:00:59:939,18:01:00:662,18:01:03:681,right,18:01:03:998,,2018_May_29_1732,59.9384437645,MP-Perception Experiment,xx03w22,
293,vcgpdm_dyn(5)-lvm(15)_final(2).mov,False,left,1,training(28).mov,0,133,133,25,,,,,,,,18:01:04:788,18:01:05:499,18:01:08:519,left,18:01:08:836,,2018_May_29_1732,59.9384437645,MP-Perception Experiment,xx03w22,
294,vcgpdm_dyn(15)-lvm(10)_final(2).mov,False,left,1,training(2).mov,0,134,134,131,,,,,,,,18:01:09:613,18:01:10:352,18:01:13:338,left,18:01:13:538,,2018_May_29_1732,59.9384437645,MP-Perception Experiment,xx03w22,
295,training(32).mov,False,right,1,vcgpdm_dyn(15)-lvm(15)_final(8).mov,0,135,135,12,,,,,,,,18:01:14:322,18:01:15:039,18:01:18:042,left,18:01:18:092,,2018_May_29_1732,59.9384437645,MP-Perception Experiment,xx03w22,
296,map_gpdm_final(5).mov,True,left,1,training(38).mov,0,136,136,32,,,,,,,,18:01:18:883,18:01:19:593,18:01:22:580,left,18:01:22:864,,2018_May_29_1732,59.9384437645,MP-Perception Experiment,xx03w22,
297,vgpdm_dyn(30)-lvm(30)_final(8).mov,True,left,1,training(0).mov,0,137,137,53,,,,,,,,18:01:23:644,18:01:24:366,18:01:27:369,left,18:01:27:736,,2018_May_29_1732,59.9384437645,MP-Perception Experiment,xx03w22,
298,vcgpdm_dyn(35)-lvm(5)_final(6).mov,False,left,1,training(24).mov,0,138,138,103,,,,,,,,18:01:28:518,18:01:29:237,18:01:32:239,right,18:01:32:673,,2018_May_29_1732,59.9384437645,MP-Perception Experiment,xx03w22,
299,training(18).mov,False,right,1,tmp_numprim(9)_final(1).mov,0,139,139,39,,,,,,,,18:01:33:442,18:01:34:174,18:01:37:193,right,18:01:37:560,,2018_May_29_1732,59.9384437645,MP-Perception Experiment,xx03w22,
300,vcgpdm_dyn(20)-lvm(25)_final(8).mov,False,left,1,training(35).mov,0,140,140,98,,,,,,,,18:01:38:347,18:01:39:061,18:01:42:065,right,18:01:42:415,,2018_May_29_1732,59.9384437645,MP-Perception Experiment,xx03w22,
301,vcgpdm_dyn(10)-lvm(25)_final(8).mov,False,left,1,training(7).mov,0,141,141,97,,,,,,,,18:01:43:221,18:01:43:916,18:01:46:919,left,18:01:47:436,,2018_May_29_1732,59.9384437645,MP-Perception Experiment,xx03w22,
302,dmp_npsi(50)_final(2).mov,True,left,1,training(5).mov,0,142,142,52,,,,,,,,18:01:48:216,18:01:48:954,18:01:51:939,left,18:01:52:273,,2018_May_29_1732,59.9384437645,MP-Perception Experiment,xx03w22,
303,vcgpdm_dyn(30)-lvm(30)_final(3).mov,False,left,1,training(32).mov,0,143,143,46,,,,,,,,18:01:53:058,18:01:53:791,18:01:56:776,left,18:01:57:127,,2018_May_29_1732,59.9384437645,MP-Perception Experiment,xx03w22,
304,vcgpdm_dyn(30)-lvm(35)_final(1).mov,True,left,1,training(24).mov,0,144,144,68,,,,,,,,18:01:57:915,18:01:58:629,18:02:01:630,left,18:02:01:880,,2018_May_29_1732,59.9384437645,MP-Perception Experiment,xx03w22,
305,training(10).mov,True,right,1,vcgpdm_dyn(15)-lvm(10)_final(1).mov,0,145,145,116,,,,,,,,18:02:02:682,18:02:03:381,18:02:06:384,left,18:02:06:617,,2018_May_29_1732,59.9384437645,MP-Perception Experiment,xx03w22,
306,vcgpdm_dyn(10)-lvm(25)_final(5).mov,True,left,1,training(18).mov,0,146,146,75,,,,,,,,18:02:07:410,18:02:08:118,18:02:11:106,left,18:02:11:323,,2018_May_29_1732,59.9384437645,MP-Perception Experiment,xx03w22,
307,vgpdm_dyn(10)-lvm(10)_final(0).mov,True,left,1,training(31).mov,0,147,147,91,,,,,,,,18:02:12:103,18:02:12:824,18:02:15:827,left,18:02:16:078,,2018_May_29_1732,59.9384437645,MP-Perception Experiment,xx03w22,
308,vcgpdm_dyn(10)-lvm(15)_final(0).mov,True,left,1,training(2).mov,0,148,148,86,,,,,,,,18:02:16:877,18:02:17:579,18:02:20:582,left,18:02:20:898,,2018_May_29_1732,59.9384437645,MP-Perception Experiment,xx03w22,
309,training(30).mov,True,right,1,vcgpdm_dyn(25)-lvm(35)_final(1).mov,0,149,149,2,,,,,,,,18:02:21:689,18:02:22:399,18:02:25:418,right,18:02:25:835,,2018_May_29_1732,59.9384437645,MP-Perception Experiment,xx03w22,
310,training(6).mov,True,right,1,vcgpdm_dyn(30)-lvm(25)_final(7).mov,0,150,150,125,,,,,,,,18:02:26:630,18:02:27:337,18:02:30:339,right,18:02:30:640,,2018_May_29_1732,59.9384437645,MP-Perception Experiment,xx03w22,
311,vgpdm_dyn(20)-lvm(20)_final(5).mov,False,left,1,training(36).mov,0,151,151,94,,,,,,,,18:02:31:428,18:02:32:140,18:02:35:144,right,18:02:35:528,,2018_May_29_1732,59.9384437645,MP-Perception Experiment,xx03w22,
312,vcgpdm_dyn(25)-lvm(10)_final(4).mov,False,left,1,training(32).mov,0,152,152,71,,,,,,,,18:02:36:324,18:02:37:029,18:02:40:048,right,18:02:40:348,,2018_May_29_1732,59.9384437645,MP-Perception Experiment,xx03w22,
313,training(5).mov,False,right,1,vcgpdm_dyn(35)-lvm(10)_final(5).mov,0,153,153,139,,,,,,,,18:02:41:123,18:02:41:849,18:02:44:868,right,18:02:45:185,,2018_May_29_1732,59.9384437645,MP-Perception Experiment,xx03w22,
314,training(1).mov,False,right,1,tmp_numprim(7)_final(4).mov,0,154,154,17,,,,,,,,18:02:45:964,18:02:46:687,18:02:49:687,right,18:02:49:954,,2018_May_29_1732,59.9384437645,MP-Perception Experiment,xx03w22,
315,training(10).mov,False,right,1,tmp_numprim(2)_final(0).mov,0,155,155,44,,,,,,,,18:02:50:760,18:02:51:456,18:02:54:459,right,18:02:54:692,,2018_May_29_1732,59.9384437645,MP-Perception Experiment,xx03w22,
316,training(31).mov,False,right,1,vgpdm_dyn(25)-lvm(5)_final(2).mov,0,156,156,23,,,,,,,,18:02:55:495,18:02:56:210,18:02:59:196,right,18:02:59:463,,2018_May_29_1732,59.9384437645,MP-Perception Experiment,xx03w22,
317,training(34).mov,False,right,1,vgpdm_dyn(20)-lvm(35)_final(1).mov,0,157,157,41,,,,,,,,18:03:00:258,18:03:00:981,18:03:03:968,right,18:03:04:235,,2018_May_29_1732,59.9384437645,MP-Perception Experiment,xx03w22,
318,training(33).mov,False,right,1,dmp_npsi(35)_final(4).mov,0,158,158,92,,,,,,,,18:03:05:008,18:03:05:736,18:03:08:756,right,18:03:09:224,,2018_May_29_1732,59.9384437645,MP-Perception Experiment,xx03w22,
319,training(18).mov,True,right,2,tmp_numprim(2)_final(5).mov,0,0,0,28,,,,,,,,18:05:36:331,18:05:37:051,18:05:40:053,right,18:05:40:470,,2018_May_29_1732,59.9384437645,MP-Perception Experiment,xx03w22,
320,training(40).mov,False,right,2,vgpdm_dyn(25)-lvm(20)_final(9).mov,0,1,1,129,,,,,,,,18:05:41:277,18:05:41:988,18:05:44:974,right,18:05:45:474,,2018_May_29_1732,59.9384437645,MP-Perception Experiment,xx03w22,
321,vcgpdm_dyn(5)-lvm(15)_final(4).mov,True,left,2,training(33).mov,0,2,2,85,,,,,,,,18:05:46:265,18:05:46:976,18:05:49:979,left,18:05:50:629,,2018_May_29_1732,59.9384437645,MP-Perception Experiment,xx03w22,
322,training(10).mov,True,right,2,vgpdm_dyn(10)-lvm(20)_final(7).mov,0,3,3,48,,,,,,,,18:05:51:404,18:05:52:131,18:05:55:133,right,18:05:55:800,,2018_May_29_1732,59.9384437645,MP-Perception Experiment,xx03w22,
323,training(37).mov,True,right,2,vcgpdm_dyn(25)-lvm(20)_final(0).mov,0,4,4,53,,,,,,,,18:05:56:593,18:05:57:301,18:06:00:304,right,18:06:00:821,,2018_May_29_1732,59.9384437645,MP-Perception Experiment,xx03w22,
324,vcgpdm_dyn(10)-lvm(35)_final(2).mov,False,left,2,training(31).mov,0,5,5,92,,,,,,,,18:06:01:615,18:06:02:339,18:06:05:326,left,18:06:05:776,,2018_May_29_1732,59.9384437645,MP-Perception Experiment,xx03w22,
325,training(1).mov,False,right,2,vgpdm_dyn(25)-lvm(5)_final(3).mov,0,6,6,77,,,,,,,,18:06:06:560,18:06:07:277,18:06:10:278,right,18:06:10:595,,2018_May_29_1732,59.9384437645,MP-Perception Experiment,xx03w22,
326,vgpdm_dyn(25)-lvm(20)_final(4).mov,False,left,2,training(17).mov,0,7,7,108,,,,,,,,18:06:11:387,18:06:12:096,18:06:15:098,left,18:06:15:449,,2018_May_29_1732,59.9384437645,MP-Perception Experiment,xx03w22,
327,vgpdm_dyn(25)-lvm(30)_final(4).mov,False,left,2,training(40).mov,0,8,8,82,,,,,,,,18:06:16:235,18:06:16:966,18:06:19:952,left,18:06:20:353,,2018_May_29_1732,59.9384437645,MP-Perception Experiment,xx03w22,
328,training(26).mov,True,right,2,vcgpdm_dyn(15)-lvm(10)_final(0).mov,0,9,9,104,,,,,,,,18:06:21:144,18:06:21:855,18:06:24:859,right,18:06:25:493,,2018_May_29_1732,59.9384437645,MP-Perception Experiment,xx03w22,
329,training(13).mov,False,right,2,dmp_npsi(35)_final(4).mov,0,10,10,51,,,,,,,,18:06:26:286,18:06:27:011,18:06:29:996,right,18:06:30:480,,2018_May_29_1732,59.9384437645,MP-Perception Experiment,xx03w22,
330,training(5).mov,False,right,2,vcgpdm_dyn(15)-lvm(25)_final(1).mov,0,11,11,151,,,,,,,,18:06:31:266,18:06:31:981,18:06:34:984,right,18:06:35:384,,2018_May_29_1732,59.9384437645,MP-Perception Experiment,xx03w22,
331,training(13).mov,False,right,2,vcgpdm_dyn(10)-lvm(15)_final(1).mov,0,12,12,154,,,,,,,,18:06:36:172,18:06:36:885,18:06:39:889,right,18:06:40:639,,2018_May_29_1732,59.9384437645,MP-Perception Experiment,xx03w22,
332,vcgpdm_dyn(30)-lvm(30)_final(7).mov,False,left,2,training(38).mov,0,13,13,156,,,,,,,,18:06:41:425,18:06:42:141,18:06:45:143,left,18:06:45:643,,2018_May_29_1732,59.9384437645,MP-Perception Experiment,xx03w22,
333,training(11).mov,True,right,2,vcgpdm_dyn(10)-lvm(20)_final(8).mov,0,14,14,44,,,,,,,,18:06:46:431,18:06:47:161,18:06:50:147,right,18:06:50:598,,2018_May_29_1732,59.9384437645,MP-Perception Experiment,xx03w22,
334,training(39).mov,True,right,2,vcgpdm_dyn(10)-lvm(5)_final(7).mov,0,15,15,3,,,,,,,,18:06:52:182,18:06:52:182,18:06:55:101,right,18:06:55:753,,2018_May_29_1732,59.9384437645,MP-Perception Experiment,xx03w22,
335,vgpdm_dyn(10)-lvm(5)_final(3).mov,False,left,2,training(20).mov,0,16,16,54,,,,,,,,18:06:56:544,18:06:57:254,18:07:00:254,left,18:07:00:872,,2018_May_29_1732,59.9384437645,MP-Perception Experiment,xx03w22,
336,training(41).mov,False,right,2,dmp_npsi(25)_final(3).mov,0,17,17,86,,,,,,,,18:07:01:986,18:07:02:489,18:07:05:375,right,18:07:05:909,,2018_May_29_1732,59.9384437645,MP-Perception Experiment,xx03w22,
337,training(12).mov,True,right,2,vgpdm_dyn(15)-lvm(35)_final(4).mov,0,18,18,16,,,,,,,,18:07:06:702,18:07:07:410,18:07:10:413,right,18:07:10:746,,2018_May_29_1732,59.9384437645,MP-Perception Experiment,xx03w22,
338,vcgpdm_dyn(15)-lvm(20)_final(4).mov,False,left,2,training(36).mov,0,19,19,70,,,,,,,,18:07:11:522,18:07:12:266,18:07:15:253,left,18:07:15:803,,2018_May_29_1732,59.9384437645,MP-Perception Experiment,xx03w22,
339,tmp_numprim(2)_final(2).mov,True,left,2,training(13).mov,0,20,20,88,,,,,,,,18:07:16:583,18:07:17:304,18:07:20:307,left,18:07:20:757,,2018_May_29_1732,59.9384437645,MP-Perception Experiment,xx03w22,
340,training(21).mov,False,right,2,vgpdm_dyn(25)-lvm(25)_final(1)_bad.mov,0,21,21,140,,,,,,,,18:07:21:541,18:07:22:258,18:07:25:278,right,18:07:25:728,,2018_May_29_1732,59.9384437645,MP-Perception Experiment,xx03w22,
341,vcgpdm_dyn(25)-lvm(10)_final(9).mov,True,left,2,training(21).mov,0,22,22,102,,,,,,,,18:07:26:498,18:07:27:229,18:07:30:248,left,18:07:30:866,,2018_May_29_1732,59.9384437645,MP-Perception Experiment,xx03w22,
342,vgpdm_dyn(15)-lvm(15)_final(1).mov,False,left,2,training(37).mov,0,23,23,14,,,,,,,,18:07:31:662,18:07:32:367,18:07:35:370,left,18:07:35:854,,2018_May_29_1732,59.9384437645,MP-Perception Experiment,xx03w22,
343,training(1).mov,True,right,2,vgpdm_dyn(10)-lvm(20)_final(2).mov,0,24,24,100,,,,,,,,18:07:36:639,18:07:37:355,18:07:40:357,right,18:07:40:975,,2018_May_29_1732,59.9384437645,MP-Perception Experiment,xx03w22,
344,vgpdm_dyn(5)-lvm(25)_final(8)_out_of_screen.mov,True,left,2,training(17).mov,0,25,25,95,,,,,,,,18:07:41:764,18:07:42:476,18:07:45:495,left,18:07:45:895,,2018_May_29_1732,59.9384437645,MP-Perception Experiment,xx03w22,
345,vcgpdm_dyn(25)-lvm(20)_final(5).mov,True,left,2,training(21).mov,0,26,26,10,,,,,,,,18:07:46:667,18:07:47:396,18:07:50:398,left,18:07:50:915,,2018_May_29_1732,59.9384437645,MP-Perception Experiment,xx03w22,
346,training(1).mov,True,right,2,vgpdm_dyn(15)-lvm(25)_final(1).mov,0,27,27,91,,,,,,,,18:07:52:215,18:07:52:716,18:07:55:419,left,18:07:56:002,,2018_May_29_1732,59.9384437645,MP-Perception Experiment,xx03w22,
347,vcgpdm_dyn(35)-lvm(5)_final(7).mov,True,left,2,training(30).mov,0,28,28,93,,,,,,,,18:07:56:788,18:07:57:504,18:08:00:506,left,18:08:01:057,,2018_May_29_1732,59.9384437645,MP-Perception Experiment,xx03w22,
348,dmp_npsi(45)_final(3).mov,False,left,2,training(17).mov,0,29,29,118,,,,,,,,18:08:01:846,18:08:02:558,18:08:05:546,left,18:08:06:113,,2018_May_29_1732,59.9384437645,MP-Perception Experiment,xx03w22,
349,training(18).mov,False,right,2,vgpdm_dyn(10)-lvm(30)_final(5).mov,0,30,30,37,,,,,,,,18:08:06:902,18:08:07:615,18:08:10:617,right,18:08:11:084,,2018_May_29_1732,59.9384437645,MP-Perception Experiment,xx03w22,
350,vgpdm_dyn(30)-lvm(35)_final(4).mov,True,left,2,training(3).mov,0,31,31,142,,,,,,,,18:08:11:865,18:08:12:585,18:08:15:588,left,18:08:16:038,,2018_May_29_1732,59.9384437645,MP-Perception Experiment,xx03w22,
351,vcgpdm_dyn(15)-lvm(30)_final(5).mov,False,left,2,training(32).mov,0,32,32,122,,,,,,,,18:08:16:823,18:08:17:539,18:08:20:542,right,18:08:20:759,,2018_May_29_1732,59.9384437645,MP-Perception Experiment,xx03w22,
352,map_cgpdm_final(8).mov,True,left,2,training(30).mov,0,33,33,65,,,,,,,,18:08:21:560,18:08:22:260,18:08:25:263,left,18:08:25:680,,2018_May_29_1732,59.9384437645,MP-Perception Experiment,xx03w22,
353,vcgpdm_dyn(10)-lvm(10)_final(7).mov,False,left,2,training(20).mov,0,34,34,29,,,,,,,,18:08:26:462,18:08:27:198,18:08:30:184,left,18:08:30:568,,2018_May_29_1732,59.9384437645,MP-Perception Experiment,xx03w22,
354,training(33).mov,False,right,2,vgpdm_dyn(10)-lvm(15)_final(1).mov,0,35,35,125,,,,,,,,18:08:31:354,18:08:32:069,18:08:35:088,right,18:08:35:555,,2018_May_29_1732,59.9384437645,MP-Perception Experiment,xx03w22,
355,training(0).mov,True,right,2,vgpdm_dyn(20)-lvm(25)_final(8).mov,0,36,36,149,,,,,,,,18:08:36:345,18:08:37:073,18:08:40:057,right,18:08:40:642,,2018_May_29_1732,59.9384437645,MP-Perception Experiment,xx03w22,
356,training(5).mov,True,right,2,vgpdm_dyn(15)-lvm(20)_final(5)_out_of_screen.mov,0,37,37,13,,,,,,,,18:08:41:421,18:08:42:143,18:08:45:145,right,18:08:45:746,,2018_May_29_1732,59.9384437645,MP-Perception Experiment,xx03w22,
357,dmp_npsi(35)_final(7).mov,True,left,2,training(31).mov,0,38,38,69,,,,,,,,18:08:46:535,18:08:47:247,18:08:50:249,right,18:08:50:766,,2018_May_29_1732,59.9384437645,MP-Perception Experiment,xx03w22,
358,training(40).mov,False,right,2,tmp_numprim(5)_final(5).mov,0,39,39,134,,,,,,,,18:08:52:278,18:08:52:278,18:08:55:255,right,18:08:55:789,,2018_May_29_1732,59.9384437645,MP-Perception Experiment,xx03w22,
359,training(32).mov,True,right,2,vgpdm_dyn(5)-lvm(15)_final(0).mov,0,40,40,119,,,,,,,,18:08:56:603,18:08:57:307,18:09:00:293,right,18:09:01:178,,2018_May_29_1732,59.9384437645,MP-Perception Experiment,xx03w22,
360,training(21).mov,False,right,2,map_cgpdm_final(9).mov,0,41,41,109,,,,,,,,18:09:01:954,18:09:02:679,18:09:05:698,right,18:09:06:132,,2018_May_29_1732,59.9384437645,MP-Perception Experiment,xx03w22,
361,vcgpdm_dyn(10)-lvm(10)_final(4).mov,True,left,2,training(23).mov,0,42,42,124,,,,,,,,18:09:06:920,18:09:07:633,18:09:10:652,right,18:09:11:202,,2018_May_29_1732,59.9384437645,MP-Perception Experiment,xx03w22,
362,dmp_npsi(45)_final(1).mov,True,left,2,training(35).mov,0,43,43,83,,,,,,,,18:09:11:983,18:09:12:703,18:09:15:724,left,18:09:16:458,,2018_May_29_1732,59.9384437645,MP-Perception Experiment,xx03w22,
363,training(9).mov,True,right,2,vgpdm_dyn(20)-lvm(30)_final(3).mov,0,44,44,117,,,,,,,,18:09:17:236,18:09:17:975,18:09:20:961,right,18:09:21:528,,2018_May_29_1732,59.9384437645,MP-Perception Experiment,xx03w22,
364,vcgpdm_dyn(10)-lvm(25)_final(1).mov,False,left,2,training(15).mov,0,45,45,52,,,,,,,,18:09:22:310,18:09:23:029,18:09:26:049,left,18:09:26:682,,2018_May_29_1732,59.9384437645,MP-Perception Experiment,xx03w22,
365,vgpdm_dyn(30)-lvm(5)_final(0).mov,False,left,2,training(23).mov,0,46,46,107,,,,,,,,18:09:27:466,18:09:28:184,18:09:31:184,left,18:09:33:103,,2018_May_29_1732,59.9384437645,MP-Perception Experiment,xx03w22,
366,training(0).mov,True,right,2,tmp_numprim(3)_final(3).mov,0,47,47,81,,,,,,,,18:09:33:894,18:09:34:605,18:09:37:607,right,18:09:38:224,,2018_May_29_1732,59.9384437645,MP-Perception Experiment,xx03w22,
367,vcgpdm_dyn(25)-lvm(5)_final(1).mov,False,left,2,training(32).mov,0,48,48,58,,,,,,,,18:09:39:009,18:09:39:725,18:09:42:728,right,18:09:43:228,,2018_May_29_1732,59.9384437645,MP-Perception Experiment,xx03w22,
368,training(27).mov,False,right,2,vgpdm_dyn(20)-lvm(25)_final(8).mov,0,49,49,78,,,,,,,,18:09:44:016,18:09:44:731,18:09:47:717,right,18:09:48:151,,2018_May_29_1732,59.9384437645,MP-Perception Experiment,xx03w22,
369,vgpdm_dyn(5)-lvm(20)_final(8).mov,True,left,2,training(0).mov,0,50,50,79,,,,,,,,18:09:48:934,18:09:49:652,18:09:52:672,left,18:09:53:289,,2018_May_29_1732,59.9384437645,MP-Perception Experiment,xx03w22,
370,vgpdm_dyn(5)-lvm(20)_final(2).mov,False,left,2,training(36).mov,0,51,51,15,,,,,,,,18:09:54:074,18:09:54:790,18:09:57:810,left,18:09:58:577,,2018_May_29_1732,59.9384437645,MP-Perception Experiment,xx03w22,
371,training(40).mov,True,right,2,vcgpdm_dyn(25)-lvm(5)_final(9).mov,0,52,52,27,,,,,,,,18:09:59:364,18:10:00:078,18:10:03:097,right,18:10:03:698,,2018_May_29_1732,59.9384437645,MP-Perception Experiment,xx03w22,
372,training(28).mov,False,right,2,vcgpdm_dyn(30)-lvm(25)_final(0).mov,0,53,53,114,,,,,,,,18:10:04:511,18:10:05:199,18:10:08:202,right,18:10:08:636,,2018_May_29_1732,59.9384437645,MP-Perception Experiment,xx03w22,
373,training(2).mov,True,right,2,tmp_numprim(7)_final(1).mov,0,54,54,42,,,,,,,,18:10:09:426,18:10:10:154,18:10:13:139,right,18:10:13:723,,2018_May_29_1732,59.9384437645,MP-Perception Experiment,xx03w22,
374,training(9).mov,True,right,2,vgpdm_dyn(35)-lvm(35)_final(9).mov,0,55,55,36,,,,,,,,18:10:14:530,18:10:15:241,18:10:18:244,right,18:10:18:711,,2018_May_29_1732,59.9384437645,MP-Perception Experiment,xx03w22,
375,training(14).mov,True,right,2,tmp_numprim(3)_final(7).mov,0,56,56,11,,,,,,,,18:10:19:495,18:10:20:227,18:10:23:213,right,18:10:23:646,,2018_May_29_1732,59.9384437645,MP-Perception Experiment,xx03w22,
376,tmp_numprim(5)_final(6).mov,False,left,2,training(1).mov,0,57,57,98,,,,,,,,18:10:24:445,18:10:25:147,18:10:28:151,left,18:10:28:468,,2018_May_29_1732,59.9384437645,MP-Perception Experiment,xx03w22,
377,training(48).mov,False,right,2,vcgpdm_dyn(15)-lvm(20)_final(4).mov,0,58,58,148,,,,,,,,18:10:29:260,18:10:29:969,18:10:32:957,left,18:10:33:524,,2018_May_29_1732,59.9384437645,MP-Perception Experiment,xx03w22,
378,training(34).mov,True,right,2,map_cgpdm_final(5).mov,0,59,59,147,,,,,,,,18:10:34:319,18:10:35:025,18:10:38:027,right,18:10:38:795,,2018_May_29_1732,59.9384437645,MP-Perception Experiment,xx03w22,
379,vgpdm_dyn(35)-lvm(35)_final(7).mov,True,left,2,training(21).mov,0,60,60,136,,,,,,,,18:10:39:574,18:10:40:296,18:10:43:299,right,18:10:44:033,,2018_May_29_1732,59.9384437645,MP-Perception Experiment,xx03w22,
380,training(32).mov,True,right,2,vgpdm_dyn(25)-lvm(30)_final(3).mov,0,61,61,19,,,,,,,,18:10:44:812,18:10:45:534,18:10:48:537,right,18:10:49:187,,2018_May_29_1732,59.9384437645,MP-Perception Experiment,xx03w22,
381,map_cgpdm_final(6).mov,True,left,2,training(18).mov,0,62,62,96,,,,,,,,18:10:49:976,18:10:50:689,18:10:53:691,left,18:10:54:375,,2018_May_29_1732,59.9384437645,MP-Perception Experiment,xx03w22,
382,training(25).mov,True,right,2,vcgpdm_dyn(15)-lvm(35)_final(5).mov,0,63,63,24,,,,,,,,18:10:55:162,18:10:55:876,18:10:58:879,right,18:10:59:679,,2018_May_29_1732,59.9384437645,MP-Perception Experiment,xx03w22,
383,training(2).mov,True,right,2,vgpdm_dyn(10)-lvm(15)_final(7).mov,0,64,64,66,,,,,,,,18:11:00:468,18:11:01:181,18:11:04:184,right,18:11:04:935,,2018_May_29_1732,59.9384437645,MP-Perception Experiment,xx03w22,
384,vcgpdm_dyn(15)-lvm(5)_final(5).mov,True,left,2,training(2).mov,0,65,65,68,,,,,,,,18:11:05:720,18:11:06:435,18:11:09:455,left,18:11:09:872,,2018_May_29_1732,59.9384437645,MP-Perception Experiment,xx03w22,
385,vcgpdm_dyn(25)-lvm(25)_final(5).mov,True,left,2,training(37).mov,0,66,66,63,,,,,,,,18:11:10:663,18:11:11:388,18:11:14:390,left,18:11:14:807,,2018_May_29_1732,59.9384437645,MP-Perception Experiment,xx03w22,
386,training(48).mov,False,right,2,vcgpdm_dyn(10)-lvm(25)_final(0).mov,0,67,67,73,,,,,,,,18:11:15:593,18:11:16:308,18:11:19:312,right,18:11:19:879,,2018_May_29_1732,59.9384437645,MP-Perception Experiment,xx03w22,
387,vcgpdm_dyn(35)-lvm(15)_final(6)_out_of_screen.mov,True,left,2,training(48).mov,0,68,68,120,,,,,,,,18:11:20:661,18:11:21:381,18:11:24:401,left,18:11:25:002,,2018_May_29_1732,59.9384437645,MP-Perception Experiment,xx03w22,
388,training(48).mov,True,right,2,vcgpdm_dyn(5)-lvm(5)_final(0).mov,0,69,69,103,,,,,,,,18:11:25:805,18:11:26:503,18:11:29:522,right,18:11:30:022,,2018_May_29_1732,59.9384437645,MP-Perception Experiment,xx03w22,
389,map_gpdm_final(0).mov,False,left,2,training(6).mov,0,70,70,139,,,,,,,,18:11:30:810,18:11:31:523,18:11:34:526,left,18:11:35:344,,2018_May_29_1732,59.9384437645,MP-Perception Experiment,xx03w22,
390,training(7).mov,False,right,2,vcgpdm_dyn(25)-lvm(30)_final(5).mov,0,71,71,32,,,,,,,,18:11:36:115,18:11:36:862,18:11:39:848,left,18:11:40:882,,2018_May_29_1732,59.9384437645,MP-Perception Experiment,xx03w22,
391,vgpdm_dyn(20)-lvm(5)_final(3).mov,True,left,2,training(35).mov,0,72,72,113,,,,,,,,18:11:41:674,18:11:42:383,18:11:45:402,left,18:11:46:020,,2018_May_29_1732,59.9384437645,MP-Perception Experiment,xx03w22,
392,vgpdm_dyn(10)-lvm(30)_final(4).mov,False,left,2,training(41).mov,0,73,73,55,,,,,,,,18:11:46:803,18:11:47:537,18:11:50:540,left,18:11:51:324,,2018_May_29_1732,59.9384437645,MP-Perception Experiment,xx03w22,
393,training(31).mov,False,right,2,vcgpdm_dyn(25)-lvm(35)_final(1).mov,0,74,74,90,,,,,,,,18:11:52:127,18:11:52:826,18:11:55:828,right,18:11:56:346,,2018_May_29_1732,59.9384437645,MP-Perception Experiment,xx03w22,
394,vcgpdm_dyn(20)-lvm(5)_final(7).mov,True,left,2,training(35).mov,0,75,75,141,,,,,,,,18:11:57:141,18:11:57:847,18:12:00:848,left,18:12:01:465,,2018_May_29_1732,59.9384437645,MP-Perception Experiment,xx03w22,
395,training(8).mov,True,right,2,vcgpdm_dyn(20)-lvm(20)_final(2).mov,0,76,76,157,,,,,,,,18:12:02:255,18:12:02:982,18:12:05:968,right,18:12:06:335,,2018_May_29_1732,59.9384437645,MP-Perception Experiment,xx03w22,
396,training(2).mov,False,right,2,vcgpdm_dyn(25)-lvm(35)_final(6).mov,0,77,77,145,,,,,,,,18:12:07:114,18:12:07:836,18:12:10:840,right,18:12:11:173,,2018_May_29_1732,59.9384437645,MP-Perception Experiment,xx03w22,
397,vcgpdm_dyn(20)-lvm(30)_final(1).mov,False,left,2,training(24).mov,0,78,78,121,,,,,,,,18:12:11:949,18:12:12:675,18:12:15:662,left,18:12:15:912,,2018_May_29_1732,59.9384437645,MP-Perception Experiment,xx03w22,
398,vcgpdm_dyn(20)-lvm(20)_final(5).mov,False,left,2,training(16).mov,0,79,79,30,,,,,,,,18:12:16:693,18:12:17:413,18:12:20:416,right,18:12:21:000,,2018_May_29_1732,59.9384437645,MP-Perception Experiment,xx03w22,
399,training(6).mov,True,right,2,vgpdm_dyn(10)-lvm(35)_final(4).mov,0,80,80,46,,,,,,,,18:12:21:768,18:12:22:501,18:12:25:503,right,18:12:25:837,,2018_May_29_1732,59.9384437645,MP-Perception Experiment,xx03w22,
400,training(9).mov,True,right,2,vgpdm_dyn(35)-lvm(25)_final(2).mov,0,81,81,4,,,,,,,,18:12:26:620,18:12:27:338,18:12:30:359,right,18:12:31:242,,2018_May_29_1732,59.9384437645,MP-Perception Experiment,xx03w22,
401,training(11).mov,False,right,2,dmp_npsi(15)_final(3).mov,0,82,82,31,,,,,,,,18:12:32:026,18:12:32:743,18:12:35:746,right,18:12:36:513,,2018_May_29_1732,59.9384437645,MP-Perception Experiment,xx03w22,
402,training(4).mov,False,right,2,vcgpdm_dyn(10)-lvm(20)_final(3).mov,0,83,83,25,,,,,,,,18:12:37:284,18:12:38:014,18:12:41:034,right,18:12:41:568,,2018_May_29_1732,59.9384437645,MP-Perception Experiment,xx03w22,
403,vgpdm_dyn(35)-lvm(5)_final(4).mov,True,left,2,training(23).mov,0,84,84,146,,,,,,,,18:12:42:349,18:12:43:069,18:12:46:089,left,18:12:47:190,,2018_May_29_1732,59.9384437645,MP-Perception Experiment,xx03w22,
404,vgpdm_dyn(15)-lvm(30)_final(5).mov,False,left,2,training(32).mov,0,85,85,8,,,,,,,,18:12:47:979,18:12:48:707,18:12:51:691,left,18:12:51:992,,2018_May_29_1732,59.9384437645,MP-Perception Experiment,xx03w22,
405,vgpdm_dyn(30)-lvm(10)_final(6).mov,False,left,2,training(10).mov,0,86,86,131,,,,,,,,18:12:52:775,18:12:53:493,18:12:56:495,left,18:12:56:762,,2018_May_29_1732,59.9384437645,MP-Perception Experiment,xx03w22,
406,map_gpdm_final(8).mov,True,left,2,training(27).mov,0,87,87,67,,,,,,,,18:12:57:540,18:12:58:263,18:13:01:266,left,18:13:01:549,,2018_May_29_1732,59.9384437645,MP-Perception Experiment,xx03w22,
407,training(29).mov,False,right,2,vcgpdm_dyn(15)-lvm(35)_final(7).mov,0,88,88,18,,,,,,,,18:13:02:346,18:13:03:068,18:13:06:056,right,18:13:06:556,,2018_May_29_1732,59.9384437645,MP-Perception Experiment,xx03w22,
408,dmp_npsi(40)_final(0).mov,False,left,2,training(2).mov,0,89,89,153,,,,,,,,18:13:07:346,18:13:08:057,18:13:11:060,right,18:13:11:477,,2018_May_29_1732,59.9384437645,MP-Perception Experiment,xx03w22,
409,training(29).mov,False,right,2,vcgpdm_dyn(10)-lvm(30)_final(7).mov,0,90,90,49,,,,,,,,18:13:12:272,18:13:12:978,18:13:15:981,right,18:13:16:347,,2018_May_29_1732,59.9384437645,MP-Perception Experiment,xx03w22,
410,training(7).mov,False,right,2,vgpdm_dyn(10)-lvm(20)_final(0).mov,0,91,91,123,,,,,,,,18:13:17:123,18:13:17:849,18:13:20:869,right,18:13:21:202,,2018_May_29_1732,59.9384437645,MP-Perception Experiment,xx03w22,
411,training(14).mov,True,right,2,vcgpdm_dyn(25)-lvm(20)_final(9).mov,0,92,92,26,,,,,,,,18:13:21:983,18:13:22:720,18:13:25:706,right,18:13:26:156,,2018_May_29_1732,59.9384437645,MP-Perception Experiment,xx03w22,
412,training(40).mov,True,right,2,vgpdm_dyn(30)-lvm(15)_final(2).mov,0,93,93,22,,,,,,,,18:13:26:946,18:13:27:657,18:13:30:660,right,18:13:30:960,,2018_May_29_1732,59.9384437645,MP-Perception Experiment,xx03w22,
413,vgpdm_dyn(30)-lvm(15)_final(0).mov,True,left,2,training(24).mov,0,94,94,80,,,,,,,,18:13:31:759,18:13:32:478,18:13:35:464,left,18:13:36:181,,2018_May_29_1732,59.9384437645,MP-Perception Experiment,xx03w22,
414,training(1).mov,True,right,2,tmp_numprim(7)_final(0).mov,0,95,95,57,,,,,,,,18:13:36:963,18:13:37:683,18:13:40:684,right,18:13:41:185,,2018_May_29_1732,59.9384437645,MP-Perception Experiment,xx03w22,
415,vcgpdm_dyn(30)-lvm(20)_final(3).mov,False,left,2,training(10).mov,0,96,96,111,,,,,,,,18:13:41:976,18:13:42:686,18:13:45:688,left,18:13:46:138,,2018_May_29_1732,59.9384437645,MP-Perception Experiment,xx03w22,
416,training(27).mov,False,right,2,vcgpdm_dyn(35)-lvm(30)_final(6).mov,0,97,97,137,,,,,,,,18:13:46:910,18:13:47:639,18:13:50:642,right,18:13:51:159,,2018_May_29_1732,59.9384437645,MP-Perception Experiment,xx03w22,
417,training(35).mov,False,right,2,vcgpdm_dyn(25)-lvm(30)_final(5).mov,0,98,98,115,,,,,,,,18:13:52:221,18:13:52:729,18:13:55:649,right,18:13:56:149,,2018_May_29_1732,59.9384437645,MP-Perception Experiment,xx03w22,
418,training(24).mov,True,right,2,vcgpdm_dyn(5)-lvm(20)_final(9).mov,0,99,99,9,,,,,,,,18:13:56:945,18:13:57:650,18:14:00:653,right,18:14:01:103,,2018_May_29_1732,59.9384437645,MP-Perception Experiment,xx03w22,
419,training(3).mov,False,right,2,vcgpdm_dyn(10)-lvm(35)_final(5).mov,0,100,100,2,,,,,,,,18:14:01:886,18:14:02:604,18:14:05:623,right,18:14:05:924,,2018_May_29_1732,59.9384437645,MP-Perception Experiment,xx03w22,
420,training(38).mov,False,right,2,vcgpdm_dyn(25)-lvm(25)_final(6).mov,0,101,101,127,,,,,,,,18:14:06:717,18:14:07:425,18:14:10:427,right,18:14:10:878,,2018_May_29_1732,59.9384437645,MP-Perception Experiment,xx03w22,
421,training(35).mov,False,right,2,vcgpdm_dyn(5)-lvm(5)_final(0).mov,0,102,102,89,,,,,,,,18:14:11:668,18:14:12:396,18:14:15:399,right,18:14:15:749,,2018_May_29_1732,59.9384437645,MP-Perception Experiment,xx03w22,
422,vcgpdm_dyn(5)-lvm(10)_final(0).mov,False,left,2,training(39).mov,0,103,103,84,,,,,,,,18:14:16:530,18:14:17:250,18:14:20:270,left,18:14:20:703,,2018_May_29_1732,59.9384437645,MP-Perception Experiment,xx03w22,
423,training(27).mov,False,right,2,tmp_numprim(6)_final(3).mov,0,104,104,12,,,,,,,,18:14:21:485,18:14:22:205,18:14:25:207,right,18:14:25:808,,2018_May_29_1732,59.9384437645,MP-Perception Experiment,xx03w22,
424,vgpdm_dyn(10)-lvm(10)_final(8).mov,False,left,2,training(10).mov,0,105,105,138,,,,,,,,18:14:26:601,18:14:27:309,18:14:30:310,left,18:14:30:661,,2018_May_29_1732,59.9384437645,MP-Perception Experiment,xx03w22,
425,vgpdm_dyn(35)-lvm(25)_final(9).mov,True,left,2,training(3).mov,0,106,106,64,,,,,,,,18:14:31:438,18:14:32:162,18:14:35:164,right,18:14:35:498,,2018_May_29_1732,59.9384437645,MP-Perception Experiment,xx03w22,
426,vcgpdm_dyn(30)-lvm(10)_final(4).mov,False,left,2,training(28).mov,0,107,107,59,,,,,,,,18:14:36:264,18:14:36:999,18:14:40:001,left,18:14:40:252,,2018_May_29_1732,59.9384437645,MP-Perception Experiment,xx03w22,
427,training(11).mov,True,right,2,vcgpdm_dyn(20)-lvm(15)_final(5).mov,0,108,108,34,,,,,,,,18:14:41:041,18:14:41:753,18:14:44:740,right,18:14:45:158,,2018_May_29_1732,59.9384437645,MP-Perception Experiment,xx03w22,
428,vgpdm_dyn(35)-lvm(35)_final(2).mov,True,left,2,training(6).mov,0,109,109,97,,,,,,,,18:14:45:941,18:14:46:659,18:14:49:662,left,18:14:50:179,,2018_May_29_1732,59.9384437645,MP-Perception Experiment,xx03w22,
429,training(9).mov,False,right,2,vgpdm_dyn(30)-lvm(25)_final(0).mov,0,110,110,101,,,,,,,,18:14:52:088,18:14:52:089,18:14:54:700,right,18:14:55:167,,2018_May_29_1732,59.9384437645,MP-Perception Experiment,xx03w22,
430,training(1).mov,False,right,2,vcgpdm_dyn(20)-lvm(25)_final(5).mov,0,111,111,6,,,,,,,,18:14:55:942,18:14:56:668,18:14:59:670,right,18:15:00:171,,2018_May_29_1732,59.9384437645,MP-Perception Experiment,xx03w22,
431,training(12).mov,True,right,2,vcgpdm_dyn(30)-lvm(15)_final(6).mov,0,112,112,47,,,,,,,,18:15:00:947,18:15:01:672,18:15:04:674,right,18:15:05:259,,2018_May_29_1732,59.9384437645,MP-Perception Experiment,xx03w22,
432,vgpdm_dyn(30)-lvm(25)_final(7).mov,False,left,2,training(32).mov,0,113,113,143,,,,,,,,18:15:06:043,18:15:06:760,18:15:09:763,left,18:15:10:497,,2018_May_29_1732,59.9384437645,MP-Perception Experiment,xx03w22,
433,vcgpdm_dyn(30)-lvm(5)_final(0).mov,True,left,2,training(29).mov,0,114,114,158,,,,,,,,18:15:11:270,18:15:12:014,18:15:15:000,left,18:15:15:301,,2018_May_29_1732,59.9384437645,MP-Perception Experiment,xx03w22,
434,vcgpdm_dyn(15)-lvm(30)_final(5).mov,False,left,2,training(39).mov,0,115,115,1,,,,,,,,18:15:16:098,18:15:16:802,18:15:19:804,left,18:15:20:136,,2018_May_29_1732,59.9384437645,MP-Perception Experiment,xx03w22,
435,vgpdm_dyn(20)-lvm(5)_final(0).mov,True,left,2,training(34).mov,0,116,116,128,,,,,,,,18:15:20:912,18:15:21:637,18:15:24:641,left,18:15:24:924,,2018_May_29_1732,59.9384437645,MP-Perception Experiment,xx03w22,
436,vcgpdm_dyn(25)-lvm(20)_final(9).mov,True,left,2,training(14).mov,0,117,117,105,,,,,,,,18:15:25:704,18:15:26:425,18:15:29:428,left,18:15:29:695,,2018_May_29_1732,59.9384437645,MP-Perception Experiment,xx03w22,
437,training(29).mov,False,right,2,vgpdm_dyn(20)-lvm(30)_final(1).mov,0,118,118,61,,,,,,,,18:15:30:493,18:15:31:196,18:15:34:183,right,18:15:34:567,,2018_May_29_1732,59.9384437645,MP-Perception Experiment,xx03w22,
438,vgpdm_dyn(30)-lvm(5)_final(0).mov,False,left,2,training(27).mov,0,119,119,62,,,,,,,,18:15:35:352,18:15:36:068,18:15:39:071,left,18:15:39:471,,2018_May_29_1732,59.9384437645,MP-Perception Experiment,xx03w22,
439,training(4).mov,False,right,2,tmp_numprim(6)_final(8).mov,0,120,120,43,,,,,,,,18:15:40:265,18:15:40:990,18:15:43:976,right,18:15:44:343,,2018_May_29_1732,59.9384437645,MP-Perception Experiment,xx03w22,
440,vcgpdm_dyn(20)-lvm(20)_final(0).mov,False,left,2,training(28).mov,0,121,121,135,,,,,,,,18:15:45:128,18:15:45:844,18:15:48:846,left,18:15:49:180,,2018_May_29_1732,59.9384437645,MP-Perception Experiment,xx03w22,
441,training(21).mov,True,right,2,vcgpdm_dyn(35)-lvm(30)_final(0).mov,0,122,122,5,,,,,,,,18:15:49:974,18:15:50:681,18:15:53:683,left,18:15:54:084,,2018_May_29_1732,59.9384437645,MP-Perception Experiment,xx03w22,
442,vcgpdm_dyn(30)-lvm(15)_final(6).mov,False,left,2,training(39).mov,0,123,123,112,,,,,,,,18:15:54:863,18:15:55:585,18:15:58:589,right,18:15:59:090,,2018_May_29_1732,59.9384437645,MP-Perception Experiment,xx03w22,
443,vcgpdm_dyn(10)-lvm(35)_final(0).mov,False,left,2,training(33).mov,0,124,124,106,,,,,,,,18:15:59:901,18:16:00:607,18:16:03:609,left,18:16:04:043,,2018_May_29_1732,59.9384437645,MP-Perception Experiment,xx03w22,
444,training(27).mov,False,right,2,vcgpdm_dyn(15)-lvm(35)_final(3).mov,0,125,125,21,,,,,,,,18:16:04:829,18:16:05:544,18:16:08:546,right,18:16:08:580,,2018_May_29_1732,59.9384437645,MP-Perception Experiment,xx03w22,
445,vgpdm_dyn(35)-lvm(10)_final(3).mov,False,left,2,training(11).mov,0,126,126,41,,,,,,,,18:16:09:381,18:16:10:081,18:16:13:082,left,18:16:13:782,,2018_May_29_1732,59.9384437645,MP-Perception Experiment,xx03w22,
446,vgpdm_dyn(5)-lvm(30)_final(7).mov,False,left,2,training(41).mov,0,127,127,155,,,,,,,,18:16:14:574,18:16:15:284,18:16:18:287,left,18:16:18:754,,2018_May_29_1732,59.9384437645,MP-Perception Experiment,xx03w22,
447,training(6).mov,False,right,2,map_cgpdm_final(7).mov,0,128,128,150,,,,,,,,18:16:19:556,18:16:20:255,18:16:23:243,right,18:16:23:843,,2018_May_29_1732,59.9384437645,MP-Perception Experiment,xx03w22,
448,training(26).mov,False,right,2,vgpdm_dyn(15)-lvm(25)_final(7).mov,0,129,129,144,,,,,,,,18:16:24:608,18:16:25:344,18:16:28:347,right,18:16:28:831,,2018_May_29_1732,59.9384437645,MP-Perception Experiment,xx03w22,
449,tmp_numprim(10)_final(5).mov,True,left,2,training(40).mov,0,130,130,20,,,,,,,,18:16:29:618,18:16:30:332,18:16:33:335,left,18:16:33:819,,2018_May_29_1732,59.9384437645,MP-Perception Experiment,xx03w22,
450,training(9).mov,True,right,2,vcgpdm_dyn(25)-lvm(15)_final(1).mov,0,131,131,35,,,,,,,,18:16:34:608,18:16:35:320,18:16:38:322,right,18:16:38:940,,2018_May_29_1732,59.9384437645,MP-Perception Experiment,xx03w22,
451,training(28).mov,True,right,2,vgpdm_dyn(5)-lvm(30)_final(9).mov,0,132,132,0,,,,,,,,18:16:39:744,18:16:40:441,18:16:43:460,right,18:16:43:927,,2018_May_29_1732,59.9384437645,MP-Perception Experiment,xx03w22,
452,training(3).mov,False,right,2,vgpdm_dyn(25)-lvm(30)_final(1).mov,0,133,133,45,,,,,,,,18:16:44:716,18:16:45:428,18:16:48:431,right,18:16:49:048,,2018_May_29_1732,59.9384437645,MP-Perception Experiment,xx03w22,
453,vcgpdm_dyn(25)-lvm(30)_final(5).mov,False,left,2,training(24).mov,0,134,134,60,,,,,,,,18:16:49:832,18:16:50:550,18:16:53:570,right,18:16:54:053,,2018_May_29_1732,59.9384437645,MP-Perception Experiment,xx03w22,
454,training(16).mov,False,right,2,vgpdm_dyn(35)-lvm(10)_final(0).mov,0,135,135,38,,,,,,,,18:16:54:839,18:16:55:554,18:16:58:557,right,18:16:59:007,,2018_May_29_1732,59.9384437645,MP-Perception Experiment,xx03w22,
455,vcgpdm_dyn(10)-lvm(10)_final(9).mov,False,left,2,training(7).mov,0,136,136,116,,,,,,,,18:16:59:785,18:17:00:523,18:17:03:509,right,18:17:03:792,,2018_May_29_1732,59.9384437645,MP-Perception Experiment,xx03w22,
456,map_gpdm_final(6).mov,False,left,2,training(39).mov,0,137,137,132,,,,,,,,18:17:04:584,18:17:05:293,18:17:08:297,left,18:17:08:580,,2018_May_29_1732,59.9384437645,MP-Perception Experiment,xx03w22,
457,training(27).mov,False,right,2,vcgpdm_dyn(25)-lvm(10)_final(0).mov,0,138,138,76,,,,,,,,18:17:09:354,18:17:10:082,18:17:13:069,right,18:17:13:403,,2018_May_29_1732,59.9384437645,MP-Perception Experiment,xx03w22,
458,vgpdm_dyn(25)-lvm(5)_final(1).mov,False,left,2,training(11).mov,0,139,139,110,,,,,,,,18:17:14:198,18:17:14:921,18:17:17:906,left,18:17:18:340,,2018_May_29_1732,59.9384437645,MP-Perception Experiment,xx03w22,
459,vcgpdm_dyn(10)-lvm(5)_final(9).mov,True,left,2,training(34).mov,0,140,140,17,,,,,,,,18:17:19:123,18:17:19:841,18:17:22:844,left,18:17:23:311,,2018_May_29_1732,59.9384437645,MP-Perception Experiment,xx03w22,
460,vcgpdm_dyn(20)-lvm(15)_final(6).mov,True,left,2,training(35).mov,0,141,141,152,,,,,,,,18:17:24:100,18:17:24:812,18:17:27:815,left,18:17:28:266,,2018_May_29_1732,59.9384437645,MP-Perception Experiment,xx03w22,
461,training(7).mov,True,right,2,vgpdm_dyn(20)-lvm(5)_final(3).mov,0,142,142,87,,,,,,,,18:17:29:044,18:17:29:767,18:17:32:769,right,18:17:33:437,,2018_May_29_1732,59.9384437645,MP-Perception Experiment,xx03w22,
462,tmp_numprim(3)_final(5).mov,False,left,2,training(22).mov,0,143,143,50,,,,,,,,18:17:34:230,18:17:34:938,18:17:37:940,left,18:17:38:357,,2018_May_29_1732,59.9384437645,MP-Perception Experiment,xx03w22,
463,vgpdm_dyn(30)-lvm(15)_final(2).mov,True,left,2,training(29).mov,0,144,144,99,,,,,,,,18:17:39:133,18:17:39:858,18:17:42:862,left,18:17:43:279,,2018_May_29_1732,59.9384437645,MP-Perception Experiment,xx03w22,
464,training(14).mov,True,right,2,vcgpdm_dyn(15)-lvm(35)_final(6).mov,0,145,145,33,,,,,,,,18:17:44:064,18:17:44:797,18:17:47:799,left,18:17:48:283,,2018_May_29_1732,59.9384437645,MP-Perception Experiment,xx03w22,
465,vcgpdm_dyn(10)-lvm(5)_final(8).mov,False,left,2,training(34).mov,0,146,146,94,,,,,,,,18:17:49:065,18:17:49:784,18:17:52:785,left,18:17:53:102,,2018_May_29_1732,59.9384437645,MP-Perception Experiment,xx03w22,
466,vcgpdm_dyn(20)-lvm(10)_final(3).mov,False,left,2,training(27).mov,0,147,147,72,,,,,,,,18:17:53:874,18:17:54:603,18:17:57:605,left,18:17:57:872,,2018_May_29_1732,59.9384437645,MP-Perception Experiment,xx03w22,
467,dmp_npsi(20)_final(5).mov,True,left,2,training(26).mov,0,148,148,75,,,,,,,,18:17:58:659,18:17:59:373,18:18:02:377,left,18:18:02:694,,2018_May_29_1732,59.9384437645,MP-Perception Experiment,xx03w22,
468,training(8).mov,False,right,2,vgpdm_dyn(30)-lvm(5)_final(3).mov,0,149,149,56,,,,,,,,18:18:03:474,18:18:04:212,18:18:07:182,right,18:18:07:700,,2018_May_29_1732,59.9384437645,MP-Perception Experiment,xx03w22,
469,vcgpdm_dyn(10)-lvm(15)_final(5).mov,True,left,2,training(13).mov,0,150,150,40,,,,,,,,18:18:08:477,18:18:09:201,18:18:12:220,left,18:18:12:971,,2018_May_29_1732,59.9384437645,MP-Perception Experiment,xx03w22,
470,vcgpdm_dyn(20)-lvm(25)_final(2).mov,False,left,2,training(17).mov,0,151,151,71,,,,,,,,18:18:13:754,18:18:14:472,18:18:17:475,right,18:18:17:926,,2018_May_29_1732,59.9384437645,MP-Perception Experiment,xx03w22,
471,vgpdm_dyn(30)-lvm(5)_final(8).mov,False,left,2,training(30).mov,0,152,152,74,,,,,,,,18:18:18:718,18:18:19:427,18:18:22:429,left,18:18:22:896,,2018_May_29_1732,59.9384437645,MP-Perception Experiment,xx03w22,
472,vgpdm_dyn(35)-lvm(5)_final(5).mov,False,left,2,training(8).mov,0,153,153,130,,,,,,,,18:18:23:664,18:18:24:397,18:18:27:400,right,18:18:27:867,,2018_May_29_1732,59.9384437645,MP-Perception Experiment,xx03w22,
473,tmp_numprim(9)_final(8).mov,False,left,2,training(34).mov,0,154,154,23,,,,,,,,18:18:28:633,18:18:29:368,18:18:32:371,right,18:18:32:838,,2018_May_29_1732,59.9384437645,MP-Perception Experiment,xx03w22,
