trial_number,right,flipped,correct,block,left,trials.thisRepN,trials.thisTrialN,trials.thisN,trials.thisIndex,flipwelcome.keys,flipwelcome.corr,flipwelcome.rt,flippreparations.keys,flippreparations.rt,flipInstructions.keys,flipInstructions.rt,time_at_fixation_cross_onset,time_at_videoonset,time_at_videoend,participant_key_response,time_at_key_response,date,frameRate,expName,participant,
,,,,,,,,,,space,0,91.59663903,,,,,,,,,,2018_May_30_0802,59.9419238601,MP-Perception Experiment,xx04m20,
,,,,,,,,,,,,,space,13.1098709142,,,,,,,,2018_May_30_0802,59.9419238601,MP-Perception Experiment,xx04m20,
,,,,,,,,,,,,,,,space,11.7790622136,,,,,,2018_May_30_0802,59.9419238601,MP-Perception Experiment,xx04m20,
1,training(6).mov,True,right,0,tmp_numprim(10)_final(3).mov,0,0,0,73,,,,,,,,08:04:00:964,08:04:00:964,08:04:03:803,left,08:04:05:488,2018_May_30_0802,59.9419238601,MP-Perception Experiment,xx04m20,
2,training(23).mov,False,right,0,vgpdm_dyn(15)-lvm(30)_final(8).mov,0,1,1,125,,,,,,,,08:04:06:274,08:04:07:005,08:04:09:992,right,08:04:10:459,2018_May_30_0802,59.9419238601,MP-Perception Experiment,xx04m20,
3,vcgpdm_dyn(20)-lvm(5)_final(6).mov,True,left,0,training(48).mov,0,2,2,119,,,,,,,,08:04:11:239,08:04:11:960,08:04:14:963,right,08:04:16:364,2018_May_30_0802,59.9419238601,MP-Perception Experiment,xx04m20,
4,vcgpdm_dyn(15)-lvm(30)_final(2).mov,False,left,0,training(28).mov,0,3,3,33,,,,,,,,08:04:17:151,08:04:17:865,08:04:20:868,left,08:04:22:219,2018_May_30_0802,59.9419238601,MP-Perception Experiment,xx04m20,
5,vcgpdm_dyn(30)-lvm(5)_final(2).mov,False,left,0,training(31).mov,0,4,4,117,,,,,,,,08:04:23:004,08:04:23:720,08:04:26:723,left,08:04:29:509,2018_May_30_0802,59.9419238601,MP-Perception Experiment,xx04m20,
6,training(33).mov,True,right,0,vcgpdm_dyn(5)-lvm(25)_final(9).mov,0,5,5,122,,,,,,,,08:04:30:298,08:04:31:010,08:04:34:011,right,08:04:34:528,2018_May_30_0802,59.9419238601,MP-Perception Experiment,xx04m20,
7,training(6).mov,False,right,0,vgpdm_dyn(10)-lvm(15)_final(4).mov,0,6,6,113,,,,,,,,08:04:35:314,08:04:36:029,08:04:39:031,left,08:04:39:632,2018_May_30_0802,59.9419238601,MP-Perception Experiment,xx04m20,
8,vcgpdm_dyn(15)-lvm(20)_final(9).mov,True,left,0,training(26).mov,0,7,7,115,,,,,,,,08:04:40:415,08:04:41:133,08:04:44:136,left,08:04:44:804,2018_May_30_0802,59.9419238601,MP-Perception Experiment,xx04m20,
9,training(40).mov,False,right,0,vcgpdm_dyn(20)-lvm(30)_final(7).mov,0,8,8,20,,,,,,,,08:04:45:599,08:04:46:307,08:04:49:309,right,08:04:49:993,2018_May_30_0802,59.9419238601,MP-Perception Experiment,xx04m20,
10,vcgpdm_dyn(20)-lvm(10)_final(3).mov,True,left,0,training(19).mov,0,9,9,106,,,,,,,,08:04:50:767,08:04:51:494,08:04:54:513,left,08:04:56:265,2018_May_30_0802,59.9419238601,MP-Perception Experiment,xx04m20,
11,training(20).mov,True,right,0,vgpdm_dyn(30)-lvm(20)_final(1).mov,0,10,10,130,,,,,,,,08:04:57:048,08:04:57:783,08:05:00:768,right,08:05:03:355,2018_May_30_0802,59.9419238601,MP-Perception Experiment,xx04m20,
12,vcgpdm_dyn(25)-lvm(5)_final(7).mov,False,left,0,training(16).mov,0,11,11,0,,,,,,,,08:05:04:129,08:05:04:856,08:05:07:858,right,08:05:09:627,2018_May_30_0802,59.9419238601,MP-Perception Experiment,xx04m20,
13,training(36).mov,False,right,0,vcgpdm_dyn(10)-lvm(5)_final(1).mov,0,12,12,139,,,,,,,,08:05:10:396,08:05:11:128,08:05:14:130,left,08:05:14:831,2018_May_30_0802,59.9419238601,MP-Perception Experiment,xx04m20,
14,training(9).mov,False,right,0,dmp_npsi(25)_final(6).mov,0,13,13,114,,,,,,,,08:05:15:610,08:05:16:332,08:05:19:335,left,08:05:19:686,2018_May_30_0802,59.9419238601,MP-Perception Experiment,xx04m20,
15,vgpdm_dyn(30)-lvm(25)_final(1).mov,False,left,0,training(22).mov,0,14,14,51,,,,,,,,08:05:20:478,08:05:21:187,08:05:24:187,left,08:05:24:838,2018_May_30_0802,59.9419238601,MP-Perception Experiment,xx04m20,
16,training(32).mov,True,right,0,vcgpdm_dyn(5)-lvm(25)_final(3).mov,0,15,15,107,,,,,,,,08:05:25:615,08:05:26:339,08:05:29:342,right,08:05:30:009,2018_May_30_0802,59.9419238601,MP-Perception Experiment,xx04m20,
17,training(23).mov,True,right,0,vcgpdm_dyn(15)-lvm(15)_final(5).mov,0,16,16,128,,,,,,,,08:05:30:777,08:05:31:510,08:05:34:497,right,08:05:37:601,2018_May_30_0802,59.9419238601,MP-Perception Experiment,xx04m20,
18,tmp_numprim(9)_final(5).mov,True,left,0,training(22).mov,0,17,17,123,,,,,,,,08:05:38:428,08:05:39:102,08:05:42:105,right,08:05:44:106,2018_May_30_0802,59.9419238601,MP-Perception Experiment,xx04m20,
19,vgpdm_dyn(20)-lvm(30)_final(6).mov,True,left,0,training(7).mov,0,18,18,4,,,,,,,,08:05:44:877,08:05:45:607,08:05:48:610,left,08:05:51:946,2018_May_30_0802,59.9419238601,MP-Perception Experiment,xx04m20,
20,vcgpdm_dyn(5)-lvm(20)_final(7).mov,False,left,0,training(34).mov,0,19,19,66,,,,,,,,08:05:52:741,08:05:53:447,08:05:56:451,left,08:05:58:502,2018_May_30_0802,59.9419238601,MP-Perception Experiment,xx04m20,
21,vgpdm_dyn(10)-lvm(30)_final(0).mov,False,left,0,training(23).mov,0,20,20,37,,,,,,,,08:05:59:290,08:06:00:003,08:06:03:006,left,08:06:03:690,2018_May_30_0802,59.9419238601,MP-Perception Experiment,xx04m20,
22,vgpdm_dyn(25)-lvm(30)_final(6).mov,False,left,0,training(34).mov,0,21,21,40,,,,,,,,08:06:04:475,08:06:05:208,08:06:08:210,right,08:06:10:228,2018_May_30_0802,59.9419238601,MP-Perception Experiment,xx04m20,
23,vgpdm_dyn(10)-lvm(10)_final(9).mov,False,left,0,training(32).mov,0,22,22,2,,,,,,,,08:06:11:007,08:06:11:730,08:06:14:731,left,08:06:15:098,2018_May_30_0802,59.9419238601,MP-Perception Experiment,xx04m20,
24,training(23).mov,False,right,0,vgpdm_dyn(20)-lvm(35)_final(9).mov,0,23,23,1,,,,,,,,08:06:15:882,08:06:16:616,08:06:19:602,right,08:06:20:903,2018_May_30_0802,59.9419238601,MP-Perception Experiment,xx04m20,
25,map_gpdm_final(2).mov,False,left,0,training(37).mov,0,24,24,116,,,,,,,,08:06:21:691,08:06:22:404,08:06:25:392,left,08:06:26:025,2018_May_30_0802,59.9419238601,MP-Perception Experiment,xx04m20,
26,training(34).mov,False,right,0,vcgpdm_dyn(15)-lvm(5)_final(5).mov,0,25,25,7,,,,,,,,08:06:26:810,08:06:27:527,08:06:30:530,right,08:06:32:265,2018_May_30_0802,59.9419238601,MP-Perception Experiment,xx04m20,
27,training(8).mov,False,right,0,tmp_numprim(6)_final(0).mov,0,26,26,155,,,,,,,,08:06:33:045,08:06:33:766,08:06:36:785,right,08:06:38:870,2018_May_30_0802,59.9419238601,MP-Perception Experiment,xx04m20,
28,training(4).mov,False,right,0,vgpdm_dyn(10)-lvm(35)_final(0).mov,0,27,27,62,,,,,,,,08:06:39:660,08:06:40:388,08:06:43:390,right,08:06:43:874,2018_May_30_0802,59.9419238601,MP-Perception Experiment,xx04m20,
29,training(4).mov,True,right,0,map_gpdm_final(3).mov,0,28,28,56,,,,,,,,08:06:44:644,08:06:45:375,08:06:48:379,right,08:06:49:096,2018_May_30_0802,59.9419238601,MP-Perception Experiment,xx04m20,
30,vgpdm_dyn(15)-lvm(35)_final(5).mov,True,left,0,training(29).mov,0,29,29,82,,,,,,,,08:06:49:899,08:06:50:614,08:06:53:600,right,08:06:54:117,2018_May_30_0802,59.9419238601,MP-Perception Experiment,xx04m20,
31,tmp_numprim(6)_final(1).mov,True,left,0,training(19).mov,0,30,30,87,,,,,,,,08:06:54:898,08:06:55:618,08:06:58:620,left,08:07:00:205,2018_May_30_0802,59.9419238601,MP-Perception Experiment,xx04m20,
32,vgpdm_dyn(5)-lvm(20)_final(2).mov,True,left,0,training(14).mov,0,31,31,132,,,,,,,,08:07:00:986,08:07:01:706,08:07:04:708,left,08:07:05:092,2018_May_30_0802,59.9419238601,MP-Perception Experiment,xx04m20,
33,vgpdm_dyn(5)-lvm(10)_final(5).mov,False,left,0,training(36).mov,0,32,32,57,,,,,,,,08:07:05:867,08:07:06:593,08:07:09:595,right,08:07:10:062,2018_May_30_0802,59.9419238601,MP-Perception Experiment,xx04m20,
34,training(25).mov,False,right,0,vgpdm_dyn(25)-lvm(35)_final(4).mov,0,33,33,133,,,,,,,,08:07:10:840,08:07:11:563,08:07:14:551,left,08:07:15:919,2018_May_30_0802,59.9419238601,MP-Perception Experiment,xx04m20,
35,training(35).mov,False,right,0,vgpdm_dyn(5)-lvm(10)_final(8).mov,0,34,34,136,,,,,,,,08:07:16:725,08:07:17:420,08:07:20:422,right,08:07:21:158,2018_May_30_0802,59.9419238601,MP-Perception Experiment,xx04m20,
36,training(37).mov,True,right,0,vcgpdm_dyn(25)-lvm(10)_final(4).mov,0,35,35,152,,,,,,,,08:07:21:942,08:07:22:658,08:07:25:661,left,08:07:26:078,2018_May_30_0802,59.9419238601,MP-Perception Experiment,xx04m20,
37,training(28).mov,False,right,0,vcgpdm_dyn(15)-lvm(20)_final(7).mov,0,36,36,121,,,,,,,,08:07:26:870,08:07:27:579,08:07:30:582,left,08:07:31:899,2018_May_30_0802,59.9419238601,MP-Perception Experiment,xx04m20,
38,training(33).mov,True,right,0,vgpdm_dyn(10)-lvm(5)_final(9).mov,0,37,37,101,,,,,,,,08:07:32:681,08:07:33:417,08:07:36:420,right,08:07:37:321,2018_May_30_0802,59.9419238601,MP-Perception Experiment,xx04m20,
39,vgpdm_dyn(35)-lvm(10)_final(0).mov,True,left,0,training(37).mov,0,38,38,90,,,,,,,,08:07:38:113,08:07:38:823,08:07:41:842,right,08:07:44:527,2018_May_30_0802,59.9419238601,MP-Perception Experiment,xx04m20,
40,training(17).mov,False,right,0,vcgpdm_dyn(35)-lvm(25)_final(6).mov,0,39,39,58,,,,,,,,08:07:45:303,08:07:46:028,08:07:49:031,right,08:07:49:815,2018_May_30_0802,59.9419238601,MP-Perception Experiment,xx04m20,
41,tmp_numprim(10)_final(3).mov,False,left,0,training(27).mov,0,40,40,10,,,,,,,,08:07:50:592,08:07:51:333,08:07:54:317,left,08:07:54:767,2018_May_30_0802,59.9419238601,MP-Perception Experiment,xx04m20,
42,vcgpdm_dyn(30)-lvm(35)_final(1).mov,True,left,0,training(33).mov,0,41,41,21,,,,,,,,08:07:55:534,08:07:56:269,08:07:59:272,right,08:07:59:772,2018_May_30_0802,59.9419238601,MP-Perception Experiment,xx04m20,
43,vcgpdm_dyn(30)-lvm(25)_final(7).mov,False,left,0,training(35).mov,0,42,42,49,,,,,,,,08:08:00:548,08:08:01:273,08:08:04:261,left,08:08:04:745,2018_May_30_0802,59.9419238601,MP-Perception Experiment,xx04m20,
44,vcgpdm_dyn(15)-lvm(25)_final(4).mov,True,left,0,training(36).mov,0,43,43,75,,,,,,,,08:08:05:512,08:08:06:246,08:08:09:265,left,08:08:10:616,2018_May_30_0802,59.9419238601,MP-Perception Experiment,xx04m20,
45,vgpdm_dyn(30)-lvm(15)_final(7).mov,True,left,0,training(7).mov,0,44,44,54,,,,,,,,08:08:11:398,08:08:12:134,08:08:15:137,left,08:08:16:088,2018_May_30_0802,59.9419238601,MP-Perception Experiment,xx04m20,
46,training(25).mov,True,right,0,vgpdm_dyn(10)-lvm(25)_final(3).mov,0,45,45,153,,,,,,,,08:08:16:864,08:08:17:606,08:08:20:591,right,08:08:21:692,2018_May_30_0802,59.9419238601,MP-Perception Experiment,xx04m20,
47,vgpdm_dyn(5)-lvm(20)_final(4).mov,True,left,0,training(7).mov,0,46,46,143,,,,,,,,08:08:22:466,08:08:23:194,08:08:26:196,left,08:08:27:347,2018_May_30_0802,59.9419238601,MP-Perception Experiment,xx04m20,
48,training(7).mov,False,right,0,vcgpdm_dyn(15)-lvm(5)_final(3).mov,0,47,47,70,,,,,,,,08:08:28:123,08:08:28:848,08:08:31:852,right,08:08:32:352,2018_May_30_0802,59.9419238601,MP-Perception Experiment,xx04m20,
49,training(36).mov,True,right,0,vgpdm_dyn(20)-lvm(15)_final(7).mov,0,48,48,157,,,,,,,,08:08:33:145,08:08:33:853,08:08:36:873,right,08:08:38:090,2018_May_30_0802,59.9419238601,MP-Perception Experiment,xx04m20,
50,vcgpdm_dyn(30)-lvm(15)_final(3).mov,False,left,0,training(8).mov,0,49,49,13,,,,,,,,08:08:38:874,08:08:39:591,08:08:42:592,right,08:08:43:126,2018_May_30_0802,59.9419238601,MP-Perception Experiment,xx04m20,
51,vcgpdm_dyn(30)-lvm(15)_final(7).mov,False,left,0,training(16).mov,0,50,50,109,,,,,,,,08:08:43:904,08:08:44:627,08:08:47:629,left,08:08:49:265,2018_May_30_0802,59.9419238601,MP-Perception Experiment,xx04m20,
52,training(28).mov,False,right,0,vgpdm_dyn(5)-lvm(15)_final(1).mov,0,51,51,104,,,,,,,,08:08:50:026,08:08:50:766,08:08:53:769,right,08:08:54:436,2018_May_30_0802,59.9419238601,MP-Perception Experiment,xx04m20,
53,training(40).mov,False,right,0,dmp_npsi(50)_final(5).mov,0,52,52,85,,,,,,,,08:08:55:214,08:08:55:939,08:08:58:925,right,08:09:00:243,2018_May_30_0802,59.9419238601,MP-Perception Experiment,xx04m20,
54,training(10).mov,False,right,0,tmp_numprim(5)_final(9).mov,0,53,53,43,,,,,,,,08:09:01:028,08:09:01:743,08:09:04:746,left,08:09:07:316,2018_May_30_0802,59.9419238601,MP-Perception Experiment,xx04m20,
55,vcgpdm_dyn(20)-lvm(30)_final(6).mov,True,left,0,training(14).mov,0,54,54,140,,,,,,,,08:09:08:112,08:09:08:817,08:09:11:819,left,08:09:12:537,2018_May_30_0802,59.9419238601,MP-Perception Experiment,xx04m20,
56,training(30).mov,False,right,0,vgpdm_dyn(15)-lvm(15)_final(1).mov,0,55,55,52,,,,,,,,08:09:13:345,08:09:14:038,08:09:17:040,right,08:09:17:741,2018_May_30_0802,59.9419238601,MP-Perception Experiment,xx04m20,
57,vgpdm_dyn(5)-lvm(10)_final(3).mov,True,left,0,training(28).mov,0,56,56,36,,,,,,,,08:09:18:514,08:09:19:242,08:09:22:244,left,08:09:22:812,2018_May_30_0802,59.9419238601,MP-Perception Experiment,xx04m20,
58,vcgpdm_dyn(10)-lvm(30)_final(3).mov,False,left,0,training(31).mov,0,57,57,71,,,,,,,,08:09:23:609,08:09:24:330,08:09:27:333,right,08:09:28:267,2018_May_30_0802,59.9419238601,MP-Perception Experiment,xx04m20,
59,training(29).mov,False,right,0,vcgpdm_dyn(35)-lvm(10)_final(9).mov,0,58,58,142,,,,,,,,08:09:29:045,08:09:29:768,08:09:32:769,left,08:09:34:954,2018_May_30_0802,59.9419238601,MP-Perception Experiment,xx04m20,
60,vcgpdm_dyn(5)-lvm(5)_final(6).mov,True,left,0,training(24).mov,0,59,59,145,,,,,,,,08:09:35:895,08:09:36:455,08:09:39:457,right,08:09:40:792,2018_May_30_0802,59.9419238601,MP-Perception Experiment,xx04m20,
61,training(13).mov,True,right,0,vgpdm_dyn(35)-lvm(35)_final(9).mov,0,60,60,74,,,,,,,,08:09:41:578,08:09:42:311,08:09:45:315,right,08:09:46:499,2018_May_30_0802,59.9419238601,MP-Perception Experiment,xx04m20,
62,vcgpdm_dyn(25)-lvm(35)_final(8).mov,True,left,0,training(12).mov,0,61,61,154,,,,,,,,08:09:47:285,08:09:48:017,08:09:51:003,left,08:09:51:554,2018_May_30_0802,59.9419238601,MP-Perception Experiment,xx04m20,
63,vgpdm_dyn(20)-lvm(25)_final(9).mov,True,left,0,training(27).mov,0,62,62,46,,,,,,,,08:09:52:336,08:09:53:055,08:09:56:057,left,08:09:56:891,2018_May_30_0802,59.9419238601,MP-Perception Experiment,xx04m20,
64,training(16).mov,True,right,0,vgpdm_dyn(15)-lvm(5)_final(3).mov,0,63,63,98,,,,,,,,08:09:57:662,08:09:58:393,08:10:01:396,left,08:10:02:280,2018_May_30_0802,59.9419238601,MP-Perception Experiment,xx04m20,
65,training(22).mov,False,right,0,vgpdm_dyn(30)-lvm(5)_final(8).mov,0,64,64,65,,,,,,,,08:10:03:058,08:10:03:781,08:10:06:784,right,08:10:07:501,2018_May_30_0802,59.9419238601,MP-Perception Experiment,xx04m20,
66,vcgpdm_dyn(10)-lvm(15)_final(1).mov,True,left,0,training(5).mov,0,65,65,69,,,,,,,,08:10:08:280,08:10:09:002,08:10:12:004,right,08:10:12:838,2018_May_30_0802,59.9419238601,MP-Perception Experiment,xx04m20,
67,training(27).mov,False,right,0,vcgpdm_dyn(35)-lvm(20)_final(2).mov,0,66,66,28,,,,,,,,08:10:13:618,08:10:14:339,08:10:17:343,left,08:10:18:160,2018_May_30_0802,59.9419238601,MP-Perception Experiment,xx04m20,
68,training(41).mov,False,right,0,map_gpdm_final(8).mov,0,67,67,144,,,,,,,,08:10:18:936,08:10:19:661,08:10:22:662,right,08:10:23:996,2018_May_30_0802,59.9419238601,MP-Perception Experiment,xx04m20,
69,training(41).mov,True,right,0,vgpdm_dyn(25)-lvm(15)_final(9)_out_of_screen.mov,0,68,68,151,,,,,,,,08:10:24:779,08:10:25:498,08:10:28:500,right,08:10:29:284,2018_May_30_0802,59.9419238601,MP-Perception Experiment,xx04m20,
70,training(39).mov,False,right,0,vgpdm_dyn(35)-lvm(10)_final(0).mov,0,69,69,88,,,,,,,,08:10:30:061,08:10:30:785,08:10:33:789,left,08:10:35:607,2018_May_30_0802,59.9419238601,MP-Perception Experiment,xx04m20,
71,vcgpdm_dyn(15)-lvm(25)_final(3).mov,False,left,0,training(31).mov,0,70,70,48,,,,,,,,08:10:36:383,08:10:37:110,08:10:40:112,right,08:10:40:863,2018_May_30_0802,59.9419238601,MP-Perception Experiment,xx04m20,
72,vgpdm_dyn(15)-lvm(25)_final(7).mov,True,left,0,training(41).mov,0,71,71,27,,,,,,,,08:10:41:631,08:10:42:364,08:10:45:366,left,08:10:46:634,2018_May_30_0802,59.9419238601,MP-Perception Experiment,xx04m20,
73,vgpdm_dyn(10)-lvm(25)_final(0).mov,True,left,0,training(40).mov,0,72,72,149,,,,,,,,08:10:47:419,08:10:48:135,08:10:51:155,right,08:10:52:974,2018_May_30_0802,59.9419238601,MP-Perception Experiment,xx04m20,
74,training(13).mov,False,right,0,vgpdm_dyn(10)-lvm(20)_final(0).mov,0,73,73,6,,,,,,,,08:10:53:756,08:10:54:491,08:10:57:477,right,08:10:58:195,2018_May_30_0802,59.9419238601,MP-Perception Experiment,xx04m20,
75,vcgpdm_dyn(35)-lvm(25)_final(0).mov,True,left,0,training(27).mov,0,74,74,78,,,,,,,,08:10:58:983,08:10:59:696,08:11:02:698,left,08:11:03:349,2018_May_30_0802,59.9419238601,MP-Perception Experiment,xx04m20,
76,vgpdm_dyn(15)-lvm(15)_final(1).mov,False,left,0,training(6).mov,0,75,75,103,,,,,,,,08:11:04:120,08:11:04:850,08:11:07:852,left,08:11:09:638,2018_May_30_0802,59.9419238601,MP-Perception Experiment,xx04m20,
77,vcgpdm_dyn(10)-lvm(15)_final(3).mov,True,left,0,training(16).mov,0,76,76,95,,,,,,,,08:11:10:443,08:11:11:139,08:11:14:140,right,08:11:14:607,2018_May_30_0802,59.9419238601,MP-Perception Experiment,xx04m20,
78,training(17).mov,False,right,0,dmp_npsi(40)_final(1).mov,0,77,77,19,,,,,,,,08:11:15:387,08:11:16:108,08:11:19:111,left,08:11:19:478,2018_May_30_0802,59.9419238601,MP-Perception Experiment,xx04m20,
79,vcgpdm_dyn(15)-lvm(10)_final(7).mov,False,left,0,training(31).mov,0,78,78,59,,,,,,,,08:11:20:263,08:11:20:996,08:11:23:966,left,08:11:24:467,2018_May_30_0802,59.9419238601,MP-Perception Experiment,xx04m20,
80,training(40).mov,True,right,0,vcgpdm_dyn(5)-lvm(35)_final(1)_bad.mov,0,79,79,60,,,,,,,,08:11:25:233,08:11:25:985,08:11:28:972,right,08:11:29:572,2018_May_30_0802,59.9419238601,MP-Perception Experiment,xx04m20,
81,training(0).mov,True,right,0,vcgpdm_dyn(25)-lvm(15)_final(2).mov,0,80,80,81,,,,,,,,08:11:30:358,08:11:31:073,08:11:34:092,right,08:11:34:626,2018_May_30_0802,59.9419238601,MP-Perception Experiment,xx04m20,
82,training(0).mov,False,right,0,vgpdm_dyn(30)-lvm(25)_final(8).mov,0,81,81,108,,,,,,,,08:11:35:817,08:11:36:327,08:11:39:130,left,08:11:39:747,2018_May_30_0802,59.9419238601,MP-Perception Experiment,xx04m20,
83,tmp_numprim(3)_final(3).mov,True,left,0,training(22).mov,0,82,82,100,,,,,,,,08:11:40:538,08:11:41:248,08:11:44:251,left,08:11:45:602,2018_May_30_0802,59.9419238601,MP-Perception Experiment,xx04m20,
84,vcgpdm_dyn(35)-lvm(5)_final(4).mov,True,left,0,training(34).mov,0,83,83,129,,,,,,,,08:11:46:378,08:11:47:104,08:11:50:106,left,08:11:51:190,2018_May_30_0802,59.9419238601,MP-Perception Experiment,xx04m20,
85,dmp_npsi(40)_final(6).mov,False,left,0,training(48).mov,0,84,84,30,,,,,,,,08:11:51:967,08:11:52:691,08:11:55:711,left,08:11:56:378,2018_May_30_0802,59.9419238601,MP-Perception Experiment,xx04m20,
86,training(3).mov,False,right,0,vcgpdm_dyn(20)-lvm(20)_final(8).mov,0,85,85,127,,,,,,,,08:11:57:171,08:11:57:896,08:12:00:883,left,08:12:01:616,2018_May_30_0802,59.9419238601,MP-Perception Experiment,xx04m20,
87,training(8).mov,True,right,0,vgpdm_dyn(20)-lvm(35)_final(5).mov,0,86,86,158,,,,,,,,08:12:02:422,08:12:03:132,08:12:06:135,right,08:12:06:752,2018_May_30_0802,59.9419238601,MP-Perception Experiment,xx04m20,
88,vgpdm_dyn(15)-lvm(25)_final(8).mov,False,left,0,training(28).mov,0,87,87,120,,,,,,,,08:12:07:531,08:12:08:253,08:12:11:256,left,08:12:11:723,2018_May_30_0802,59.9419238601,MP-Perception Experiment,xx04m20,
89,training(37).mov,True,right,0,vcgpdm_dyn(30)-lvm(25)_final(6).mov,0,88,88,124,,,,,,,,08:12:12:504,08:12:13:226,08:12:16:228,right,08:12:17:312,2018_May_30_0802,59.9419238601,MP-Perception Experiment,xx04m20,
90,training(36).mov,True,right,0,vcgpdm_dyn(25)-lvm(10)_final(8).mov,0,89,89,26,,,,,,,,08:12:18:099,08:12:18:815,08:12:21:834,right,08:12:22:785,2018_May_30_0802,59.9419238601,MP-Perception Experiment,xx04m20,
91,training(24).mov,False,right,0,vgpdm_dyn(5)-lvm(10)_final(9).mov,0,90,90,99,,,,,,,,08:12:23:559,08:12:24:286,08:12:27:305,right,08:12:28:272,2018_May_30_0802,59.9419238601,MP-Perception Experiment,xx04m20,
92,training(30).mov,False,right,0,vgpdm_dyn(20)-lvm(20)_final(9).mov,0,91,91,97,,,,,,,,08:12:29:071,08:12:29:773,08:12:32:776,left,08:12:34:144,2018_May_30_0802,59.9419238601,MP-Perception Experiment,xx04m20,
93,tmp_numprim(6)_final(0).mov,True,left,0,training(28).mov,0,92,92,44,,,,,,,,08:12:35:887,08:12:35:887,08:12:38:665,right,08:12:39:266,2018_May_30_0802,59.9419238601,MP-Perception Experiment,xx04m20,
94,training(25).mov,True,right,0,vgpdm_dyn(30)-lvm(30)_final(0).mov,0,93,93,29,,,,,,,,08:12:40:040,08:12:40:767,08:12:43:769,right,08:12:45:904,2018_May_30_0802,59.9419238601,MP-Perception Experiment,xx04m20,
95,training(39).mov,True,right,0,vcgpdm_dyn(10)-lvm(30)_final(4).mov,0,94,94,111,,,,,,,,08:12:46:680,08:12:47:405,08:12:50:408,left,08:12:50:942,2018_May_30_0802,59.9419238601,MP-Perception Experiment,xx04m20,
96,vgpdm_dyn(30)-lvm(30)_final(0).mov,False,left,0,training(28).mov,0,95,95,32,,,,,,,,08:12:51:715,08:12:52:458,08:12:55:444,left,08:12:56:195,2018_May_30_0802,59.9419238601,MP-Perception Experiment,xx04m20,
97,training(3).mov,True,right,0,map_cgpdm_final(5).mov,0,96,96,41,,,,,,,,08:12:56:970,08:12:57:696,08:13:00:699,left,08:13:01:149,2018_May_30_0802,59.9419238601,MP-Perception Experiment,xx04m20,
98,training(30).mov,True,right,0,dmp_npsi(30)_final(6).mov,0,97,97,156,,,,,,,,08:13:01:926,08:13:02:650,08:13:05:638,right,08:13:06:021,2018_May_30_0802,59.9419238601,MP-Perception Experiment,xx04m20,
99,training(15).mov,False,right,0,vcgpdm_dyn(25)-lvm(35)_final(4).mov,0,98,98,126,,,,,,,,08:13:06:813,08:13:07:523,08:13:10:525,left,08:13:11:143,2018_May_30_0802,59.9419238601,MP-Perception Experiment,xx04m20,
100,training(17).mov,False,right,0,tmp_numprim(5)_final(3).mov,0,99,99,8,,,,,,,,08:13:11:929,08:13:12:644,08:13:15:647,right,08:13:16:281,2018_May_30_0802,59.9419238601,MP-Perception Experiment,xx04m20,
101,training(32).mov,True,right,0,vgpdm_dyn(25)-lvm(25)_final(9)_bad.mov,0,100,100,148,,,,,,,,08:13:17:057,08:13:17:782,08:13:20:785,right,08:13:21:618,2018_May_30_0802,59.9419238601,MP-Perception Experiment,xx04m20,
102,training(9).mov,False,right,0,vgpdm_dyn(30)-lvm(25)_final(5).mov,0,101,101,18,,,,,,,,08:13:22:389,08:13:23:119,08:13:26:122,right,08:13:26:839,2018_May_30_0802,59.9419238601,MP-Perception Experiment,xx04m20,
103,vcgpdm_dyn(5)-lvm(20)_final(7).mov,True,left,0,training(32).mov,0,102,102,34,,,,,,,,08:13:27:609,08:13:28:341,08:13:31:344,left,08:13:32:178,2018_May_30_0802,59.9419238601,MP-Perception Experiment,xx04m20,
104,training(34).mov,False,right,0,vcgpdm_dyn(15)-lvm(35)_final(7).mov,0,103,103,23,,,,,,,,08:13:32:958,08:13:33:679,08:13:36:698,left,08:13:39:484,2018_May_30_0802,59.9419238601,MP-Perception Experiment,xx04m20,
105,vgpdm_dyn(20)-lvm(5)_final(1).mov,False,left,0,training(6).mov,0,104,104,61,,,,,,,,08:13:40:283,08:13:40:985,08:13:43:986,right,08:13:44:486,2018_May_30_0802,59.9419238601,MP-Perception Experiment,xx04m20,
106,vcgpdm_dyn(20)-lvm(20)_final(5).mov,True,left,0,training(26).mov,0,105,105,138,,,,,,,,08:13:45:268,08:13:45:988,08:13:48:991,left,08:13:49:341,2018_May_30_0802,59.9419238601,MP-Perception Experiment,xx04m20,
107,training(15).mov,True,right,0,tmp_numprim(9)_final(3).mov,0,106,106,9,,,,,,,,08:13:50:110,08:13:50:842,08:13:53:845,left,08:13:54:647,2018_May_30_0802,59.9419238601,MP-Perception Experiment,xx04m20,
108,vcgpdm_dyn(35)-lvm(20)_final(1).mov,False,left,0,training(1).mov,0,107,107,35,,,,,,,,08:13:55:432,08:13:56:148,08:13:59:167,right,08:13:59:668,2018_May_30_0802,59.9419238601,MP-Perception Experiment,xx04m20,
109,vcgpdm_dyn(20)-lvm(35)_final(3).mov,True,left,0,training(18).mov,0,108,108,135,,,,,,,,08:14:00:457,08:14:01:169,08:14:04:189,right,08:14:04:656,2018_May_30_0802,59.9419238601,MP-Perception Experiment,xx04m20,
110,vgpdm_dyn(30)-lvm(25)_final(9).mov,False,left,0,training(32).mov,0,109,109,38,,,,,,,,08:14:05:448,08:14:06:157,08:14:09:160,left,08:14:09:577,2018_May_30_0802,59.9419238601,MP-Perception Experiment,xx04m20,
111,training(35).mov,False,right,0,vgpdm_dyn(15)-lvm(35)_final(8).mov,0,110,110,17,,,,,,,,08:14:10:356,08:14:11:078,08:14:14:080,left,08:14:14:631,2018_May_30_0802,59.9419238601,MP-Perception Experiment,xx04m20,
112,training(18).mov,True,right,0,vcgpdm_dyn(30)-lvm(30)_final(4).mov,0,111,111,64,,,,,,,,08:14:15:423,08:14:16:132,08:14:19:134,right,08:14:19:602,2018_May_30_0802,59.9419238601,MP-Perception Experiment,xx04m20,
113,training(11).mov,False,right,0,vcgpdm_dyn(15)-lvm(35)_final(0).mov,0,112,112,39,,,,,,,,08:14:20:383,08:14:21:104,08:14:24:106,left,08:14:24:573,2018_May_30_0802,59.9419238601,MP-Perception Experiment,xx04m20,
114,training(26).mov,True,right,0,tmp_numprim(5)_final(1).mov,0,113,113,91,,,,,,,,08:14:25:362,08:14:26:074,08:14:29:077,right,08:14:29:544,2018_May_30_0802,59.9419238601,MP-Perception Experiment,xx04m20,
115,vgpdm_dyn(5)-lvm(20)_final(8).mov,False,left,0,training(32).mov,0,114,114,14,,,,,,,,08:14:30:333,08:14:31:045,08:14:34:046,left,08:14:34:579,2018_May_30_0802,59.9419238601,MP-Perception Experiment,xx04m20,
116,training(5).mov,True,right,0,vgpdm_dyn(35)-lvm(25)_final(8).mov,0,115,115,67,,,,,,,,08:14:35:888,08:14:36:398,08:14:39:084,right,08:14:39:551,2018_May_30_0802,59.9419238601,MP-Perception Experiment,xx04m20,
117,training(29).mov,True,right,0,vgpdm_dyn(35)-lvm(20)_final(4)_out_of_screen.mov,0,116,116,102,,,,,,,,08:14:40:344,08:14:41:052,08:14:44:055,right,08:14:44:555,2018_May_30_0802,59.9419238601,MP-Perception Experiment,xx04m20,
118,training(20).mov,False,right,0,vgpdm_dyn(30)-lvm(25)_final(2).mov,0,117,117,92,,,,,,,,08:14:45:335,08:14:46:056,08:14:49:044,left,08:14:49:628,2018_May_30_0802,59.9419238601,MP-Perception Experiment,xx04m20,
119,training(23).mov,True,right,0,map_gpdm_final(7).mov,0,118,118,110,,,,,,,,08:14:50:416,08:14:51:129,08:14:54:148,right,08:14:54:782,2018_May_30_0802,59.9419238601,MP-Perception Experiment,xx04m20,
120,training(27).mov,False,right,0,vgpdm_dyn(35)-lvm(5)_final(3).mov,0,119,119,112,,,,,,,,08:14:55:557,08:14:56:284,08:14:59:287,left,08:14:59:854,2018_May_30_0802,59.9419238601,MP-Perception Experiment,xx04m20,
121,vgpdm_dyn(30)-lvm(20)_final(0).mov,False,left,0,training(37).mov,0,120,120,53,,,,,,,,08:15:00:660,08:15:01:355,08:15:04:357,left,08:15:05:425,2018_May_30_0802,59.9419238601,MP-Perception Experiment,xx04m20,
122,vcgpdm_dyn(35)-lvm(5)_final(4).mov,False,left,0,training(26).mov,0,121,121,93,,,,,,,,08:15:06:207,08:15:06:926,08:15:09:928,right,08:15:10:679,2018_May_30_0802,59.9419238601,MP-Perception Experiment,xx04m20,
123,training(29).mov,False,right,0,vgpdm_dyn(10)-lvm(10)_final(3).mov,0,122,122,83,,,,,,,,08:15:11:464,08:15:12:180,08:15:15:184,right,08:15:15:868,2018_May_30_0802,59.9419238601,MP-Perception Experiment,xx04m20,
124,training(8).mov,False,right,0,vgpdm_dyn(5)-lvm(30)_final(9).mov,0,123,123,63,,,,,,,,08:15:16:649,08:15:17:369,08:15:20:371,right,08:15:20:972,2018_May_30_0802,59.9419238601,MP-Perception Experiment,xx04m20,
125,training(22).mov,True,right,0,vcgpdm_dyn(30)-lvm(35)_final(6).mov,0,124,124,31,,,,,,,,08:15:21:758,08:15:22:488,08:15:25:474,left,08:15:27:225,2018_May_30_0802,59.9419238601,MP-Perception Experiment,xx04m20,
126,vcgpdm_dyn(30)-lvm(30)_final(3).mov,False,left,0,training(20).mov,0,125,125,137,,,,,,,,08:15:27:991,08:15:28:726,08:15:31:730,left,08:15:32:063,2018_May_30_0802,59.9419238601,MP-Perception Experiment,xx04m20,
127,vgpdm_dyn(10)-lvm(5)_final(6).mov,True,left,0,training(17).mov,0,126,126,94,,,,,,,,08:15:32:849,08:15:33:564,08:15:36:552,left,08:15:37:052,2018_May_30_0802,59.9419238601,MP-Perception Experiment,xx04m20,
128,vcgpdm_dyn(5)-lvm(15)_final(1).mov,False,left,0,training(35).mov,0,127,127,11,,,,,,,,08:15:37:832,08:15:38:553,08:15:41:556,right,08:15:42:357,2018_May_30_0802,59.9419238601,MP-Perception Experiment,xx04m20,
129,training(28).mov,False,right,0,dmp_npsi(50)_final(6).mov,0,128,128,150,,,,,,,,08:15:43:136,08:15:43:858,08:15:46:861,left,08:15:47:928,2018_May_30_0802,59.9419238601,MP-Perception Experiment,xx04m20,
130,training(38).mov,True,right,0,vcgpdm_dyn(25)-lvm(20)_final(7).mov,0,129,129,50,,,,,,,,08:15:48:710,08:15:49:430,08:15:52:432,right,08:15:52:899,2018_May_30_0802,59.9419238601,MP-Perception Experiment,xx04m20,
131,vgpdm_dyn(30)-lvm(15)_final(7).mov,False,left,0,training(20).mov,0,130,130,84,,,,,,,,08:15:53:683,08:15:54:401,08:15:57:403,left,08:15:58:020,2018_May_30_0802,59.9419238601,MP-Perception Experiment,xx04m20,
132,map_gpdm_final(1).mov,True,left,0,training(10).mov,0,131,131,22,,,,,,,,08:15:58:792,08:15:59:521,08:16:02:524,left,08:16:03:725,2018_May_30_0802,59.9419238601,MP-Perception Experiment,xx04m20,
133,training(33).mov,False,right,0,vcgpdm_dyn(30)-lvm(25)_final(5).mov,0,132,132,5,,,,,,,,08:16:04:506,08:16:05:226,08:16:08:230,right,08:16:09:197,2018_May_30_0802,59.9419238601,MP-Perception Experiment,xx04m20,
134,map_cgpdm_final(3).mov,False,left,0,training(8).mov,0,133,133,45,,,,,,,,08:16:09:967,08:16:10:698,08:16:13:699,left,08:16:14:116,2018_May_30_0802,59.9419238601,MP-Perception Experiment,xx04m20,
135,training(22).mov,True,right,0,vgpdm_dyn(30)-lvm(35)_final(6).mov,0,134,134,16,,,,,,,,08:16:14:891,08:16:15:617,08:16:18:619,left,08:16:19:470,2018_May_30_0802,59.9419238601,MP-Perception Experiment,xx04m20,
136,training(23).mov,True,right,0,vgpdm_dyn(20)-lvm(15)_final(7).mov,0,135,135,25,,,,,,,,08:16:20:236,08:16:20:971,08:16:23:975,right,08:16:24:475,2018_May_30_0802,59.9419238601,MP-Perception Experiment,xx04m20,
137,training(8).mov,True,right,0,vcgpdm_dyn(5)-lvm(10)_final(5).mov,0,136,136,131,,,,,,,,08:16:25:277,08:16:25:976,08:16:28:964,left,08:16:29:381,2018_May_30_0802,59.9419238601,MP-Perception Experiment,xx04m20,
138,vgpdm_dyn(20)-lvm(35)_final(8).mov,False,left,0,training(27).mov,0,137,137,86,,,,,,,,08:16:30:145,08:16:30:882,08:16:33:885,right,08:16:34:368,2018_May_30_0802,59.9419238601,MP-Perception Experiment,xx04m20,
139,vgpdm_dyn(35)-lvm(10)_final(6).mov,False,left,0,training(36).mov,0,138,138,12,,,,,,,,08:16:35:874,08:16:35:874,08:16:38:889,left,08:16:39:422,2018_May_30_0802,59.9419238601,MP-Perception Experiment,xx04m20,
140,training(39).mov,False,right,0,vgpdm_dyn(25)-lvm(35)_final(0).mov,0,139,139,55,,,,,,,,08:16:40:213,08:16:40:924,08:16:43:927,left,08:16:44:511,2018_May_30_0802,59.9419238601,MP-Perception Experiment,xx04m20,
141,vcgpdm_dyn(25)-lvm(25)_final(0).mov,False,left,0,training(31).mov,0,140,140,96,,,,,,,,08:16:45:295,08:16:46:012,08:16:49:014,right,08:16:49:665,2018_May_30_0802,59.9419238601,MP-Perception Experiment,xx04m20,
142,vcgpdm_dyn(15)-lvm(30)_final(7).mov,True,left,0,training(21).mov,0,141,141,147,,,,,,,,08:16:50:464,08:16:51:166,08:16:54:169,right,08:16:56:654,2018_May_30_0802,59.9419238601,MP-Perception Experiment,xx04m20,
143,tmp_numprim(5)_final(8).mov,False,left,0,training(11).mov,0,142,142,79,,,,,,,,08:16:57:421,08:16:58:156,08:17:01:175,left,08:17:02:675,2018_May_30_0802,59.9419238601,MP-Perception Experiment,xx04m20,
144,training(17).mov,True,right,0,vcgpdm_dyn(25)-lvm(30)_final(7).mov,0,143,143,3,,,,,,,,08:17:03:474,08:17:04:176,08:17:07:178,right,08:17:08:096,2018_May_30_0802,59.9419238601,MP-Perception Experiment,xx04m20,
145,training(24).mov,True,right,0,vcgpdm_dyn(25)-lvm(30)_final(9).mov,0,144,144,68,,,,,,,,08:17:08:874,08:17:09:597,08:17:12:599,right,08:17:13:066,2018_May_30_0802,59.9419238601,MP-Perception Experiment,xx04m20,
146,training(9).mov,False,right,0,vcgpdm_dyn(35)-lvm(25)_final(8).mov,0,145,145,105,,,,,,,,08:17:13:832,08:17:14:569,08:17:17:556,right,08:17:17:956,2018_May_30_0802,59.9419238601,MP-Perception Experiment,xx04m20,
147,training(14).mov,True,right,0,vgpdm_dyn(15)-lvm(30)_final(1).mov,0,146,146,89,,,,,,,,08:17:18:739,08:17:19:474,08:17:22:460,right,08:17:23:077,2018_May_30_0802,59.9419238601,MP-Perception Experiment,xx04m20,
148,training(17).mov,False,right,0,vcgpdm_dyn(20)-lvm(25)_final(1).mov,0,147,147,118,,,,,,,,08:17:23:862,08:17:24:578,08:17:27:581,right,08:17:27:965,2018_May_30_0802,59.9419238601,MP-Perception Experiment,xx04m20,
149,training(18).mov,False,right,0,dmp_npsi(15)_final(6).mov,0,148,148,47,,,,,,,,08:17:28:757,08:17:29:466,08:17:32:468,right,08:17:32:835,2018_May_30_0802,59.9419238601,MP-Perception Experiment,xx04m20,
150,tmp_numprim(9)_final(2).mov,True,left,0,training(9).mov,0,149,149,24,,,,,,,,08:17:33:636,08:17:34:337,08:17:37:340,left,08:17:37:857,2018_May_30_0802,59.9419238601,MP-Perception Experiment,xx04m20,
151,vgpdm_dyn(5)-lvm(15)_final(6).mov,False,left,0,training(26).mov,0,150,150,15,,,,,,,,08:17:38:637,08:17:39:375,08:17:42:361,left,08:17:42:794,2018_May_30_0802,59.9419238601,MP-Perception Experiment,xx04m20,
152,training(19).mov,True,right,0,vcgpdm_dyn(5)-lvm(10)_final(1).mov,0,151,151,141,,,,,,,,08:17:43:575,08:17:44:296,08:17:47:298,right,08:17:47:915,2018_May_30_0802,59.9419238601,MP-Perception Experiment,xx04m20,
153,training(27).mov,True,right,0,vgpdm_dyn(10)-lvm(20)_final(0).mov,0,152,152,146,,,,,,,,08:17:48:688,08:17:49:416,08:17:52:418,right,08:17:53:185,2018_May_30_0802,59.9419238601,MP-Perception Experiment,xx04m20,
154,dmp_npsi(40)_final(5).mov,False,left,0,training(39).mov,0,153,153,42,,,,,,,,08:17:53:962,08:17:54:703,08:17:57:689,left,08:17:58:306,2018_May_30_0802,59.9419238601,MP-Perception Experiment,xx04m20,
155,training(39).mov,False,right,0,map_gpdm_final(9).mov,0,154,154,76,,,,,,,,08:17:59:082,08:17:59:824,08:18:02:810,right,08:18:03:177,2018_May_30_0802,59.9419238601,MP-Perception Experiment,xx04m20,
156,training(9).mov,False,right,0,dmp_npsi(45)_final(8).mov,0,155,155,80,,,,,,,,08:18:03:959,08:18:04:679,08:18:07:665,left,08:18:09:468,2018_May_30_0802,59.9419238601,MP-Perception Experiment,xx04m20,
157,tmp_numprim(10)_final(6).mov,False,left,0,training(38).mov,0,156,156,72,,,,,,,,08:18:10:265,08:18:10:969,08:18:13:971,left,08:18:14:589,2018_May_30_0802,59.9419238601,MP-Perception Experiment,xx04m20,
158,training(8).mov,True,right,0,vgpdm_dyn(15)-lvm(35)_final(8).mov,0,157,157,77,,,,,,,,08:18:15:355,08:18:16:090,08:18:19:092,right,08:18:20:460,2018_May_30_0802,59.9419238601,MP-Perception Experiment,xx04m20,
159,training(29).mov,True,right,0,vcgpdm_dyn(25)-lvm(15)_final(3).mov,0,158,158,134,,,,,,,,08:18:21:249,08:18:21:961,08:18:24:964,left,08:18:25:515,2018_May_30_0802,59.9419238601,MP-Perception Experiment,xx04m20,
160,training(31).mov,True,right,1,vgpdm_dyn(30)-lvm(15)_final(0).mov,0,0,0,94,,,,,,,,08:20:40:669,08:20:41:398,08:20:44:384,right,08:20:45:018,2018_May_30_0802,59.9419238601,MP-Perception Experiment,xx04m20,
161,training(23).mov,False,right,1,vgpdm_dyn(35)-lvm(35)_final(9).mov,0,1,1,63,,,,,,,,08:20:45:791,08:20:46:537,08:20:49:522,right,08:20:50:390,2018_May_30_0802,59.9419238601,MP-Perception Experiment,xx04m20,
162,vcgpdm_dyn(25)-lvm(20)_final(6).mov,True,left,1,training(19).mov,0,2,2,73,,,,,,,,08:20:51:169,08:20:51:891,08:20:54:894,left,08:20:55:544,2018_May_30_0802,59.9419238601,MP-Perception Experiment,xx04m20,
163,training(4).mov,True,right,1,dmp_npsi(50)_final(7).mov,0,3,3,154,,,,,,,,08:20:56:325,08:20:57:045,08:21:00:048,right,08:21:00:481,2018_May_30_0802,59.9419238601,MP-Perception Experiment,xx04m20,
164,vgpdm_dyn(25)-lvm(20)_final(0).mov,True,left,1,training(11).mov,0,4,4,116,,,,,,,,08:21:01:275,08:21:01:983,08:21:04:986,right,08:21:05:420,2018_May_30_0802,59.9419238601,MP-Perception Experiment,xx04m20,
165,vcgpdm_dyn(10)-lvm(25)_final(4).mov,True,left,1,training(22).mov,0,5,5,78,,,,,,,,08:21:06:214,08:21:06:921,08:21:09:940,left,08:21:10:324,2018_May_30_0802,59.9419238601,MP-Perception Experiment,xx04m20,
166,training(24).mov,True,right,1,tmp_numprim(6)_final(1).mov,0,6,6,12,,,,,,,,08:21:11:108,08:21:11:825,08:21:14:826,left,08:21:15:359,2018_May_30_0802,59.9419238601,MP-Perception Experiment,xx04m20,
167,training(33).mov,False,right,1,dmp_npsi(35)_final(2).mov,0,7,7,90,,,,,,,,08:21:16:142,08:21:16:877,08:21:19:863,right,08:21:20:231,2018_May_30_0802,59.9419238601,MP-Perception Experiment,xx04m20,
168,training(24).mov,False,right,1,vcgpdm_dyn(15)-lvm(20)_final(3).mov,0,8,8,119,,,,,,,,08:21:21:006,08:21:21:732,08:21:24:735,left,08:21:25:485,2018_May_30_0802,59.9419238601,MP-Perception Experiment,xx04m20,
169,training(4).mov,False,right,1,tmp_numprim(7)_final(7).mov,0,9,9,44,,,,,,,,08:21:26:263,08:21:26:988,08:21:29:974,right,08:21:30:441,2018_May_30_0802,59.9419238601,MP-Perception Experiment,xx04m20,
170,vgpdm_dyn(25)-lvm(5)_final(2).mov,False,left,1,training(31).mov,0,10,10,115,,,,,,,,08:21:31:226,08:21:31:942,08:21:34:945,left,08:21:35:362,2018_May_30_0802,59.9419238601,MP-Perception Experiment,xx04m20,
171,training(35).mov,False,right,1,vcgpdm_dyn(15)-lvm(25)_final(0).mov,0,11,11,121,,,,,,,,08:21:36:142,08:21:36:879,08:21:39:866,right,08:21:41:117,2018_May_30_0802,59.9419238601,MP-Perception Experiment,xx04m20,
172,vcgpdm_dyn(20)-lvm(10)_final(2).mov,False,left,1,training(26).mov,0,12,12,87,,,,,,,,08:21:41:883,08:21:42:618,08:21:45:621,left,08:21:46:138,2018_May_30_0802,59.9419238601,MP-Perception Experiment,xx04m20,
173,vcgpdm_dyn(10)-lvm(10)_final(3).mov,True,left,1,training(27).mov,0,13,13,129,,,,,,,,08:21:46:920,08:21:47:639,08:21:50:641,right,08:21:51:793,2018_May_30_0802,59.9419238601,MP-Perception Experiment,xx04m20,
174,vcgpdm_dyn(20)-lvm(15)_final(0).mov,True,left,1,training(14).mov,0,14,14,101,,,,,,,,08:21:52:564,08:21:53:310,08:21:56:297,right,08:21:56:931,2018_May_30_0802,59.9419238601,MP-Perception Experiment,xx04m20,
175,tmp_numprim(3)_final(4).mov,False,left,1,training(0).mov,0,15,15,148,,,,,,,,08:21:57:716,08:21:58:432,08:22:01:451,left,08:22:02:035,2018_May_30_0802,59.9419238601,MP-Perception Experiment,xx04m20,
176,vcgpdm_dyn(25)-lvm(15)_final(9).mov,True,left,1,training(41).mov,0,16,16,32,,,,,,,,08:22:02:836,08:22:03:551,08:22:06:554,right,08:22:07:671,2018_May_30_0802,59.9419238601,MP-Perception Experiment,xx04m20,
177,vcgpdm_dyn(5)-lvm(20)_final(9).mov,True,left,1,training(39).mov,0,17,17,137,,,,,,,,08:22:08:479,08:22:09:172,08:22:12:175,left,08:22:12:492,2018_May_30_0802,59.9419238601,MP-Perception Experiment,xx04m20,
178,training(12).mov,False,right,1,dmp_npsi(30)_final(6).mov,0,18,18,140,,,,,,,,08:22:13:284,08:22:13:994,08:22:16:981,right,08:22:17:432,2018_May_30_0802,59.9419238601,MP-Perception Experiment,xx04m20,
179,vgpdm_dyn(10)-lvm(15)_final(4).mov,False,left,1,training(21).mov,0,19,19,120,,,,,,,,08:22:18:210,08:22:18:933,08:22:21:936,left,08:22:22:453,2018_May_30_0802,59.9419238601,MP-Perception Experiment,xx04m20,
180,vcgpdm_dyn(20)-lvm(10)_final(8).mov,False,left,1,training(23).mov,0,20,20,136,,,,,,,,08:22:23:235,08:22:23:954,08:22:26:956,left,08:22:27:674,2018_May_30_0802,59.9419238601,MP-Perception Experiment,xx04m20,
181,vgpdm_dyn(10)-lvm(25)_final(9).mov,False,left,1,training(26).mov,0,21,21,72,,,,,,,,08:22:28:462,08:22:29:175,08:22:32:178,right,08:22:32:562,2018_May_30_0802,59.9419238601,MP-Perception Experiment,xx04m20,
182,vcgpdm_dyn(25)-lvm(5)_final(1).mov,False,left,1,training(15).mov,0,22,22,109,,,,,,,,08:22:33:352,08:22:34:063,08:22:37:082,left,08:22:39:601,2018_May_30_0802,59.9419238601,MP-Perception Experiment,xx04m20,
183,training(14).mov,False,right,1,vgpdm_dyn(25)-lvm(20)_final(3).mov,0,23,23,102,,,,,,,,08:22:40:371,08:22:41:102,08:22:44:121,right,08:22:44:888,2018_May_30_0802,59.9419238601,MP-Perception Experiment,xx04m20,
184,training(17).mov,True,right,1,vgpdm_dyn(35)-lvm(10)_final(2).mov,0,24,24,112,,,,,,,,08:22:45:675,08:22:46:406,08:22:49:410,left,08:22:49:960,2018_May_30_0802,59.9419238601,MP-Perception Experiment,xx04m20,
185,tmp_numprim(8)_final(8).mov,True,left,1,training(22).mov,0,25,25,59,,,,,,,,08:22:50:741,08:22:51:478,08:22:54:462,right,08:22:54:929,2018_May_30_0802,59.9419238601,MP-Perception Experiment,xx04m20,
186,vgpdm_dyn(35)-lvm(30)_final(3).mov,True,left,1,training(24).mov,0,26,26,145,,,,,,,,08:22:55:705,08:22:56:430,08:22:59:433,left,08:22:59:800,2018_May_30_0802,59.9419238601,MP-Perception Experiment,xx04m20,
187,vcgpdm_dyn(20)-lvm(5)_final(9).mov,False,left,1,training(37).mov,0,27,27,133,,,,,,,,08:23:00:577,08:23:01:301,08:23:04:303,left,08:23:04:787,2018_May_30_0802,59.9419238601,MP-Perception Experiment,xx04m20,
188,tmp_numprim(7)_final(1).mov,False,left,1,training(12).mov,0,28,28,75,,,,,,,,08:23:05:553,08:23:06:289,08:23:09:276,right,08:23:09:627,2018_May_30_0802,59.9419238601,MP-Perception Experiment,xx04m20,
189,training(9).mov,False,right,1,vcgpdm_dyn(10)-lvm(15)_final(8).mov,0,29,29,34,,,,,,,,08:23:10:405,08:23:11:128,08:23:14:131,left,08:23:14:765,2018_May_30_0802,59.9419238601,MP-Perception Experiment,xx04m20,
190,training(0).mov,False,right,1,vgpdm_dyn(10)-lvm(35)_final(7).mov,0,30,30,25,,,,,,,,08:23:15:537,08:23:16:266,08:23:19:268,right,08:23:19:685,2018_May_30_0802,59.9419238601,MP-Perception Experiment,xx04m20,
191,training(15).mov,True,right,1,dmp_npsi(35)_final(0).mov,0,31,31,111,,,,,,,,08:23:20:456,08:23:21:186,08:23:24:190,right,08:23:24:690,2018_May_30_0802,59.9419238601,MP-Perception Experiment,xx04m20,
192,training(34).mov,True,right,1,vcgpdm_dyn(30)-lvm(20)_final(7).mov,0,32,32,22,,,,,,,,08:23:25:473,08:23:26:191,08:23:29:194,left,08:23:29:561,2018_May_30_0802,59.9419238601,MP-Perception Experiment,xx04m20,
193,training(12).mov,True,right,1,vgpdm_dyn(35)-lvm(30)_final(4).mov,0,33,33,29,,,,,,,,08:23:30:329,08:23:31:062,08:23:34:064,right,08:23:34:548,2018_May_30_0802,59.9419238601,MP-Perception Experiment,xx04m20,
194,training(34).mov,True,right,1,vgpdm_dyn(15)-lvm(30)_final(0).mov,0,34,34,134,,,,,,,,08:23:35:832,08:23:36:350,08:23:39:052,right,08:23:39:619,2018_May_30_0802,59.9419238601,MP-Perception Experiment,xx04m20,
195,tmp_numprim(2)_final(2).mov,True,left,1,training(34).mov,0,35,35,114,,,,,,,,08:23:40:403,08:23:41:121,08:23:44:122,left,08:23:44:472,2018_May_30_0802,59.9419238601,MP-Perception Experiment,xx04m20,
196,training(40).mov,False,right,1,vgpdm_dyn(10)-lvm(5)_final(0).mov,0,36,36,15,,,,,,,,08:23:45:245,08:23:45:973,08:23:48:976,left,08:23:49:810,2018_May_30_0802,59.9419238601,MP-Perception Experiment,xx04m20,
197,training(40).mov,True,right,1,vgpdm_dyn(30)-lvm(35)_final(3).mov,0,37,37,124,,,,,,,,08:23:50:597,08:23:51:328,08:23:54:332,right,08:23:54:816,2018_May_30_0802,59.9419238601,MP-Perception Experiment,xx04m20,
198,training(30).mov,False,right,1,dmp_npsi(20)_final(0).mov,0,38,38,85,,,,,,,,08:23:55:594,08:23:56:317,08:23:59:320,right,08:23:59:827,2018_May_30_0802,59.9419238601,MP-Perception Experiment,xx04m20,
199,training(22).mov,False,right,1,vcgpdm_dyn(15)-lvm(25)_final(5).mov,0,39,39,74,,,,,,,,08:24:00:627,08:24:01:355,08:24:04:341,right,08:24:05:192,2018_May_30_0802,59.9419238601,MP-Perception Experiment,xx04m20,
200,training(21).mov,False,right,1,vgpdm_dyn(10)-lvm(20)_final(7).mov,0,40,40,42,,,,,,,,08:24:05:959,08:24:06:693,08:24:09:695,right,08:24:10:763,2018_May_30_0802,59.9419238601,MP-Perception Experiment,xx04m20,
201,training(29).mov,True,right,1,vgpdm_dyn(25)-lvm(30)_final(2).mov,0,41,41,79,,,,,,,,08:24:11:544,08:24:12:264,08:24:15:267,left,08:24:16:018,2018_May_30_0802,59.9419238601,MP-Perception Experiment,xx04m20,
202,vcgpdm_dyn(5)-lvm(15)_final(1).mov,False,left,1,training(18).mov,0,42,42,96,,,,,,,,08:24:16:800,08:24:17:519,08:24:20:522,left,08:24:20:972,2018_May_30_0802,59.9419238601,MP-Perception Experiment,xx04m20,
203,vgpdm_dyn(25)-lvm(35)_final(9).mov,False,left,1,training(39).mov,0,43,43,158,,,,,,,,08:24:21:762,08:24:22:473,08:24:25:492,right,08:24:25:976,2018_May_30_0802,59.9419238601,MP-Perception Experiment,xx04m20,
204,vcgpdm_dyn(10)-lvm(30)_final(3).mov,False,left,1,training(40).mov,0,44,44,139,,,,,,,,08:24:26:751,08:24:27:477,08:24:30:480,left,08:24:30:880,2018_May_30_0802,59.9419238601,MP-Perception Experiment,xx04m20,
205,vgpdm_dyn(20)-lvm(35)_final(7).mov,True,left,1,training(27).mov,0,45,45,14,,,,,,,,08:24:31:658,08:24:32:381,08:24:35:383,left,08:24:35:800,2018_May_30_0802,59.9419238601,MP-Perception Experiment,xx04m20,
206,training(30).mov,False,right,1,vgpdm_dyn(35)-lvm(25)_final(5).mov,0,46,46,58,,,,,,,,08:24:36:582,08:24:37:301,08:24:40:303,left,08:24:40:687,2018_May_30_0802,59.9419238601,MP-Perception Experiment,xx04m20,
207,training(13).mov,True,right,1,vgpdm_dyn(30)-lvm(5)_final(9).mov,0,47,47,48,,,,,,,,08:24:41:480,08:24:42:205,08:24:45:192,right,08:24:45:810,2018_May_30_0802,59.9419238601,MP-Perception Experiment,xx04m20,
208,training(48).mov,True,right,1,vcgpdm_dyn(35)-lvm(20)_final(9).mov,0,48,48,1,,,,,,,,08:24:46:587,08:24:47:311,08:24:50:314,left,08:24:50:998,2018_May_30_0802,59.9419238601,MP-Perception Experiment,xx04m20,
209,training(27).mov,True,right,1,vgpdm_dyn(25)-lvm(20)_final(2).mov,0,49,49,95,,,,,,,,08:24:51:778,08:24:52:499,08:24:55:502,left,08:24:56:219,2018_May_30_0802,59.9419238601,MP-Perception Experiment,xx04m20,
210,vgpdm_dyn(20)-lvm(20)_final(2).mov,False,left,1,training(13).mov,0,50,50,46,,,,,,,,08:24:57:013,08:24:57:720,08:25:00:723,right,08:25:02:224,2018_May_30_0802,59.9419238601,MP-Perception Experiment,xx04m20,
211,training(18).mov,False,right,1,vgpdm_dyn(35)-lvm(30)_final(2).mov,0,51,51,41,,,,,,,,08:25:03:012,08:25:03:725,08:25:06:727,left,08:25:07:963,2018_May_30_0802,59.9419238601,MP-Perception Experiment,xx04m20,
212,training(11).mov,False,right,1,vcgpdm_dyn(35)-lvm(25)_final(9).mov,0,52,52,24,,,,,,,,08:25:08:756,08:25:09:464,08:25:12:466,right,08:25:13:000,2018_May_30_0802,59.9419238601,MP-Perception Experiment,xx04m20,
213,training(28).mov,True,right,1,vcgpdm_dyn(15)-lvm(35)_final(6).mov,0,53,53,51,,,,,,,,08:25:13:768,08:25:14:502,08:25:17:504,right,08:25:18:154,2018_May_30_0802,59.9419238601,MP-Perception Experiment,xx04m20,
214,vcgpdm_dyn(5)-lvm(10)_final(9).mov,True,left,1,training(13).mov,0,54,54,80,,,,,,,,08:25:18:927,08:25:19:656,08:25:22:656,left,08:25:23:023,2018_May_30_0802,59.9419238601,MP-Perception Experiment,xx04m20,
215,vgpdm_dyn(25)-lvm(5)_final(4).mov,True,left,1,training(23).mov,0,55,55,126,,,,,,,,08:25:23:805,08:25:24:524,08:25:27:528,left,08:25:28:095,2018_May_30_0802,59.9419238601,MP-Perception Experiment,xx04m20,
216,vcgpdm_dyn(10)-lvm(35)_final(8).mov,True,left,1,training(7).mov,0,56,56,157,,,,,,,,08:25:28:879,08:25:29:613,08:25:32:599,left,08:25:32:932,2018_May_30_0802,59.9419238601,MP-Perception Experiment,xx04m20,
217,training(21).mov,False,right,1,vgpdm_dyn(20)-lvm(30)_final(5).mov,0,57,57,153,,,,,,,,08:25:33:720,08:25:34:435,08:25:37:438,left,08:25:37:888,2018_May_30_0802,59.9419238601,MP-Perception Experiment,xx04m20,
218,training(9).mov,False,right,1,vcgpdm_dyn(15)-lvm(5)_final(7).mov,0,58,58,7,,,,,,,,08:25:38:676,08:25:39:389,08:25:42:392,right,08:25:42:743,2018_May_30_0802,59.9419238601,MP-Perception Experiment,xx04m20,
219,training(39).mov,False,right,1,vcgpdm_dyn(20)-lvm(20)_final(5).mov,0,59,59,93,,,,,,,,08:25:43:516,08:25:44:244,08:25:47:247,left,08:25:47:680,2018_May_30_0802,59.9419238601,MP-Perception Experiment,xx04m20,
220,training(21).mov,True,right,1,vgpdm_dyn(10)-lvm(15)_final(1).mov,0,60,60,143,,,,,,,,08:25:48:454,08:25:49:181,08:25:52:201,right,08:25:52:601,2018_May_30_0802,59.9419238601,MP-Perception Experiment,xx04m20,
221,training(9).mov,True,right,1,vcgpdm_dyn(5)-lvm(15)_final(5).mov,0,61,61,52,,,,,,,,08:25:53:366,08:25:54:102,08:25:57:104,right,08:25:57:522,2018_May_30_0802,59.9419238601,MP-Perception Experiment,xx04m20,
222,training(17).mov,True,right,1,vcgpdm_dyn(30)-lvm(5)_final(8).mov,0,62,62,144,,,,,,,,08:25:58:295,08:25:59:023,08:26:02:026,left,08:26:02:527,2018_May_30_0802,59.9419238601,MP-Perception Experiment,xx04m20,
223,training(26).mov,True,right,1,dmp_npsi(45)_final(9).mov,0,63,63,39,,,,,,,,08:26:03:318,08:26:04:028,08:26:07:030,left,08:26:07:614,2018_May_30_0802,59.9419238601,MP-Perception Experiment,xx04m20,
224,map_cgpdm_final(4).mov,True,left,1,training(24).mov,0,64,64,100,,,,,,,,08:26:08:390,08:26:09:115,08:26:12:118,right,08:26:14:334,2018_May_30_0802,59.9419238601,MP-Perception Experiment,xx04m20,
225,vcgpdm_dyn(10)-lvm(30)_final(9).mov,True,left,1,training(25).mov,0,65,65,91,,,,,,,,08:26:15:119,08:26:15:852,08:26:18:839,right,08:26:19:857,2018_May_30_0802,59.9419238601,MP-Perception Experiment,xx04m20,
226,training(34).mov,True,right,1,vgpdm_dyn(15)-lvm(25)_final(4).mov,0,66,66,5,,,,,,,,08:26:20:637,08:26:21:358,08:26:24:345,left,08:26:24:779,2018_May_30_0802,59.9419238601,MP-Perception Experiment,xx04m20,
227,vcgpdm_dyn(30)-lvm(10)_final(1).mov,True,left,1,training(31).mov,0,67,67,53,,,,,,,,08:26:25:570,08:26:26:280,08:26:29:283,left,08:26:30:150,2018_May_30_0802,59.9419238601,MP-Perception Experiment,xx04m20,
228,training(7).mov,False,right,1,vcgpdm_dyn(20)-lvm(5)_final(7).mov,0,68,68,88,,,,,,,,08:26:30:936,08:26:31:651,08:26:34:654,left,08:26:35:239,2018_May_30_0802,59.9419238601,MP-Perception Experiment,xx04m20,
229,training(38).mov,True,right,1,dmp_npsi(50)_final(9).mov,0,69,69,156,,,,,,,,08:26:36:009,08:26:36:740,08:26:39:742,right,08:26:40:309,2018_May_30_0802,59.9419238601,MP-Perception Experiment,xx04m20,
230,vcgpdm_dyn(10)-lvm(20)_final(5).mov,False,left,1,training(21).mov,0,70,70,57,,,,,,,,08:26:41:096,08:26:41:810,08:26:44:813,left,08:26:45:847,2018_May_30_0802,59.9419238601,MP-Perception Experiment,xx04m20,
231,vgpdm_dyn(35)-lvm(5)_final(9).mov,False,left,1,training(14).mov,0,71,71,83,,,,,,,,08:26:46:621,08:26:47:348,08:26:50:368,right,08:26:50:951,2018_May_30_0802,59.9419238601,MP-Perception Experiment,xx04m20,
232,dmp_npsi(30)_final(9).mov,False,left,1,training(33).mov,0,72,72,76,,,,,,,,08:26:51:734,08:26:52:470,08:26:55:472,left,08:26:55:940,2018_May_30_0802,59.9419238601,MP-Perception Experiment,xx04m20,
233,tmp_numprim(7)_final(4).mov,True,left,1,training(20).mov,0,73,73,28,,,,,,,,08:26:56:726,08:26:57:457,08:27:00:443,left,08:27:01:210,2018_May_30_0802,59.9419238601,MP-Perception Experiment,xx04m20,
234,dmp_npsi(20)_final(0).mov,False,left,1,training(12).mov,0,74,74,68,,,,,,,,08:27:01:983,08:27:02:726,08:27:05:712,left,08:27:06:063,2018_May_30_0802,59.9419238601,MP-Perception Experiment,xx04m20,
235,training(29).mov,True,right,1,vcgpdm_dyn(5)-lvm(25)_final(6).mov,0,75,75,104,,,,,,,,08:27:06:847,08:27:07:564,08:27:10:567,right,08:27:10:968,2018_May_30_0802,59.9419238601,MP-Perception Experiment,xx04m20,
236,vgpdm_dyn(15)-lvm(25)_final(3).mov,False,left,1,training(22).mov,0,76,76,67,,,,,,,,08:27:11:785,08:27:12:468,08:27:15:456,left,08:27:16:340,2018_May_30_0802,59.9419238601,MP-Perception Experiment,xx04m20,
237,training(6).mov,False,right,1,tmp_numprim(7)_final(3).mov,0,77,77,127,,,,,,,,08:27:17:129,08:27:17:841,08:27:20:844,right,08:27:21:278,2018_May_30_0802,59.9419238601,MP-Perception Experiment,xx04m20,
238,tmp_numprim(4)_final(9).mov,True,left,1,training(23).mov,0,78,78,38,,,,,,,,08:27:22:063,08:27:22:779,08:27:25:781,left,08:27:26:182,2018_May_30_0802,59.9419238601,MP-Perception Experiment,xx04m20,
239,vgpdm_dyn(35)-lvm(10)_final(6).mov,True,left,1,training(2).mov,0,79,79,149,,,,,,,,08:27:26:956,08:27:27:684,08:27:30:703,left,08:27:31:220,2018_May_30_0802,59.9419238601,MP-Perception Experiment,xx04m20,
240,training(24).mov,False,right,1,vcgpdm_dyn(10)-lvm(5)_final(3).mov,0,80,80,142,,,,,,,,08:27:31:973,08:27:32:721,08:27:35:740,right,08:27:36:141,2018_May_30_0802,59.9419238601,MP-Perception Experiment,xx04m20,
241,vgpdm_dyn(10)-lvm(5)_final(0).mov,False,left,1,training(16).mov,0,81,81,64,,,,,,,,08:27:36:923,08:27:37:642,08:27:40:661,left,08:27:41:762,2018_May_30_0802,59.9419238601,MP-Perception Experiment,xx04m20,
242,training(3).mov,False,right,1,vgpdm_dyn(20)-lvm(30)_final(5).mov,0,82,82,30,,,,,,,,08:27:42:540,08:27:43:279,08:27:46:266,right,08:27:46:767,2018_May_30_0802,59.9419238601,MP-Perception Experiment,xx04m20,
243,training(10).mov,False,right,1,vcgpdm_dyn(30)-lvm(25)_final(6).mov,0,83,83,138,,,,,,,,08:27:47:544,08:27:48:268,08:27:51:288,left,08:27:51:854,2018_May_30_0802,59.9419238601,MP-Perception Experiment,xx04m20,
244,vcgpdm_dyn(20)-lvm(30)_final(7).mov,False,left,1,training(32).mov,0,84,84,10,,,,,,,,08:27:52:616,08:27:53:370,08:27:56:356,left,08:27:56:890,2018_May_30_0802,59.9419238601,MP-Perception Experiment,xx04m20,
245,training(37).mov,False,right,1,vcgpdm_dyn(20)-lvm(25)_final(2).mov,0,85,85,54,,,,,,,,08:27:57:661,08:27:58:391,08:28:01:393,right,08:28:01:727,2018_May_30_0802,59.9419238601,MP-Perception Experiment,xx04m20,
246,training(48).mov,True,right,1,vgpdm_dyn(30)-lvm(15)_final(7).mov,0,86,86,98,,,,,,,,08:28:02:503,08:28:03:229,08:28:06:217,right,08:28:06:667,2018_May_30_0802,59.9419238601,MP-Perception Experiment,xx04m20,
247,vgpdm_dyn(30)-lvm(35)_final(8).mov,False,left,1,training(35).mov,0,87,87,155,,,,,,,,08:28:07:465,08:28:08:168,08:28:11:171,right,08:28:11:655,2018_May_30_0802,59.9419238601,MP-Perception Experiment,xx04m20,
248,training(30).mov,True,right,1,vcgpdm_dyn(15)-lvm(15)_final(0).mov,0,88,88,147,,,,,,,,08:28:12:427,08:28:13:156,08:28:16:158,left,08:28:16:575,2018_May_30_0802,59.9419238601,MP-Perception Experiment,xx04m20,
249,vcgpdm_dyn(10)-lvm(10)_final(0).mov,False,left,1,training(7).mov,0,89,89,16,,,,,,,,08:28:17:359,08:28:18:076,08:28:21:080,left,08:28:21:547,2018_May_30_0802,59.9419238601,MP-Perception Experiment,xx04m20,
250,training(27).mov,True,right,1,vcgpdm_dyn(5)-lvm(20)_final(1).mov,0,90,90,65,,,,,,,,08:28:22:285,08:28:23:048,08:28:26:051,right,08:28:26:434,2018_May_30_0802,59.9419238601,MP-Perception Experiment,xx04m20,
251,training(38).mov,False,right,1,vgpdm_dyn(10)-lvm(25)_final(0).mov,0,91,91,43,,,,,,,,08:28:27:216,08:28:27:935,08:28:30:938,right,08:28:32:673,2018_May_30_0802,59.9419238601,MP-Perception Experiment,xx04m20,
252,vgpdm_dyn(20)-lvm(20)_final(9).mov,True,left,1,training(31).mov,0,92,92,4,,,,,,,,08:28:33:440,08:28:34:190,08:28:37:176,right,08:28:37:961,2018_May_30_0802,59.9419238601,MP-Perception Experiment,xx04m20,
253,training(39).mov,False,right,1,dmp_npsi(45)_final(2).mov,0,93,93,26,,,,,,,,08:28:38:742,08:28:39:462,08:28:42:465,right,08:28:43:247,2018_May_30_0802,59.9419238601,MP-Perception Experiment,xx04m20,
254,vgpdm_dyn(5)-lvm(35)_final(6)_bad.mov,True,left,1,training(31).mov,0,94,94,27,,,,,,,,08:28:44:023,08:28:44:748,08:28:47:767,left,08:28:48:284,2018_May_30_0802,59.9419238601,MP-Perception Experiment,xx04m20,
255,training(30).mov,True,right,1,vcgpdm_dyn(30)-lvm(30)_final(7).mov,0,95,95,50,,,,,,,,08:28:49:068,08:28:49:802,08:28:52:788,right,08:28:53:555,2018_May_30_0802,59.9419238601,MP-Perception Experiment,xx04m20,
256,training(36).mov,True,right,1,vcgpdm_dyn(10)-lvm(5)_final(4).mov,0,96,96,103,,,,,,,,08:28:54:340,08:28:55:059,08:28:58:062,right,08:28:58:879,2018_May_30_0802,59.9419238601,MP-Perception Experiment,xx04m20,
257,vgpdm_dyn(20)-lvm(5)_final(4).mov,True,left,1,training(14).mov,0,97,97,62,,,,,,,,08:28:59:662,08:29:00:397,08:29:03:382,left,08:29:03:983,2018_May_30_0802,59.9419238601,MP-Perception Experiment,xx04m20,
258,vgpdm_dyn(15)-lvm(10)_final(4)_out_of_screen.mov,False,left,1,training(3).mov,0,98,98,60,,,,,,,,08:29:04:763,08:29:05:484,08:29:08:487,right,08:29:08:937,2018_May_30_0802,59.9419238601,MP-Perception Experiment,xx04m20,
259,training(36).mov,True,right,1,vcgpdm_dyn(15)-lvm(10)_final(8).mov,0,99,99,23,,,,,,,,08:29:09:729,08:29:10:438,08:29:13:442,left,08:29:14:159,2018_May_30_0802,59.9419238601,MP-Perception Experiment,xx04m20,
260,vgpdm_dyn(5)-lvm(20)_final(4).mov,True,left,1,training(24).mov,0,100,100,3,,,,,,,,08:29:14:936,08:29:15:660,08:29:18:663,left,08:29:19:163,2018_May_30_0802,59.9419238601,MP-Perception Experiment,xx04m20,
261,training(5).mov,False,right,1,vcgpdm_dyn(10)-lvm(25)_final(0).mov,0,101,101,105,,,,,,,,08:29:19:944,08:29:20:681,08:29:23:666,right,08:29:24:067,2018_May_30_0802,59.9419238601,MP-Perception Experiment,xx04m20,
262,vcgpdm_dyn(10)-lvm(25)_final(2).mov,False,left,1,training(3).mov,0,102,102,70,,,,,,,,08:29:24:858,08:29:25:568,08:29:28:570,left,08:29:29:021,2018_May_30_0802,59.9419238601,MP-Perception Experiment,xx04m20,
263,training(6).mov,False,right,1,vgpdm_dyn(35)-lvm(25)_final(4).mov,0,103,103,33,,,,,,,,08:29:29:807,08:29:30:523,08:29:33:524,right,08:29:34:008,2018_May_30_0802,59.9419238601,MP-Perception Experiment,xx04m20,
264,training(12).mov,True,right,1,vgpdm_dyn(30)-lvm(10)_final(6).mov,0,104,104,49,,,,,,,,08:29:35:772,08:29:35:772,08:29:38:511,right,08:29:38:962,2018_May_30_0802,59.9419238601,MP-Perception Experiment,xx04m20,
265,vgpdm_dyn(5)-lvm(30)_final(7).mov,True,left,1,training(25).mov,0,105,105,84,,,,,,,,08:29:39:752,08:29:40:463,08:29:43:465,left,08:29:43:882,2018_May_30_0802,59.9419238601,MP-Perception Experiment,xx04m20,
266,training(26).mov,True,right,1,vgpdm_dyn(25)-lvm(35)_final(0).mov,0,106,106,31,,,,,,,,08:29:44:659,08:29:45:385,08:29:48:388,left,08:29:48:889,2018_May_30_0802,59.9419238601,MP-Perception Experiment,xx04m20,
267,training(26).mov,True,right,1,vgpdm_dyn(20)-lvm(15)_final(0).mov,0,107,107,35,,,,,,,,08:29:49:679,08:29:50:390,08:29:53:393,right,08:29:53:943,2018_May_30_0802,59.9419238601,MP-Perception Experiment,xx04m20,
268,vgpdm_dyn(15)-lvm(30)_final(8).mov,True,left,1,training(16).mov,0,108,108,40,,,,,,,,08:29:54:738,08:29:55:444,08:29:58:464,left,08:29:58:864,2018_May_30_0802,59.9419238601,MP-Perception Experiment,xx04m20,
269,vgpdm_dyn(20)-lvm(30)_final(5).mov,True,left,1,training(4).mov,0,109,109,117,,,,,,,,08:29:59:644,08:30:00:365,08:30:03:367,left,08:30:03:735,2018_May_30_0802,59.9419238601,MP-Perception Experiment,xx04m20,
270,training(6).mov,True,right,1,vgpdm_dyn(15)-lvm(35)_final(1).mov,0,110,110,18,,,,,,,,08:30:04:505,08:30:05:236,08:30:08:239,left,08:30:08:606,2018_May_30_0802,59.9419238601,MP-Perception Experiment,xx04m20,
271,tmp_numprim(8)_final(9).mov,False,left,1,training(2).mov,0,111,111,99,,,,,,,,08:30:09:395,08:30:10:124,08:30:13:109,right,08:30:13:827,2018_May_30_0802,59.9419238601,MP-Perception Experiment,xx04m20,
272,training(22).mov,False,right,1,dmp_npsi(25)_final(1).mov,0,112,112,113,,,,,,,,08:30:14:635,08:30:15:345,08:30:18:347,right,08:30:18:798,2018_May_30_0802,59.9419238601,MP-Perception Experiment,xx04m20,
273,training(37).mov,False,right,1,vgpdm_dyn(10)-lvm(30)_final(2).mov,0,113,113,82,,,,,,,,08:30:19:569,08:30:20:299,08:30:23:300,right,08:30:23:701,2018_May_30_0802,59.9419238601,MP-Perception Experiment,xx04m20,
274,vgpdm_dyn(10)-lvm(30)_final(7).mov,False,left,1,training(9).mov,0,114,114,81,,,,,,,,08:30:24:484,08:30:25:202,08:30:28:204,left,08:30:28:555,2018_May_30_0802,59.9419238601,MP-Perception Experiment,xx04m20,
275,vgpdm_dyn(15)-lvm(25)_final(2).mov,True,left,1,training(14).mov,0,115,115,123,,,,,,,,08:30:29:341,08:30:30:056,08:30:33:058,left,08:30:33:408,2018_May_30_0802,59.9419238601,MP-Perception Experiment,xx04m20,
276,vcgpdm_dyn(25)-lvm(10)_final(0).mov,True,left,1,training(6).mov,0,116,116,118,,,,,,,,08:30:34:200,08:30:34:910,08:30:37:897,right,08:30:38:414,2018_May_30_0802,59.9419238601,MP-Perception Experiment,xx04m20,
277,vcgpdm_dyn(10)-lvm(5)_final(9).mov,False,left,1,training(11).mov,0,117,117,8,,,,,,,,08:30:39:190,08:30:39:916,08:30:42:919,right,08:30:43:503,2018_May_30_0802,59.9419238601,MP-Perception Experiment,xx04m20,
278,vgpdm_dyn(10)-lvm(25)_final(8).mov,True,left,1,training(25).mov,0,118,118,37,,,,,,,,08:30:44:275,08:30:45:004,08:30:48:023,left,08:30:48:540,2018_May_30_0802,59.9419238601,MP-Perception Experiment,xx04m20,
279,vgpdm_dyn(10)-lvm(35)_final(9).mov,True,left,1,training(12).mov,0,119,119,71,,,,,,,,08:30:49:351,08:30:50:041,08:30:53:044,left,08:30:53:494,2018_May_30_0802,59.9419238601,MP-Perception Experiment,xx04m20,
280,training(5).mov,False,right,1,vcgpdm_dyn(15)-lvm(15)_final(4).mov,0,120,120,55,,,,,,,,08:30:54:276,08:30:54:995,08:30:57:999,left,08:30:58:366,2018_May_30_0802,59.9419238601,MP-Perception Experiment,xx04m20,
281,vcgpdm_dyn(15)-lvm(30)_final(3).mov,False,left,1,training(21).mov,0,121,121,131,,,,,,,,08:30:59:152,08:30:59:867,08:31:02:886,left,08:31:03:337,2018_May_30_0802,59.9419238601,MP-Perception Experiment,xx04m20,
282,training(3).mov,False,right,1,vcgpdm_dyn(35)-lvm(10)_final(6).mov,0,122,122,128,,,,,,,,08:31:04:125,08:31:04:854,08:31:07:857,left,08:31:08:290,2018_May_30_0802,59.9419238601,MP-Perception Experiment,xx04m20,
283,vgpdm_dyn(30)-lvm(10)_final(5).mov,True,left,1,training(39).mov,0,123,123,107,,,,,,,,08:31:09:060,08:31:09:808,08:31:12:792,left,08:31:13:159,2018_May_30_0802,59.9419238601,MP-Perception Experiment,xx04m20,
284,vcgpdm_dyn(20)-lvm(15)_final(1).mov,True,left,1,training(19).mov,0,124,124,146,,,,,,,,08:31:13:935,08:31:14:661,08:31:17:664,right,08:31:18:031,2018_May_30_0802,59.9419238601,MP-Perception Experiment,xx04m20,
285,vcgpdm_dyn(5)-lvm(20)_final(2).mov,True,left,1,training(12).mov,0,125,125,108,,,,,,,,08:31:18:826,08:31:19:532,08:31:22:551,left,08:31:22:985,2018_May_30_0802,59.9419238601,MP-Perception Experiment,xx04m20,
286,vcgpdm_dyn(5)-lvm(20)_final(0).mov,False,left,1,training(7).mov,0,126,126,141,,,,,,,,08:31:23:767,08:31:24:488,08:31:27:474,left,08:31:27:974,2018_May_30_0802,59.9419238601,MP-Perception Experiment,xx04m20,
287,training(15).mov,False,right,1,vgpdm_dyn(10)-lvm(5)_final(8).mov,0,127,127,150,,,,,,,,08:31:28:770,08:31:29:475,08:31:32:479,right,08:31:32:846,2018_May_30_0802,59.9419238601,MP-Perception Experiment,xx04m20,
288,training(41).mov,False,right,1,vcgpdm_dyn(10)-lvm(20)_final(0).mov,0,128,128,135,,,,,,,,08:31:33:644,08:31:34:347,08:31:37:349,right,08:31:37:683,2018_May_30_0802,59.9419238601,MP-Perception Experiment,xx04m20,
289,vcgpdm_dyn(10)-lvm(20)_final(8).mov,True,left,1,training(15).mov,0,129,129,56,,,,,,,,08:31:38:457,08:31:39:184,08:31:42:186,left,08:31:42:604,2018_May_30_0802,59.9419238601,MP-Perception Experiment,xx04m20,
290,vcgpdm_dyn(5)-lvm(5)_final(1).mov,False,left,1,training(31).mov,0,130,130,125,,,,,,,,08:31:43:381,08:31:44:105,08:31:47:107,right,08:31:47:641,2018_May_30_0802,59.9419238601,MP-Perception Experiment,xx04m20,
291,training(23).mov,True,right,1,vgpdm_dyn(15)-lvm(20)_final(8)_out_of_screen.mov,0,131,131,0,,,,,,,,08:31:48:428,08:31:49:159,08:31:52:145,right,08:31:52:596,2018_May_30_0802,59.9419238601,MP-Perception Experiment,xx04m20,
292,training(7).mov,True,right,1,vcgpdm_dyn(15)-lvm(10)_final(3).mov,0,132,132,11,,,,,,,,08:31:53:412,08:31:54:097,08:31:57:100,right,08:31:57:867,2018_May_30_0802,59.9419238601,MP-Perception Experiment,xx04m20,
293,training(6).mov,True,right,1,dmp_npsi(40)_final(8).mov,0,133,133,45,,,,,,,,08:31:58:649,08:31:59:368,08:32:02:370,left,08:32:02:969,2018_May_30_0802,59.9419238601,MP-Perception Experiment,xx04m20,
294,vgpdm_dyn(15)-lvm(35)_final(6).mov,True,left,1,training(13).mov,0,134,134,13,,,,,,,,08:32:03:748,08:32:04:470,08:32:07:474,left,08:32:08:008,2018_May_30_0802,59.9419238601,MP-Perception Experiment,xx04m20,
295,vcgpdm_dyn(20)-lvm(20)_final(1).mov,True,left,1,training(30).mov,0,135,135,130,,,,,,,,08:32:08:797,08:32:09:509,08:32:12:511,left,08:32:12:912,2018_May_30_0802,59.9419238601,MP-Perception Experiment,xx04m20,
296,vcgpdm_dyn(20)-lvm(15)_final(2).mov,True,left,1,training(5).mov,0,136,136,6,,,,,,,,08:32:13:682,08:32:14:414,08:32:17:417,right,08:32:17:967,2018_May_30_0802,59.9419238601,MP-Perception Experiment,xx04m20,
297,training(16).mov,False,right,1,vgpdm_dyn(25)-lvm(5)_final(0).mov,0,137,137,47,,,,,,,,08:32:18:756,08:32:19:469,08:32:22:471,right,08:32:23:589,2018_May_30_0802,59.9419238601,MP-Perception Experiment,xx04m20,
298,training(9).mov,True,right,1,vcgpdm_dyn(30)-lvm(20)_final(0).mov,0,138,138,122,,,,,,,,08:32:24:366,08:32:25:091,08:32:28:093,left,08:32:28:594,2018_May_30_0802,59.9419238601,MP-Perception Experiment,xx04m20,
299,tmp_numprim(9)_final(4).mov,True,left,1,training(5).mov,0,139,139,19,,,,,,,,08:32:29:370,08:32:30:095,08:32:33:097,right,08:32:33:631,2018_May_30_0802,59.9419238601,MP-Perception Experiment,xx04m20,
300,training(25).mov,True,right,1,vcgpdm_dyn(20)-lvm(25)_final(2).mov,0,140,140,77,,,,,,,,08:32:34:412,08:32:35:149,08:32:38:151,right,08:32:38:852,2018_May_30_0802,59.9419238601,MP-Perception Experiment,xx04m20,
301,training(26).mov,False,right,1,vgpdm_dyn(30)-lvm(15)_final(0).mov,0,141,141,9,,,,,,,,08:32:39:632,08:32:40:353,08:32:43:373,right,08:32:43:890,2018_May_30_0802,59.9419238601,MP-Perception Experiment,xx04m20,
302,training(39).mov,True,right,1,vgpdm_dyn(20)-lvm(5)_final(9).mov,0,142,142,86,,,,,,,,08:32:44:664,08:32:45:408,08:32:48:394,right,08:32:49:862,2018_May_30_0802,59.9419238601,MP-Perception Experiment,xx04m20,
303,training(9).mov,True,right,1,dmp_npsi(45)_final(2).mov,0,143,143,97,,,,,,,,08:32:50:635,08:32:51:363,08:32:54:364,right,08:32:54:797,2018_May_30_0802,59.9419238601,MP-Perception Experiment,xx04m20,
304,training(29).mov,True,right,1,vgpdm_dyn(25)-lvm(30)_final(2).mov,0,144,144,152,,,,,,,,08:32:55:570,08:32:56:298,08:32:59:301,right,08:33:00:086,2018_May_30_0802,59.9419238601,MP-Perception Experiment,xx04m20,
305,training(7).mov,True,right,1,vcgpdm_dyn(15)-lvm(20)_final(3).mov,0,145,145,20,,,,,,,,08:33:00:858,08:33:01:587,08:33:04:592,left,08:33:04:925,2018_May_30_0802,59.9419238601,MP-Perception Experiment,xx04m20,
306,dmp_npsi(25)_final(8).mov,False,left,1,training(23).mov,0,146,146,36,,,,,,,,08:33:05:698,08:33:06:443,08:33:09:428,right,08:33:09:829,2018_May_30_0802,59.9419238601,MP-Perception Experiment,xx04m20,
307,training(13).mov,True,right,1,tmp_numprim(8)_final(3).mov,0,147,147,69,,,,,,,,08:33:10:602,08:33:11:330,08:33:14:332,right,08:33:15:217,2018_May_30_0802,59.9419238601,MP-Perception Experiment,xx04m20,
308,training(4).mov,False,right,1,dmp_npsi(25)_final(3).mov,0,148,148,106,,,,,,,,08:33:15:990,08:33:16:718,08:33:19:738,right,08:33:20:155,2018_May_30_0802,59.9419238601,MP-Perception Experiment,xx04m20,
309,training(21).mov,False,right,1,vgpdm_dyn(10)-lvm(20)_final(2).mov,0,149,149,89,,,,,,,,08:33:20:925,08:33:21:656,08:33:24:659,left,08:33:25:242,2018_May_30_0802,59.9419238601,MP-Perception Experiment,xx04m20,
310,training(4).mov,False,right,1,vgpdm_dyn(30)-lvm(5)_final(7).mov,0,150,150,92,,,,,,,,08:33:26:018,08:33:26:743,08:33:29:763,left,08:33:31:064,2018_May_30_0802,59.9419238601,MP-Perception Experiment,xx04m20,
311,training(3).mov,True,right,1,vcgpdm_dyn(20)-lvm(35)_final(2).mov,0,151,151,132,,,,,,,,08:33:31:845,08:33:32:565,08:33:35:568,right,08:33:38:871,2018_May_30_0802,59.9419238601,MP-Perception Experiment,xx04m20,
312,vgpdm_dyn(10)-lvm(5)_final(4).mov,False,left,1,training(34).mov,0,152,152,17,,,,,,,,08:33:39:641,08:33:40:372,08:33:43:373,right,08:33:43:890,2018_May_30_0802,59.9419238601,MP-Perception Experiment,xx04m20,
313,training(30).mov,False,right,1,vgpdm_dyn(25)-lvm(20)_final(0).mov,0,153,153,151,,,,,,,,08:33:44:676,08:33:45:391,08:33:48:394,left,08:33:48:833,2018_May_30_0802,59.9419238601,MP-Perception Experiment,xx04m20,
314,training(40).mov,True,right,1,tmp_numprim(2)_final(6).mov,0,154,154,21,,,,,,,,08:33:49:615,08:33:50:345,08:33:53:349,right,08:33:53:799,2018_May_30_0802,59.9419238601,MP-Perception Experiment,xx04m20,
315,vgpdm_dyn(30)-lvm(30)_final(1).mov,True,left,1,training(12).mov,0,155,155,61,,,,,,,,08:33:54:584,08:33:55:300,08:33:58:287,left,08:33:59:055,2018_May_30_0802,59.9419238601,MP-Perception Experiment,xx04m20,
316,training(20).mov,False,right,1,dmp_npsi(35)_final(4).mov,0,156,156,66,,,,,,,,08:33:59:831,08:34:00:573,08:34:03:558,right,08:34:04:159,2018_May_30_0802,59.9419238601,MP-Perception Experiment,xx04m20,
317,training(24).mov,False,right,1,vcgpdm_dyn(15)-lvm(30)_final(0).mov,0,157,157,110,,,,,,,,08:34:04:926,08:34:05:660,08:34:08:663,left,08:34:09:146,2018_May_30_0802,59.9419238601,MP-Perception Experiment,xx04m20,
318,dmp_npsi(25)_final(9).mov,True,left,1,training(8).mov,0,158,158,2,,,,,,,,08:34:09:922,08:34:10:649,08:34:13:651,right,08:34:14:969,2018_May_30_0802,59.9419238601,MP-Perception Experiment,xx04m20,
319,training(26).mov,True,right,2,vgpdm_dyn(35)-lvm(35)_final(0).mov,0,0,0,103,,,,,,,,08:35:22:949,08:35:23:693,08:35:26:679,right,08:35:27:430,2018_May_30_0802,59.9419238601,MP-Perception Experiment,xx04m20,
320,training(25).mov,True,right,2,vcgpdm_dyn(35)-lvm(10)_final(9).mov,0,1,1,39,,,,,,,,08:35:28:209,08:35:28:931,08:35:31:933,left,08:35:32:267,2018_May_30_0802,59.9419238601,MP-Perception Experiment,xx04m20,
321,training(6).mov,True,right,2,map_cgpdm_final(0).mov,0,2,2,36,,,,,,,,08:35:33:049,08:35:33:785,08:35:36:755,right,08:35:37:157,2018_May_30_0802,59.9419238601,MP-Perception Experiment,xx04m20,
322,vcgpdm_dyn(15)-lvm(5)_final(3).mov,False,left,2,training(26).mov,0,3,3,133,,,,,,,,08:35:37:921,08:35:38:658,08:35:41:661,left,08:35:42:028,2018_May_30_0802,59.9419238601,MP-Perception Experiment,xx04m20,
323,dmp_npsi(40)_final(1).mov,True,left,2,training(16).mov,0,4,4,115,,,,,,,,08:35:42:803,08:35:43:528,08:35:46:531,right,08:35:47:015,2018_May_30_0802,59.9419238601,MP-Perception Experiment,xx04m20,
324,training(6).mov,True,right,2,vgpdm_dyn(10)-lvm(15)_final(1).mov,0,5,5,53,,,,,,,,08:35:47:799,08:35:48:516,08:35:51:535,left,08:35:52:019,2018_May_30_0802,59.9419238601,MP-Perception Experiment,xx04m20,
325,training(48).mov,False,right,2,vcgpdm_dyn(25)-lvm(30)_final(9).mov,0,6,6,131,,,,,,,,08:35:52:784,08:35:53:520,08:35:56:523,left,08:35:57:091,2018_May_30_0802,59.9419238601,MP-Perception Experiment,xx04m20,
326,vcgpdm_dyn(15)-lvm(15)_final(4).mov,False,left,2,training(24).mov,0,7,7,135,,,,,,,,08:35:57:867,08:35:58:592,08:36:01:594,right,08:36:02:011,2018_May_30_0802,59.9419238601,MP-Perception Experiment,xx04m20,
327,vcgpdm_dyn(25)-lvm(20)_final(1).mov,False,left,2,training(39).mov,0,8,8,127,,,,,,,,08:36:02:786,08:36:03:512,08:36:06:515,left,08:36:07:099,2018_May_30_0802,59.9419238601,MP-Perception Experiment,xx04m20,
328,training(12).mov,False,right,2,map_gpdm_final(5).mov,0,9,9,54,,,,,,,,08:36:07:879,08:36:08:600,08:36:11:602,right,08:36:12:054,2018_May_30_0802,59.9419238601,MP-Perception Experiment,xx04m20,
329,vcgpdm_dyn(10)-lvm(20)_final(5).mov,True,left,2,training(41).mov,0,10,10,55,,,,,,,,08:36:12:823,08:36:13:570,08:36:16:556,left,08:36:16:856,2018_May_30_0802,59.9419238601,MP-Perception Experiment,xx04m20,
330,vgpdm_dyn(25)-lvm(30)_final(2).mov,False,left,2,training(12).mov,0,11,11,96,,,,,,,,08:36:17:638,08:36:18:357,08:36:21:359,left,08:36:21:710,2018_May_30_0802,59.9419238601,MP-Perception Experiment,xx04m20,
331,vgpdm_dyn(20)-lvm(30)_final(7).mov,True,left,2,training(18).mov,0,12,12,114,,,,,,,,08:36:22:492,08:36:23:211,08:36:26:198,right,08:36:26:599,2018_May_30_0802,59.9419238601,MP-Perception Experiment,xx04m20,
332,training(2).mov,False,right,2,vgpdm_dyn(35)-lvm(5)_final(0).mov,0,13,13,145,,,,,,,,08:36:27:368,08:36:28:100,08:36:31:120,right,08:36:31:604,2018_May_30_0802,59.9419238601,MP-Perception Experiment,xx04m20,
333,vgpdm_dyn(35)-lvm(15)_final(2)_out_of_screen.mov,False,left,2,training(37).mov,0,14,14,93,,,,,,,,08:36:32:387,08:36:33:105,08:36:36:108,left,08:36:36:558,2018_May_30_0802,59.9419238601,MP-Perception Experiment,xx04m20,
334,vcgpdm_dyn(30)-lvm(5)_final(4).mov,False,left,2,training(22).mov,0,15,15,41,,,,,,,,08:36:37:353,08:36:38:059,08:36:41:061,left,08:36:41:478,2018_May_30_0802,59.9419238601,MP-Perception Experiment,xx04m20,
335,training(12).mov,True,right,2,vgpdm_dyn(25)-lvm(5)_final(1).mov,0,16,16,18,,,,,,,,08:36:42:256,08:36:42:980,08:36:45:982,right,08:36:46:432,2018_May_30_0802,59.9419238601,MP-Perception Experiment,xx04m20,
336,training(18).mov,False,right,2,dmp_npsi(50)_final(0).mov,0,17,17,109,,,,,,,,08:36:47:224,08:36:47:951,08:36:50:937,left,08:36:51:388,2018_May_30_0802,59.9419238601,MP-Perception Experiment,xx04m20,
337,vcgpdm_dyn(5)-lvm(25)_final(5).mov,False,left,2,training(33).mov,0,18,18,2,,,,,,,,08:36:52:597,08:36:53:105,08:36:55:891,left,08:36:56:475,2018_May_30_0802,59.9419238601,MP-Perception Experiment,xx04m20,
338,training(3).mov,True,right,2,vgpdm_dyn(35)-lvm(5)_final(4).mov,0,19,19,33,,,,,,,,08:36:57:282,08:36:57:976,08:37:00:978,right,08:37:01:395,2018_May_30_0802,59.9419238601,MP-Perception Experiment,xx04m20,
339,training(11).mov,True,right,2,vgpdm_dyn(20)-lvm(5)_final(5).mov,0,20,20,82,,,,,,,,08:37:02:169,08:37:02:897,08:37:05:898,left,08:37:06:332,2018_May_30_0802,59.9419238601,MP-Perception Experiment,xx04m20,
340,training(31).mov,False,right,2,vgpdm_dyn(10)-lvm(10)_final(7).mov,0,21,21,155,,,,,,,,08:37:07:113,08:37:07:833,08:37:10:836,right,08:37:11:586,2018_May_30_0802,59.9419238601,MP-Perception Experiment,xx04m20,
341,map_gpdm_final(0).mov,True,left,2,training(10).mov,0,22,22,126,,,,,,,,08:37:12:374,08:37:13:087,08:37:16:092,left,08:37:16:709,2018_May_30_0802,59.9419238601,MP-Perception Experiment,xx04m20,
342,tmp_numprim(10)_final(2).mov,False,left,2,training(14).mov,0,23,23,1,,,,,,,,08:37:17:515,08:37:18:227,08:37:21:212,left,08:37:21:663,2018_May_30_0802,59.9419238601,MP-Perception Experiment,xx04m20,
343,vgpdm_dyn(20)-lvm(20)_final(5).mov,False,left,2,training(39).mov,0,24,24,63,,,,,,,,08:37:22:449,08:37:23:165,08:37:26:167,right,08:37:26:668,2018_May_30_0802,59.9419238601,MP-Perception Experiment,xx04m20,
344,vcgpdm_dyn(25)-lvm(25)_final(1).mov,True,left,2,training(0).mov,0,25,25,148,,,,,,,,08:37:27:456,08:37:28:169,08:37:31:171,left,08:37:31:689,2018_May_30_0802,59.9419238601,MP-Perception Experiment,xx04m20,
345,vgpdm_dyn(20)-lvm(20)_final(5).mov,True,left,2,training(48).mov,0,26,26,3,,,,,,,,08:37:32:464,08:37:33:190,08:37:36:209,right,08:37:36:659,2018_May_30_0802,59.9419238601,MP-Perception Experiment,xx04m20,
346,training(21).mov,False,right,2,vcgpdm_dyn(20)-lvm(5)_final(9).mov,0,27,27,76,,,,,,,,08:37:37:432,08:37:38:160,08:37:41:164,left,08:37:41:547,2018_May_30_0802,59.9419238601,MP-Perception Experiment,xx04m20,
347,vcgpdm_dyn(10)-lvm(15)_final(9).mov,False,left,2,training(31).mov,0,28,28,26,,,,,,,,08:37:42:328,08:37:43:049,08:37:46:051,right,08:37:46:452,2018_May_30_0802,59.9419238601,MP-Perception Experiment,xx04m20,
348,training(19).mov,True,right,2,vgpdm_dyn(25)-lvm(35)_final(0).mov,0,29,29,130,,,,,,,,08:37:47:231,08:37:47:969,08:37:50:955,left,08:37:51:439,2018_May_30_0802,59.9419238601,MP-Perception Experiment,xx04m20,
349,training(8).mov,True,right,2,vcgpdm_dyn(10)-lvm(20)_final(4).mov,0,30,30,119,,,,,,,,08:37:52:218,08:37:52:940,08:37:55:941,left,08:37:56:224,2018_May_30_0802,59.9419238601,MP-Perception Experiment,xx04m20,
350,training(10).mov,False,right,2,tmp_numprim(3)_final(4).mov,0,31,31,14,,,,,,,,08:37:57:030,08:37:57:726,08:38:00:729,right,08:38:01:046,2018_May_30_0802,59.9419238601,MP-Perception Experiment,xx04m20,
351,training(5).mov,True,right,2,vcgpdm_dyn(35)-lvm(30)_final(0).mov,0,32,32,66,,,,,,,,08:38:01:850,08:38:02:564,08:38:05:550,left,08:38:05:950,2018_May_30_0802,59.9419238601,MP-Perception Experiment,xx04m20,
352,vcgpdm_dyn(5)-lvm(10)_final(8).mov,False,left,2,training(9).mov,0,33,33,47,,,,,,,,08:38:06:727,08:38:07:451,08:38:10:438,left,08:38:10:889,2018_May_30_0802,59.9419238601,MP-Perception Experiment,xx04m20,
353,training(1).mov,True,right,2,vcgpdm_dyn(15)-lvm(35)_final(7).mov,0,34,34,134,,,,,,,,08:38:11:673,08:38:12:390,08:38:15:411,right,08:38:15:927,2018_May_30_0802,59.9419238601,MP-Perception Experiment,xx04m20,
354,vcgpdm_dyn(35)-lvm(30)_final(7).mov,False,left,2,training(38).mov,0,35,35,27,,,,,,,,08:38:16:715,08:38:17:428,08:38:20:431,left,08:38:20:865,2018_May_30_0802,59.9419238601,MP-Perception Experiment,xx04m20,
355,vcgpdm_dyn(10)-lvm(25)_final(8).mov,True,left,2,training(33).mov,0,36,36,68,,,,,,,,08:38:21:650,08:38:22:366,08:38:25:368,left,08:38:25:919,2018_May_30_0802,59.9419238601,MP-Perception Experiment,xx04m20,
356,vcgpdm_dyn(30)-lvm(15)_final(3).mov,False,left,2,training(17).mov,0,37,37,157,,,,,,,,08:38:26:690,08:38:27:437,08:38:30:422,left,08:38:30:840,2018_May_30_0802,59.9419238601,MP-Perception Experiment,xx04m20,
357,training(5).mov,False,right,2,vcgpdm_dyn(35)-lvm(10)_final(7).mov,0,38,38,137,,,,,,,,08:38:31:609,08:38:32:342,08:38:35:361,left,08:38:35:844,2018_May_30_0802,59.9419238601,MP-Perception Experiment,xx04m20,
358,training(38).mov,True,right,2,vgpdm_dyn(35)-lvm(35)_final(9).mov,0,39,39,59,,,,,,,,08:38:36:631,08:38:37:345,08:38:40:348,right,08:38:40:732,2018_May_30_0802,59.9419238601,MP-Perception Experiment,xx04m20,
359,training(23).mov,True,right,2,vcgpdm_dyn(10)-lvm(35)_final(6).mov,0,40,40,123,,,,,,,,08:38:41:517,08:38:42:233,08:38:45:233,right,08:38:45:667,2018_May_30_0802,59.9419238601,MP-Perception Experiment,xx04m20,
360,vcgpdm_dyn(25)-lvm(10)_final(9).mov,True,left,2,training(37).mov,0,41,41,105,,,,,,,,08:38:46:450,08:38:47:168,08:38:50:172,left,08:38:50:589,2018_May_30_0802,59.9419238601,MP-Perception Experiment,xx04m20,
361,dmp_npsi(15)_final(7).mov,False,left,2,training(15).mov,0,42,42,75,,,,,,,,08:38:51:365,08:38:52:090,08:38:55:077,left,08:38:55:495,2018_May_30_0802,59.9419238601,MP-Perception Experiment,xx04m20,
362,vcgpdm_dyn(5)-lvm(25)_final(6).mov,False,left,2,training(18).mov,0,43,43,84,,,,,,,,08:38:56:267,08:38:56:996,08:38:59:998,left,08:39:00:365,2018_May_30_0802,59.9419238601,MP-Perception Experiment,xx04m20,
363,training(15).mov,False,right,2,dmp_npsi(35)_final(9).mov,0,44,44,78,,,,,,,,08:39:01:135,08:39:01:866,08:39:04:869,right,08:39:05:436,2018_May_30_0802,59.9419238601,MP-Perception Experiment,xx04m20,
364,vcgpdm_dyn(25)-lvm(10)_final(8).mov,False,left,2,training(48).mov,0,45,45,13,,,,,,,,08:39:06:204,08:39:06:955,08:39:09:957,right,08:39:10:424,2018_May_30_0802,59.9419238601,MP-Perception Experiment,xx04m20,
365,vgpdm_dyn(10)-lvm(35)_final(9).mov,True,left,2,training(22).mov,0,46,46,139,,,,,,,,08:39:11:197,08:39:11:925,08:39:14:945,left,08:39:15:462,2018_May_30_0802,59.9419238601,MP-Perception Experiment,xx04m20,
366,training(32).mov,False,right,2,vcgpdm_dyn(20)-lvm(30)_final(9).mov,0,47,47,154,,,,,,,,08:39:16:248,08:39:16:963,08:39:19:965,left,08:39:20:733,2018_May_30_0802,59.9419238601,MP-Perception Experiment,xx04m20,
367,training(23).mov,True,right,2,vgpdm_dyn(15)-lvm(35)_final(8).mov,0,48,48,98,,,,,,,,08:39:21:508,08:39:22:234,08:39:25:254,right,08:39:25:838,2018_May_30_0802,59.9419238601,MP-Perception Experiment,xx04m20,
368,vgpdm_dyn(30)-lvm(10)_final(8).mov,True,left,2,training(20).mov,0,49,49,11,,,,,,,,08:39:26:607,08:39:27:339,08:39:30:358,left,08:39:30:725,2018_May_30_0802,59.9419238601,MP-Perception Experiment,xx04m20,
369,training(29).mov,True,right,2,vcgpdm_dyn(30)-lvm(35)_final(5).mov,0,50,50,91,,,,,,,,08:39:31:498,08:39:32:226,08:39:35:227,left,08:39:35:560,2018_May_30_0802,59.9419238601,MP-Perception Experiment,xx04m20,
370,training(12).mov,False,right,2,vgpdm_dyn(15)-lvm(15)_final(1).mov,0,51,51,72,,,,,,,,08:39:36:343,08:39:37:061,08:39:40:064,right,08:39:40:648,2018_May_30_0802,59.9419238601,MP-Perception Experiment,xx04m20,
371,training(0).mov,True,right,2,vgpdm_dyn(15)-lvm(5)_final(8).mov,0,52,52,48,,,,,,,,08:39:41:440,08:39:42:167,08:39:45:152,left,08:39:45:436,2018_May_30_0802,59.9419238601,MP-Perception Experiment,xx04m20,
372,training(2).mov,False,right,2,vcgpdm_dyn(15)-lvm(5)_final(8).mov,0,53,53,35,,,,,,,,08:39:46:209,08:39:46:954,08:39:49:941,left,08:39:50:475,2018_May_30_0802,59.9419238601,MP-Perception Experiment,xx04m20,
373,training(41).mov,True,right,2,vgpdm_dyn(30)-lvm(5)_final(3).mov,0,54,54,108,,,,,,,,08:39:51:270,08:39:51:976,08:39:54:979,right,08:39:55:496,2018_May_30_0802,59.9419238601,MP-Perception Experiment,xx04m20,
374,training(28).mov,True,right,2,vcgpdm_dyn(10)-lvm(15)_final(8).mov,0,55,55,106,,,,,,,,08:39:56:262,08:39:57:014,08:40:00:017,left,08:40:00:551,2018_May_30_0802,59.9419238601,MP-Perception Experiment,xx04m20,
375,training(12).mov,True,right,2,vgpdm_dyn(15)-lvm(5)_final(0).mov,0,56,56,144,,,,,,,,08:40:01:347,08:40:02:052,08:40:05:055,left,08:40:05:522,2018_May_30_0802,59.9419238601,MP-Perception Experiment,xx04m20,
376,vcgpdm_dyn(35)-lvm(5)_final(1).mov,False,left,2,training(21).mov,0,57,57,10,,,,,,,,08:40:06:299,08:40:07:023,08:40:10:025,left,08:40:11:176,2018_May_30_0802,59.9419238601,MP-Perception Experiment,xx04m20,
377,vcgpdm_dyn(35)-lvm(30)_final(2).mov,True,left,2,training(17).mov,0,58,58,129,,,,,,,,08:40:11:979,08:40:12:677,08:40:15:680,right,08:40:16:080,2018_May_30_0802,59.9419238601,MP-Perception Experiment,xx04m20,
378,dmp_npsi(35)_final(2).mov,True,left,2,training(39).mov,0,59,59,37,,,,,,,,08:40:16:852,08:40:17:582,08:40:20:585,left,08:40:21:052,2018_May_30_0802,59.9419238601,MP-Perception Experiment,xx04m20,
379,training(28).mov,False,right,2,vcgpdm_dyn(30)-lvm(25)_final(6).mov,0,60,60,79,,,,,,,,08:40:21:823,08:40:22:570,08:40:25:554,right,08:40:25:988,2018_May_30_0802,59.9419238601,MP-Perception Experiment,xx04m20,
380,vcgpdm_dyn(15)-lvm(10)_final(5).mov,False,left,2,training(25).mov,0,61,61,120,,,,,,,,08:40:26:758,08:40:27:489,08:40:30:491,left,08:40:30:942,2018_May_30_0802,59.9419238601,MP-Perception Experiment,xx04m20,
381,training(1).mov,False,right,2,vcgpdm_dyn(30)-lvm(20)_final(4).mov,0,62,62,118,,,,,,,,08:40:31:720,08:40:32:443,08:40:35:431,right,08:40:35:782,2018_May_30_0802,59.9419238601,MP-Perception Experiment,xx04m20,
382,training(15).mov,False,right,2,dmp_npsi(10)_final(4)_bad.mov,0,63,63,58,,,,,,,,08:40:36:564,08:40:37:283,08:40:40:302,right,08:40:41:052,2018_May_30_0802,59.9419238601,MP-Perception Experiment,xx04m20,
383,training(40).mov,False,right,2,vgpdm_dyn(5)-lvm(30)_final(7).mov,0,64,64,12,,,,,,,,08:40:41:832,08:40:42:570,08:40:45:573,right,08:40:46:040,2018_May_30_0802,59.9419238601,MP-Perception Experiment,xx04m20,
384,vgpdm_dyn(30)-lvm(5)_final(0).mov,True,left,2,training(26).mov,0,65,65,50,,,,,,,,08:40:46:813,08:40:47:541,08:40:50:543,left,08:40:50:894,2018_May_30_0802,59.9419238601,MP-Perception Experiment,xx04m20,
385,vgpdm_dyn(10)-lvm(10)_final(8).mov,False,left,2,training(5).mov,0,66,66,42,,,,,,,,08:40:51:686,08:40:52:412,08:40:55:398,right,08:40:55:966,2018_May_30_0802,59.9419238601,MP-Perception Experiment,xx04m20,
386,training(34).mov,False,right,2,vcgpdm_dyn(30)-lvm(20)_final(4).mov,0,67,67,16,,,,,,,,08:40:56:753,08:40:57:467,08:41:00:469,right,08:41:00:819,2018_May_30_0802,59.9419238601,MP-Perception Experiment,xx04m20,
387,tmp_numprim(8)_final(1).mov,True,left,2,training(33).mov,0,68,68,21,,,,,,,,08:41:01:591,08:41:02:321,08:41:05:323,left,08:41:05:673,2018_May_30_0802,59.9419238601,MP-Perception Experiment,xx04m20,
388,vcgpdm_dyn(20)-lvm(25)_final(9).mov,False,left,2,training(32).mov,0,69,69,113,,,,,,,,08:41:06:447,08:41:07:174,08:41:10:178,left,08:41:10:528,2018_May_30_0802,59.9419238601,MP-Perception Experiment,xx04m20,
389,training(10).mov,True,right,2,vcgpdm_dyn(30)-lvm(25)_final(8).mov,0,70,70,136,,,,,,,,08:41:11:313,08:41:12:029,08:41:15:030,right,08:41:15:380,2018_May_30_0802,59.9419238601,MP-Perception Experiment,xx04m20,
390,vcgpdm_dyn(30)-lvm(15)_final(1).mov,True,left,2,training(34).mov,0,71,71,62,,,,,,,,08:41:16:162,08:41:16:881,08:41:19:884,left,08:41:20:201,2018_May_30_0802,59.9419238601,MP-Perception Experiment,xx04m20,
391,training(28).mov,True,right,2,vgpdm_dyn(30)-lvm(30)_final(3).mov,0,72,72,8,,,,,,,,08:41:20:983,08:41:21:702,08:41:24:704,right,08:41:25:205,2018_May_30_0802,59.9419238601,MP-Perception Experiment,xx04m20,
392,vgpdm_dyn(30)-lvm(20)_final(0).mov,True,left,2,training(25).mov,0,73,73,5,,,,,,,,08:41:25:972,08:41:26:707,08:41:29:694,right,08:41:30:179,2018_May_30_0802,59.9419238601,MP-Perception Experiment,xx04m20,
393,training(17).mov,True,right,2,vgpdm_dyn(15)-lvm(25)_final(4).mov,0,74,74,44,,,,,,,,08:41:30:966,08:41:31:679,08:41:34:699,right,08:41:35:366,2018_May_30_0802,59.9419238601,MP-Perception Experiment,xx04m20,
394,vgpdm_dyn(10)-lvm(30)_final(7).mov,False,left,2,training(17).mov,0,75,75,74,,,,,,,,08:41:36:588,08:41:37:101,08:41:39:870,left,08:41:40:353,2018_May_30_0802,59.9419238601,MP-Perception Experiment,xx04m20,
395,training(11).mov,False,right,2,vgpdm_dyn(20)-lvm(15)_final(7).mov,0,76,76,97,,,,,,,,08:41:41:123,08:41:41:871,08:41:44:858,left,08:41:45:392,2018_May_30_0802,59.9419238601,MP-Perception Experiment,xx04m20,
396,training(31).mov,True,right,2,vgpdm_dyn(30)-lvm(30)_final(7).mov,0,77,77,143,,,,,,,,08:41:46:175,08:41:46:893,08:41:49:895,left,08:41:50:813,2018_May_30_0802,59.9419238601,MP-Perception Experiment,xx04m20,
397,dmp_npsi(15)_final(6).mov,True,left,2,training(30).mov,0,78,78,22,,,,,,,,08:41:51:605,08:41:52:314,08:41:55:316,left,08:41:56:000,2018_May_30_0802,59.9419238601,MP-Perception Experiment,xx04m20,
398,training(10).mov,False,right,2,vgpdm_dyn(35)-lvm(25)_final(6).mov,0,79,79,31,,,,,,,,08:41:56:768,08:41:57:501,08:42:00:504,left,08:42:01:071,2018_May_30_0802,59.9419238601,MP-Perception Experiment,xx04m20,
399,training(6).mov,False,right,2,vcgpdm_dyn(15)-lvm(25)_final(2).mov,0,80,80,151,,,,,,,,08:42:01:853,08:42:02:573,08:42:05:574,right,08:42:06:091,2018_May_30_0802,59.9419238601,MP-Perception Experiment,xx04m20,
400,training(25).mov,False,right,2,vcgpdm_dyn(5)-lvm(15)_final(0).mov,0,81,81,85,,,,,,,,08:42:06:897,08:42:07:592,08:42:10:595,right,08:42:10:945,2018_May_30_0802,59.9419238601,MP-Perception Experiment,xx04m20,
401,vcgpdm_dyn(20)-lvm(20)_final(6).mov,False,left,2,training(17).mov,0,82,82,9,,,,,,,,08:42:11:729,08:42:12:446,08:42:15:450,left,08:42:16:151,2018_May_30_0802,59.9419238601,MP-Perception Experiment,xx04m20,
402,vgpdm_dyn(25)-lvm(5)_final(3).mov,False,left,2,training(29).mov,0,83,83,15,,,,,,,,08:42:16:936,08:42:17:652,08:42:20:655,left,08:42:23:024,2018_May_30_0802,59.9419238601,MP-Perception Experiment,xx04m20,
403,vcgpdm_dyn(35)-lvm(20)_final(8).mov,False,left,2,training(0).mov,0,84,84,125,,,,,,,,08:42:23:823,08:42:24:525,08:42:27:544,right,08:42:28:045,2018_May_30_0802,59.9419238601,MP-Perception Experiment,xx04m20,
404,training(17).mov,True,right,2,vcgpdm_dyn(35)-lvm(20)_final(8).mov,0,85,85,69,,,,,,,,08:42:28:824,08:42:29:546,08:42:32:565,left,08:42:33:032,2018_May_30_0802,59.9419238601,MP-Perception Experiment,xx04m20,
405,vcgpdm_dyn(35)-lvm(5)_final(2).mov,False,left,2,training(41).mov,0,86,86,51,,,,,,,,08:42:33:821,08:42:34:533,08:42:37:554,left,08:42:38:021,2018_May_30_0802,59.9419238601,MP-Perception Experiment,xx04m20,
406,training(20).mov,True,right,2,vgpdm_dyn(20)-lvm(25)_final(7).mov,0,87,87,86,,,,,,,,08:42:38:830,08:42:39:522,08:42:42:524,right,08:42:42:908,2018_May_30_0802,59.9419238601,MP-Perception Experiment,xx04m20,
407,training(39).mov,True,right,2,vcgpdm_dyn(10)-lvm(10)_final(7).mov,0,88,88,142,,,,,,,,08:42:43:709,08:42:44:409,08:42:47:411,left,08:42:47:895,2018_May_30_0802,59.9419238601,MP-Perception Experiment,xx04m20,
408,vcgpdm_dyn(25)-lvm(35)_final(0).mov,True,left,2,training(26).mov,0,89,89,156,,,,,,,,08:42:48:672,08:42:49:396,08:42:52:399,left,08:42:52:749,2018_May_30_0802,59.9419238601,MP-Perception Experiment,xx04m20,
409,vgpdm_dyn(35)-lvm(5)_final(5).mov,True,left,2,training(12).mov,0,90,90,112,,,,,,,,08:42:53:542,08:42:54:266,08:42:57:252,left,08:42:57:535,2018_May_30_0802,59.9419238601,MP-Perception Experiment,xx04m20,
410,training(10).mov,False,right,2,vcgpdm_dyn(35)-lvm(5)_final(1).mov,0,91,91,83,,,,,,,,08:42:58:325,08:42:59:037,08:43:02:039,left,08:43:02:840,2018_May_30_0802,59.9419238601,MP-Perception Experiment,xx04m20,
411,training(41).mov,False,right,2,vcgpdm_dyn(20)-lvm(15)_final(5).mov,0,92,92,149,,,,,,,,08:43:03:615,08:43:04:341,08:43:07:328,left,08:43:07:829,2018_May_30_0802,59.9419238601,MP-Perception Experiment,xx04m20,
412,vgpdm_dyn(5)-lvm(15)_final(1).mov,True,left,2,training(41).mov,0,93,93,38,,,,,,,,08:43:08:618,08:43:09:347,08:43:12:350,left,08:43:12:767,2018_May_30_0802,59.9419238601,MP-Perception Experiment,xx04m20,
413,vcgpdm_dyn(10)-lvm(10)_final(7).mov,False,left,2,training(10).mov,0,94,94,17,,,,,,,,08:43:13:554,08:43:14:268,08:43:17:271,left,08:43:17:654,2018_May_30_0802,59.9419238601,MP-Perception Experiment,xx04m20,
414,training(27).mov,True,right,2,vcgpdm_dyn(25)-lvm(25)_final(8).mov,0,95,95,101,,,,,,,,08:43:18:426,08:43:19:156,08:43:22:158,left,08:43:22:809,2018_May_30_0802,59.9419238601,MP-Perception Experiment,xx04m20,
415,training(18).mov,False,right,2,map_cgpdm_final(6).mov,0,96,96,80,,,,,,,,08:43:23:594,08:43:24:310,08:43:27:329,right,08:43:27:779,2018_May_30_0802,59.9419238601,MP-Perception Experiment,xx04m20,
416,vcgpdm_dyn(15)-lvm(5)_final(8).mov,False,left,2,training(9).mov,0,97,97,111,,,,,,,,08:43:28:555,08:43:29:281,08:43:32:284,left,08:43:32:734,2018_May_30_0802,59.9419238601,MP-Perception Experiment,xx04m20,
417,training(32).mov,False,right,2,vcgpdm_dyn(20)-lvm(35)_final(6).mov,0,98,98,95,,,,,,,,08:43:33:521,08:43:34:236,08:43:37:238,left,08:43:37:722,2018_May_30_0802,59.9419238601,MP-Perception Experiment,xx04m20,
418,vcgpdm_dyn(10)-lvm(35)_final(4).mov,True,left,2,training(22).mov,0,99,99,46,,,,,,,,08:43:38:501,08:43:39:223,08:43:42:242,right,08:43:42:676,2018_May_30_0802,59.9419238601,MP-Perception Experiment,xx04m20,
419,training(40).mov,False,right,2,vgpdm_dyn(30)-lvm(10)_final(6).mov,0,100,100,121,,,,,,,,08:43:43:457,08:43:44:192,08:43:47:179,right,08:43:47:596,2018_May_30_0802,59.9419238601,MP-Perception Experiment,xx04m20,
420,dmp_npsi(20)_final(9).mov,True,left,2,training(31).mov,0,101,101,20,,,,,,,,08:43:48:374,08:43:49:113,08:43:52:099,left,08:43:52:433,2018_May_30_0802,59.9419238601,MP-Perception Experiment,xx04m20,
421,training(39).mov,False,right,2,vgpdm_dyn(25)-lvm(30)_final(8).mov,0,102,102,6,,,,,,,,08:43:53:228,08:43:53:934,08:43:56:938,right,08:43:57:389,2018_May_30_0802,59.9419238601,MP-Perception Experiment,xx04m20,
422,vcgpdm_dyn(5)-lvm(30)_final(2)_bad.mov,False,left,2,training(18).mov,0,103,103,158,,,,,,,,08:43:58:178,08:43:58:890,08:44:01:892,left,08:44:02:259,2018_May_30_0802,59.9419238601,MP-Perception Experiment,xx04m20,
423,training(1).mov,True,right,2,vcgpdm_dyn(10)-lvm(10)_final(1).mov,0,104,104,65,,,,,,,,08:44:03:042,08:44:03:760,08:44:06:764,left,08:44:07:198,2018_May_30_0802,59.9419238601,MP-Perception Experiment,xx04m20,
424,training(12).mov,True,right,2,vgpdm_dyn(35)-lvm(10)_final(4).mov,0,105,105,25,,,,,,,,08:44:07:974,08:44:08:699,08:44:11:701,left,08:44:12:185,2018_May_30_0802,59.9419238601,MP-Perception Experiment,xx04m20,
425,vcgpdm_dyn(20)-lvm(20)_final(1).mov,False,left,2,training(40).mov,0,106,106,23,,,,,,,,08:44:12:967,08:44:13:686,08:44:16:688,left,08:44:17:239,2018_May_30_0802,59.9419238601,MP-Perception Experiment,xx04m20,
426,vcgpdm_dyn(25)-lvm(25)_final(2).mov,True,left,2,training(40).mov,0,107,107,32,,,,,,,,08:44:18:015,08:44:18:740,08:44:21:760,right,08:44:22:311,2018_May_30_0802,59.9419238601,MP-Perception Experiment,xx04m20,
427,vgpdm_dyn(20)-lvm(15)_final(2).mov,True,left,2,training(8).mov,0,108,108,104,,,,,,,,08:44:23:073,08:44:23:828,08:44:26:814,right,08:44:27:181,2018_May_30_0802,59.9419238601,MP-Perception Experiment,xx04m20,
428,vcgpdm_dyn(10)-lvm(5)_final(9).mov,True,left,2,training(31).mov,0,109,109,138,,,,,,,,08:44:27:963,08:44:28:682,08:44:31:685,left,08:44:32:252,2018_May_30_0802,59.9419238601,MP-Perception Experiment,xx04m20,
429,training(35).mov,True,right,2,vcgpdm_dyn(35)-lvm(35)_final(2)_bad.mov,0,110,110,147,,,,,,,,08:44:33:040,08:44:33:753,08:44:36:754,right,08:44:37:505,2018_May_30_0802,59.9419238601,MP-Perception Experiment,xx04m20,
430,vcgpdm_dyn(15)-lvm(10)_final(7).mov,False,left,2,training(41).mov,0,111,111,150,,,,,,,,08:44:38:291,08:44:39:023,08:44:42:009,left,08:44:42:826,2018_May_30_0802,59.9419238601,MP-Perception Experiment,xx04m20,
431,training(28).mov,True,right,2,vcgpdm_dyn(35)-lvm(30)_final(6).mov,0,112,112,34,,,,,,,,08:44:43:612,08:44:44:328,08:44:47:330,right,08:44:47:882,2018_May_30_0802,59.9419238601,MP-Perception Experiment,xx04m20,
432,vgpdm_dyn(5)-lvm(20)_final(9).mov,True,left,2,training(23).mov,0,113,113,132,,,,,,,,08:44:48:667,08:44:49:383,08:44:52:386,left,08:44:52:770,2018_May_30_0802,59.9419238601,MP-Perception Experiment,xx04m20,
433,training(20).mov,False,right,2,vcgpdm_dyn(5)-lvm(10)_final(7).mov,0,114,114,7,,,,,,,,08:44:53:562,08:44:54:287,08:44:57:274,right,08:44:58:025,2018_May_30_0802,59.9419238601,MP-Perception Experiment,xx04m20,
434,vgpdm_dyn(5)-lvm(20)_final(1).mov,True,left,2,training(27).mov,0,115,115,116,,,,,,,,08:44:58:806,08:44:59:526,08:45:02:529,left,08:45:02:962,2018_May_30_0802,59.9419238601,MP-Perception Experiment,xx04m20,
435,training(19).mov,False,right,2,vcgpdm_dyn(15)-lvm(30)_final(8).mov,0,116,116,146,,,,,,,,08:45:03:750,08:45:04:463,08:45:07:466,left,08:45:07:883,2018_May_30_0802,59.9419238601,MP-Perception Experiment,xx04m20,
436,vcgpdm_dyn(15)-lvm(35)_final(9).mov,True,left,2,training(32).mov,0,117,117,140,,,,,,,,08:45:08:694,08:45:09:401,08:45:12:403,right,08:45:12:887,2018_May_30_0802,59.9419238601,MP-Perception Experiment,xx04m20,
437,vcgpdm_dyn(5)-lvm(5)_final(5).mov,True,left,2,training(34).mov,0,118,118,107,,,,,,,,08:45:13:677,08:45:14:389,08:45:17:391,left,08:45:17:708,2018_May_30_0802,59.9419238601,MP-Perception Experiment,xx04m20,
438,vgpdm_dyn(20)-lvm(30)_final(0).mov,True,left,2,training(17).mov,0,119,119,110,,,,,,,,08:45:18:502,08:45:19:209,08:45:22:212,left,08:45:22:646,2018_May_30_0802,59.9419238601,MP-Perception Experiment,xx04m20,
439,training(4).mov,True,right,2,vcgpdm_dyn(35)-lvm(10)_final(6).mov,0,120,120,57,,,,,,,,08:45:23:432,08:45:24:162,08:45:27:147,right,08:45:27:515,2018_May_30_0802,59.9419238601,MP-Perception Experiment,xx04m20,
440,training(23).mov,True,right,2,vgpdm_dyn(15)-lvm(15)_final(5).mov,0,121,121,61,,,,,,,,08:45:28:304,08:45:29:016,08:45:32:036,right,08:45:32:403,2018_May_30_0802,59.9419238601,MP-Perception Experiment,xx04m20,
441,dmp_npsi(25)_final(1).mov,False,left,2,training(14).mov,0,122,122,30,,,,,,,,08:45:33:223,08:45:33:904,08:45:36:891,left,08:45:37:225,2018_May_30_0802,59.9419238601,MP-Perception Experiment,xx04m20,
442,training(36).mov,True,right,2,dmp_npsi(15)_final(4).mov,0,123,123,94,,,,,,,,08:45:38:013,08:45:38:726,08:45:41:729,right,08:45:42:162,2018_May_30_0802,59.9419238601,MP-Perception Experiment,xx04m20,
443,training(4).mov,True,right,2,vcgpdm_dyn(35)-lvm(15)_final(7)_out_of_screen.mov,0,124,124,124,,,,,,,,08:45:42:946,08:45:43:664,08:45:46:666,right,08:45:47:100,2018_May_30_0802,59.9419238601,MP-Perception Experiment,xx04m20,
444,training(15).mov,False,right,2,map_cgpdm_final(7).mov,0,125,125,102,,,,,,,,08:45:47:883,08:45:48:601,08:45:51:604,left,08:45:52:055,2018_May_30_0802,59.9419238601,MP-Perception Experiment,xx04m20,
445,vcgpdm_dyn(25)-lvm(30)_final(7).mov,False,left,2,training(7).mov,0,126,126,89,,,,,,,,08:45:52:828,08:45:53:556,08:45:56:558,right,08:45:56:909,2018_May_30_0802,59.9419238601,MP-Perception Experiment,xx04m20,
446,training(8).mov,False,right,2,vgpdm_dyn(25)-lvm(5)_final(7).mov,0,127,127,19,,,,,,,,08:45:57:700,08:45:58:410,08:46:01:412,right,08:46:02:063,2018_May_30_0802,59.9419238601,MP-Perception Experiment,xx04m20,
447,vgpdm_dyn(15)-lvm(30)_final(0).mov,False,left,2,training(5).mov,0,128,128,88,,,,,,,,08:46:02:855,08:46:03:564,08:46:06:567,left,08:46:06:901,2018_May_30_0802,59.9419238601,MP-Perception Experiment,xx04m20,
448,vgpdm_dyn(5)-lvm(5)_final(7)_out_of_screen.mov,True,left,2,training(15).mov,0,129,129,128,,,,,,,,08:46:07:681,08:46:08:402,08:46:11:404,left,08:46:11:772,2018_May_30_0802,59.9419238601,MP-Perception Experiment,xx04m20,
449,training(9).mov,False,right,2,vcgpdm_dyn(25)-lvm(20)_final(3).mov,0,130,130,52,,,,,,,,08:46:12:548,08:46:13:273,08:46:16:273,left,08:46:16:658,2018_May_30_0802,59.9419238601,MP-Perception Experiment,xx04m20,
450,training(19).mov,False,right,2,vcgpdm_dyn(5)-lvm(5)_final(3).mov,0,131,131,45,,,,,,,,08:46:17:446,08:46:18:175,08:46:21:161,right,08:46:21:528,2018_May_30_0802,59.9419238601,MP-Perception Experiment,xx04m20,
451,tmp_numprim(4)_final(1).mov,False,left,2,training(11).mov,0,132,132,77,,,,,,,,08:46:22:302,08:46:23:029,08:46:26:032,left,08:46:26:316,2018_May_30_0802,59.9419238601,MP-Perception Experiment,xx04m20,
452,vgpdm_dyn(15)-lvm(5)_final(3).mov,True,left,2,training(2).mov,0,133,133,67,,,,,,,,08:46:27:087,08:46:27:834,08:46:30:821,left,08:46:31:155,2018_May_30_0802,59.9419238601,MP-Perception Experiment,xx04m20,
453,training(26).mov,False,right,2,tmp_numprim(7)_final(2).mov,0,134,134,152,,,,,,,,08:46:31:922,08:46:32:656,08:46:35:675,left,08:46:36:343,2018_May_30_0802,59.9419238601,MP-Perception Experiment,xx04m20,
454,training(13).mov,False,right,2,map_cgpdm_final(8).mov,0,135,135,141,,,,,,,,08:46:37:128,08:46:37:860,08:46:40:863,right,08:46:41:364,2018_May_30_0802,59.9419238601,MP-Perception Experiment,xx04m20,
455,training(19).mov,True,right,2,tmp_numprim(10)_final(1).mov,0,136,136,43,,,,,,,,08:46:42:149,08:46:42:865,08:46:45:885,right,08:46:46:335,2018_May_30_0802,59.9419238601,MP-Perception Experiment,xx04m20,
456,dmp_npsi(15)_final(4).mov,False,left,2,training(8).mov,0,137,137,70,,,,,,,,08:46:47:107,08:46:47:853,08:46:50:839,left,08:46:51:122,2018_May_30_0802,59.9419238601,MP-Perception Experiment,xx04m20,
457,training(18).mov,True,right,2,tmp_numprim(10)_final(4).mov,0,138,138,56,,,,,,,,08:46:51:899,08:46:52:623,08:46:55:642,left,08:46:55:993,2018_May_30_0802,59.9419238601,MP-Perception Experiment,xx04m20,
458,vgpdm_dyn(20)-lvm(25)_final(8).mov,True,left,2,training(19).mov,0,139,139,29,,,,,,,,08:46:56:790,08:46:57:494,08:47:00:497,left,08:47:00:814,2018_May_30_0802,59.9419238601,MP-Perception Experiment,xx04m20,
459,vcgpdm_dyn(15)-lvm(10)_final(3).mov,False,left,2,training(20).mov,0,140,140,90,,,,,,,,08:47:01:600,08:47:02:315,08:47:05:316,left,08:47:05:650,2018_May_30_0802,59.9419238601,MP-Perception Experiment,xx04m20,
460,training(22).mov,False,right,2,dmp_npsi(35)_final(5).mov,0,141,141,60,,,,,,,,08:47:06:441,08:47:07:151,08:47:10:153,left,08:47:10:520,2018_May_30_0802,59.9419238601,MP-Perception Experiment,xx04m20,
461,training(37).mov,True,right,2,tmp_numprim(3)_final(5).mov,0,142,142,92,,,,,,,,08:47:11:324,08:47:12:038,08:47:15:024,right,08:47:15:424,2018_May_30_0802,59.9419238601,MP-Perception Experiment,xx04m20,
462,map_cgpdm_final(2).mov,True,left,2,training(7).mov,0,143,143,24,,,,,,,,08:47:16:214,08:47:16:928,08:47:19:914,left,08:47:20:264,2018_May_30_0802,59.9419238601,MP-Perception Experiment,xx04m20,
463,training(39).mov,True,right,2,vcgpdm_dyn(30)-lvm(5)_final(8).mov,0,144,144,99,,,,,,,,08:47:21:057,08:47:21:782,08:47:24:785,right,08:47:25:219,2018_May_30_0802,59.9419238601,MP-Perception Experiment,xx04m20,
464,training(28).mov,True,right,2,vgpdm_dyn(20)-lvm(20)_final(4).mov,0,145,145,87,,,,,,,,08:47:25:994,08:47:26:719,08:47:29:722,left,08:47:30:106,2018_May_30_0802,59.9419238601,MP-Perception Experiment,xx04m20,
465,vcgpdm_dyn(25)-lvm(35)_final(1).mov,False,left,2,training(1).mov,0,146,146,117,,,,,,,,08:47:30:895,08:47:31:607,08:47:34:627,left,08:47:35:144,2018_May_30_0802,59.9419238601,MP-Perception Experiment,xx04m20,
466,training(25).mov,True,right,2,map_gpdm_final(6).mov,0,147,147,73,,,,,,,,08:47:36:012,08:47:36:645,08:47:39:648,right,08:47:40:181,2018_May_30_0802,59.9419238601,MP-Perception Experiment,xx04m20,
467,vcgpdm_dyn(20)-lvm(5)_final(0).mov,False,left,2,training(4).mov,0,148,148,71,,,,,,,,08:47:40:966,08:47:41:682,08:47:44:685,left,08:47:45:119,2018_May_30_0802,59.9419238601,MP-Perception Experiment,xx04m20,
468,vcgpdm_dyn(10)-lvm(10)_final(9).mov,True,left,2,training(12).mov,0,149,149,49,,,,,,,,08:47:45:919,08:47:46:620,08:47:49:622,right,08:47:50:056,2018_May_30_0802,59.9419238601,MP-Perception Experiment,xx04m20,
469,vgpdm_dyn(25)-lvm(30)_final(2).mov,True,left,2,training(30).mov,0,150,150,64,,,,,,,,08:47:50:856,08:47:51:558,08:47:54:559,left,08:47:54:893,2018_May_30_0802,59.9419238601,MP-Perception Experiment,xx04m20,
470,training(28).mov,False,right,2,vcgpdm_dyn(35)-lvm(30)_final(7).mov,0,151,151,40,,,,,,,,08:47:55:667,08:47:56:394,08:47:59:396,right,08:47:59:913,2018_May_30_0802,59.9419238601,MP-Perception Experiment,xx04m20,
471,tmp_numprim(6)_final(6).mov,False,left,2,training(2).mov,0,152,152,153,,,,,,,,08:48:00:717,08:48:01:414,08:48:04:417,left,08:48:04:767,2018_May_30_0802,59.9419238601,MP-Perception Experiment,xx04m20,
472,vcgpdm_dyn(30)-lvm(15)_final(4).mov,False,left,2,training(31).mov,0,153,153,4,,,,,,,,08:48:05:538,08:48:06:268,08:48:09:257,left,08:48:09:824,2018_May_30_0802,59.9419238601,MP-Perception Experiment,xx04m20,
473,training(22).mov,False,right,2,tmp_numprim(9)_final(6).mov,0,154,154,100,,,,,,,,08:48:10:608,08:48:11:325,08:48:14:344,right,08:48:14:795,2018_May_30_0802,59.9419238601,MP-Perception Experiment,xx04m20,
474,training(8).mov,False,right,2,vcgpdm_dyn(25)-lvm(5)_final(0).mov,0,155,155,122,,,,,,,,08:48:15:580,08:48:16:296,08:48:19:298,left,08:48:19:732,2018_May_30_0802,59.9419238601,MP-Perception Experiment,xx04m20,
475,training(2).mov,True,right,2,vgpdm_dyn(10)-lvm(20)_final(7).mov,0,156,156,0,,,,,,,,08:48:20:505,08:48:21:233,08:48:24:236,right,08:48:24:703,2018_May_30_0802,59.9419238601,MP-Perception Experiment,xx04m20,
