trial_number,right,flipped,correct,block,left,trials.thisRepN,trials.thisTrialN,trials.thisN,trials.thisIndex,flipwelcome.keys,flipwelcome.corr,flipwelcome.rt,flippreparations.keys,flippreparations.rt,flipInstructions.keys,flipInstructions.rt,time_at_fixation_cross_onset,time_at_videoonset,time_at_videoend,participant_key_response,time_at_key_response,key_resp_4.keys,date,frameRate,expName,participant,
,,,,,,,,,,space,0,72.1798674903,,,,,,,,,,,2018_May_30_1329,59.9340977108,MP-Perception Experiment,xx05w23re,
,,,,,,,,,,,,,space,8.99113771063,,,,,,,,,2018_May_30_1329,59.9340977108,MP-Perception Experiment,xx05w23re,
,,,,,,,,,,,,,,,space,7.10647547059,,,,,,,2018_May_30_1329,59.9340977108,MP-Perception Experiment,xx05w23re,
1,training(24).mov,False,right,0,map_gpdm_final(0).mov,0,0,0,42,,,,,,,,13:31:05:825,13:31:05:825,13:31:08:650,right,13:31:09:902,,2018_May_30_1329,59.9340977108,MP-Perception Experiment,xx05w23re,
2,training(28).mov,False,right,0,vgpdm_dyn(10)-lvm(25)_final(0).mov,0,1,1,34,,,,,,,,13:31:10:672,13:31:11:419,13:31:14:405,left,13:31:15:004,,2018_May_30_1329,59.9340977108,MP-Perception Experiment,xx05w23re,
3,training(13).mov,False,right,0,vgpdm_dyn(5)-lvm(30)_final(2).mov,0,2,2,140,,,,,,,,13:31:15:780,13:31:16:505,13:31:19:508,right,13:31:21:110,,2018_May_30_1329,59.9340977108,MP-Perception Experiment,xx05w23re,
4,vgpdm_dyn(30)-lvm(5)_final(1).mov,False,left,0,training(0).mov,0,3,3,78,,,,,,,,13:31:21:891,13:31:22:611,13:31:25:613,right,13:31:26:180,,2018_May_30_1329,59.9340977108,MP-Perception Experiment,xx05w23re,
5,training(9).mov,False,right,0,vgpdm_dyn(20)-lvm(15)_final(0).mov,0,4,4,55,,,,,,,,13:31:26:960,13:31:27:683,13:31:30:669,right,13:31:31:070,,2018_May_30_1329,59.9340977108,MP-Perception Experiment,xx05w23re,
6,training(14).mov,False,right,0,vgpdm_dyn(35)-lvm(25)_final(7).mov,0,5,5,23,,,,,,,,13:31:31:855,13:31:32:571,13:31:35:574,right,13:31:35:991,,2018_May_30_1329,59.9340977108,MP-Perception Experiment,xx05w23re,
7,training(1).mov,True,right,0,vcgpdm_dyn(10)-lvm(25)_final(9).mov,0,6,6,14,,,,,,,,13:31:36:772,13:31:37:492,13:31:40:511,right,13:31:40:963,,2018_May_30_1329,59.9340977108,MP-Perception Experiment,xx05w23re,
8,vgpdm_dyn(10)-lvm(30)_final(6).mov,True,left,0,training(36).mov,0,7,7,68,,,,,,,,13:31:41:761,13:31:42:480,13:31:45:482,left,13:31:45:899,,2018_May_30_1329,59.9340977108,MP-Perception Experiment,xx05w23re,
9,training(36).mov,False,right,0,vcgpdm_dyn(15)-lvm(35)_final(7).mov,0,8,8,142,,,,,,,,13:31:46:726,13:31:47:400,13:31:50:420,right,13:31:50:853,,2018_May_30_1329,59.9340977108,MP-Perception Experiment,xx05w23re,
10,vcgpdm_dyn(30)-lvm(25)_final(1).mov,False,left,0,training(19).mov,0,9,9,56,,,,,,,,13:31:51:625,13:31:52:355,13:31:55:358,right,13:31:55:875,,2018_May_30_1329,59.9340977108,MP-Perception Experiment,xx05w23re,
11,training(1).mov,False,right,0,vgpdm_dyn(10)-lvm(20)_final(0).mov,0,10,10,39,,,,,,,,13:31:56:644,13:31:57:376,13:32:00:395,right,13:32:00:812,,2018_May_30_1329,59.9340977108,MP-Perception Experiment,xx05w23re,
12,vgpdm_dyn(35)-lvm(35)_final(9).mov,True,left,0,training(7).mov,0,11,11,143,,,,,,,,13:32:01:594,13:32:02:313,13:32:05:314,left,13:32:05:848,,2018_May_30_1329,59.9340977108,MP-Perception Experiment,xx05w23re,
13,dmp_npsi(45)_final(9).mov,False,left,0,training(29).mov,0,12,12,37,,,,,,,,13:32:06:637,13:32:07:349,13:32:10:352,left,13:32:10:602,,2018_May_30_1329,59.9340977108,MP-Perception Experiment,xx05w23re,
14,vcgpdm_dyn(5)-lvm(15)_final(6).mov,False,left,0,training(14).mov,0,13,13,29,,,,,,,,13:32:11:385,13:32:12:104,13:32:15:106,left,13:32:17:191,,2018_May_30_1329,59.9340977108,MP-Perception Experiment,xx05w23re,
15,training(2).mov,False,right,0,tmp_numprim(5)_final(2).mov,0,14,14,85,,,,,,,,13:32:17:969,13:32:18:709,13:32:21:697,right,13:32:22:431,,2018_May_30_1329,59.9340977108,MP-Perception Experiment,xx05w23re,
16,vcgpdm_dyn(15)-lvm(20)_final(9).mov,False,left,0,training(5).mov,0,15,15,130,,,,,,,,13:32:23:217,13:32:23:932,13:32:26:951,left,13:32:27:469,,2018_May_30_1329,59.9340977108,MP-Perception Experiment,xx05w23re,
17,vcgpdm_dyn(25)-lvm(20)_final(6).mov,False,left,0,training(26).mov,0,16,16,28,,,,,,,,13:32:28:239,13:32:28:970,13:32:31:973,right,13:32:32:473,,2018_May_30_1329,59.9340977108,MP-Perception Experiment,xx05w23re,
18,vcgpdm_dyn(30)-lvm(15)_final(5).mov,False,left,0,training(21).mov,0,17,17,33,,,,,,,,13:32:33:218,13:32:33:974,13:32:36:977,right,13:32:37:394,,2018_May_30_1329,59.9340977108,MP-Perception Experiment,xx05w23re,
19,training(0).mov,False,right,0,vgpdm_dyn(15)-lvm(25)_final(5).mov,0,18,18,46,,,,,,,,13:32:38:225,13:32:38:911,13:32:41:914,right,13:32:42:431,,2018_May_30_1329,59.9340977108,MP-Perception Experiment,xx05w23re,
20,vcgpdm_dyn(15)-lvm(25)_final(0).mov,False,left,0,training(26).mov,0,19,19,95,,,,,,,,13:32:43:194,13:32:43:932,13:32:46:936,left,13:32:47:403,,2018_May_30_1329,59.9340977108,MP-Perception Experiment,xx05w23re,
21,training(36).mov,True,right,0,vcgpdm_dyn(20)-lvm(35)_final(5).mov,0,20,20,54,,,,,,,,13:32:48:198,13:32:48:904,13:32:51:906,left,13:32:52:324,,2018_May_30_1329,59.9340977108,MP-Perception Experiment,xx05w23re,
22,training(33).mov,False,right,0,tmp_numprim(9)_final(8).mov,0,21,21,119,,,,,,,,13:32:53:101,13:32:53:824,13:32:56:825,right,13:32:57:326,,2018_May_30_1329,59.9340977108,MP-Perception Experiment,xx05w23re,
23,vgpdm_dyn(35)-lvm(5)_final(8).mov,True,left,0,training(22).mov,0,22,22,82,,,,,,,,13:32:58:123,13:32:58:827,13:33:01:829,left,13:33:02:581,,2018_May_30_1329,59.9340977108,MP-Perception Experiment,xx05w23re,
24,vcgpdm_dyn(30)-lvm(10)_final(7).mov,False,left,0,training(21).mov,0,23,23,100,,,,,,,,13:33:03:371,13:33:04:082,13:33:07:084,right,13:33:07:518,,2018_May_30_1329,59.9340977108,MP-Perception Experiment,xx05w23re,
25,vgpdm_dyn(20)-lvm(5)_final(6).mov,False,left,0,training(41).mov,0,24,24,127,,,,,,,,13:33:08:306,13:33:09:019,13:33:12:007,right,13:33:12:441,,2018_May_30_1329,59.9340977108,MP-Perception Experiment,xx05w23re,
26,vgpdm_dyn(20)-lvm(30)_final(3).mov,False,left,0,training(11).mov,0,25,25,115,,,,,,,,13:33:13:222,13:33:13:942,13:33:16:944,left,13:33:19:347,,2018_May_30_1329,59.9340977108,MP-Perception Experiment,xx05w23re,
27,training(40).mov,True,right,0,tmp_numprim(3)_final(4).mov,0,26,26,94,,,,,,,,13:33:20:132,13:33:20:848,13:33:23:851,right,13:33:24:418,,2018_May_30_1329,59.9340977108,MP-Perception Experiment,xx05w23re,
28,vgpdm_dyn(5)-lvm(30)_final(2).mov,True,left,0,training(41).mov,0,27,27,6,,,,,,,,13:33:25:200,13:33:25:919,13:33:28:921,left,13:33:29:389,,2018_May_30_1329,59.9340977108,MP-Perception Experiment,xx05w23re,
29,vcgpdm_dyn(20)-lvm(25)_final(3).mov,False,left,0,training(40).mov,0,28,28,1,,,,,,,,13:33:30:164,13:33:30:890,13:33:33:909,left,13:33:34:293,,2018_May_30_1329,59.9340977108,MP-Perception Experiment,xx05w23re,
30,vgpdm_dyn(20)-lvm(20)_final(6).mov,False,left,0,training(29).mov,0,29,29,113,,,,,,,,13:33:35:061,13:33:35:794,13:33:38:797,left,13:33:39:915,,2018_May_30_1329,59.9340977108,MP-Perception Experiment,xx05w23re,
31,vgpdm_dyn(30)-lvm(35)_final(0).mov,True,left,0,training(6).mov,0,30,30,118,,,,,,,,13:33:40:697,13:33:41:433,13:33:44:418,right,13:33:44:934,,2018_May_30_1329,59.9340977108,MP-Perception Experiment,xx05w23re,
32,training(29).mov,True,right,0,dmp_npsi(50)_final(8).mov,0,31,31,124,,,,,,,,13:33:45:717,13:33:46:451,13:33:49:437,right,13:33:49:988,,2018_May_30_1329,59.9340977108,MP-Perception Experiment,xx05w23re,
33,vgpdm_dyn(10)-lvm(10)_final(6).mov,True,left,0,training(34).mov,0,32,32,17,,,,,,,,13:33:50:778,13:33:51:489,13:33:54:491,right,13:33:54:943,,2018_May_30_1329,59.9340977108,MP-Perception Experiment,xx05w23re,
34,training(27).mov,False,right,0,vgpdm_dyn(35)-lvm(10)_final(8).mov,0,33,33,92,,,,,,,,13:33:55:739,13:33:56:444,13:33:59:431,left,13:33:59:882,,2018_May_30_1329,59.9340977108,MP-Perception Experiment,xx05w23re,
35,vgpdm_dyn(20)-lvm(25)_final(7).mov,False,left,0,training(35).mov,0,34,34,79,,,,,,,,13:34:00:663,13:34:01:400,13:34:04:385,left,13:34:04:986,,2018_May_30_1329,59.9340977108,MP-Perception Experiment,xx05w23re,
36,training(23).mov,True,right,0,vcgpdm_dyn(10)-lvm(10)_final(4).mov,0,35,35,45,,,,,,,,13:34:05:780,13:34:06:487,13:34:09:489,left,13:34:09:890,,2018_May_30_1329,59.9340977108,MP-Perception Experiment,xx05w23re,
37,training(27).mov,True,right,0,vcgpdm_dyn(30)-lvm(15)_final(3).mov,0,36,36,77,,,,,,,,13:34:10:664,13:34:11:391,13:34:14:395,right,13:34:16:229,,2018_May_30_1329,59.9340977108,MP-Perception Experiment,xx05w23re,
38,training(5).mov,False,right,0,vcgpdm_dyn(10)-lvm(25)_final(7).mov,0,37,37,49,,,,,,,,13:34:17:004,13:34:17:730,13:34:20:750,right,13:34:21:267,,2018_May_30_1329,59.9340977108,MP-Perception Experiment,xx05w23re,
39,training(35).mov,False,right,0,vcgpdm_dyn(20)-lvm(20)_final(5).mov,0,38,38,47,,,,,,,,13:34:22:054,13:34:22:768,13:34:25:771,right,13:34:26:254,,2018_May_30_1329,59.9340977108,MP-Perception Experiment,xx05w23re,
40,training(1).mov,True,right,0,dmp_npsi(45)_final(8).mov,0,39,39,32,,,,,,,,13:34:27:032,13:34:27:755,13:34:30:759,left,13:34:31:793,,2018_May_30_1329,59.9340977108,MP-Perception Experiment,xx05w23re,
41,tmp_numprim(2)_final(5).mov,True,left,0,training(6).mov,0,40,40,5,,,,,,,,13:34:32:562,13:34:33:294,13:34:36:295,left,13:34:36:762,,2018_May_30_1329,59.9340977108,MP-Perception Experiment,xx05w23re,
42,training(30).mov,False,right,0,vcgpdm_dyn(5)-lvm(15)_final(8).mov,0,41,41,120,,,,,,,,13:34:37:550,13:34:38:263,13:34:41:265,right,13:34:41:633,,2018_May_30_1329,59.9340977108,MP-Perception Experiment,xx05w23re,
43,vgpdm_dyn(30)-lvm(35)_final(7).mov,False,left,0,training(30).mov,0,42,42,88,,,,,,,,13:34:42:420,13:34:43:150,13:34:46:136,right,13:34:46:436,,2018_May_30_1329,59.9340977108,MP-Perception Experiment,xx05w23re,
44,vcgpdm_dyn(30)-lvm(25)_final(3).mov,True,left,0,training(17).mov,0,43,43,15,,,,,,,,13:34:47:224,13:34:47:938,13:34:50:926,left,13:34:51:376,,2018_May_30_1329,59.9340977108,MP-Perception Experiment,xx05w23re,
45,vgpdm_dyn(30)-lvm(10)_final(5).mov,False,left,0,training(13).mov,0,44,44,99,,,,,,,,13:34:52:164,13:34:52:878,13:34:55:880,left,13:34:57:782,,2018_May_30_1329,59.9340977108,MP-Perception Experiment,xx05w23re,
46,training(1).mov,False,right,0,tmp_numprim(9)_final(3).mov,0,45,45,30,,,,,,,,13:34:58:549,13:34:59:283,13:35:02:302,right,13:35:02:802,,2018_May_30_1329,59.9340977108,MP-Perception Experiment,xx05w23re,
47,vcgpdm_dyn(25)-lvm(25)_final(0).mov,False,left,0,training(12).mov,0,46,46,125,,,,,,,,13:35:03:590,13:35:04:303,13:35:07:307,right,13:35:07:807,,2018_May_30_1329,59.9340977108,MP-Perception Experiment,xx05w23re,
48,vcgpdm_dyn(20)-lvm(25)_final(3).mov,False,left,0,training(15).mov,0,47,47,101,,,,,,,,13:35:08:593,13:35:09:325,13:35:12:328,right,13:35:12:778,,2018_May_30_1329,59.9340977108,MP-Perception Experiment,xx05w23re,
49,vgpdm_dyn(25)-lvm(5)_final(4).mov,False,left,0,training(15).mov,0,48,48,97,,,,,,,,13:35:13:559,13:35:14:279,13:35:17:282,left,13:35:17:699,,2018_May_30_1329,59.9340977108,MP-Perception Experiment,xx05w23re,
50,training(39).mov,True,right,0,vcgpdm_dyn(5)-lvm(10)_final(0).mov,0,49,49,72,,,,,,,,13:35:18:475,13:35:19:200,13:35:22:220,right,13:35:22:687,,2018_May_30_1329,59.9340977108,MP-Perception Experiment,xx05w23re,
51,vcgpdm_dyn(30)-lvm(35)_final(9).mov,False,left,0,training(33).mov,0,50,50,132,,,,,,,,13:35:23:472,13:35:24:188,13:35:27:189,left,13:35:27:773,,2018_May_30_1329,59.9340977108,MP-Perception Experiment,xx05w23re,
52,vcgpdm_dyn(20)-lvm(10)_final(0).mov,False,left,0,training(11).mov,0,51,51,136,,,,,,,,13:35:28:595,13:35:29:274,13:35:32:276,right,13:35:32:627,,2018_May_30_1329,59.9340977108,MP-Perception Experiment,xx05w23re,
53,training(48).mov,True,right,0,vcgpdm_dyn(30)-lvm(5)_final(1).mov,0,52,52,123,,,,,,,,13:35:33:416,13:35:34:128,13:35:37:115,right,13:35:37:482,,2018_May_30_1329,59.9340977108,MP-Perception Experiment,xx05w23re,
54,training(39).mov,True,right,0,vgpdm_dyn(5)-lvm(10)_final(5).mov,0,53,53,48,,,,,,,,13:35:38:258,13:35:38:984,13:35:41:987,right,13:35:42:487,,2018_May_30_1329,59.9340977108,MP-Perception Experiment,xx05w23re,
55,training(14).mov,False,right,0,vcgpdm_dyn(10)-lvm(20)_final(8).mov,0,54,54,117,,,,,,,,13:35:43:275,13:35:43:989,13:35:47:008,right,13:35:47:408,,2018_May_30_1329,59.9340977108,MP-Perception Experiment,xx05w23re,
56,training(29).mov,True,right,0,vcgpdm_dyn(25)-lvm(5)_final(5).mov,0,55,55,153,,,,,,,,13:35:48:200,13:35:48:909,13:35:51:912,right,13:35:52:379,,2018_May_30_1329,59.9340977108,MP-Perception Experiment,xx05w23re,
57,training(3).mov,False,right,0,vgpdm_dyn(15)-lvm(15)_final(2).mov,0,56,56,112,,,,,,,,13:35:53:161,13:35:53:880,13:35:56:900,right,13:35:57:284,,2018_May_30_1329,59.9340977108,MP-Perception Experiment,xx05w23re,
58,training(36).mov,False,right,0,vgpdm_dyn(15)-lvm(25)_final(4).mov,0,57,57,134,,,,,,,,13:35:58:069,13:35:58:785,13:36:01:787,right,13:36:02:204,,2018_May_30_1329,59.9340977108,MP-Perception Experiment,xx05w23re,
59,vcgpdm_dyn(25)-lvm(25)_final(4).mov,False,left,0,training(48).mov,0,58,58,75,,,,,,,,13:36:02:984,13:36:03:705,13:36:06:725,right,13:36:07:192,,2018_May_30_1329,59.9340977108,MP-Perception Experiment,xx05w23re,
60,vgpdm_dyn(15)-lvm(30)_final(6).mov,False,left,0,training(25).mov,0,59,59,158,,,,,,,,13:36:07:964,13:36:08:693,13:36:11:695,left,13:36:12:112,,2018_May_30_1329,59.9340977108,MP-Perception Experiment,xx05w23re,
61,training(15).mov,False,right,0,vcgpdm_dyn(35)-lvm(35)_final(7)_bad.mov,0,60,60,18,,,,,,,,13:36:12:897,13:36:13:613,13:36:16:615,right,13:36:17:282,,2018_May_30_1329,59.9340977108,MP-Perception Experiment,xx05w23re,
62,tmp_numprim(3)_final(1).mov,True,left,0,training(33).mov,0,61,61,116,,,,,,,,13:36:18:058,13:36:18:800,13:36:21:786,left,13:36:22:386,,2018_May_30_1329,59.9340977108,MP-Perception Experiment,xx05w23re,
63,training(40).mov,True,right,0,vgpdm_dyn(15)-lvm(15)_final(1).mov,0,62,62,62,,,,,,,,13:36:23:169,13:36:23:888,13:36:26:890,right,13:36:28:291,,2018_May_30_1329,59.9340977108,MP-Perception Experiment,xx05w23re,
64,training(32).mov,True,right,0,vgpdm_dyn(10)-lvm(25)_final(3).mov,0,63,63,96,,,,,,,,13:36:29:066,13:36:29:794,13:36:32:781,right,13:36:34:282,,2018_May_30_1329,59.9340977108,MP-Perception Experiment,xx05w23re,
65,training(26).mov,False,right,0,vgpdm_dyn(25)-lvm(35)_final(7).mov,0,64,64,114,,,,,,,,13:36:35:069,13:36:35:783,13:36:38:786,right,13:36:39:203,,2018_May_30_1329,59.9340977108,MP-Perception Experiment,xx05w23re,
66,training(27).mov,True,right,0,vcgpdm_dyn(35)-lvm(10)_final(1).mov,0,65,65,8,,,,,,,,13:36:39:993,13:36:40:704,13:36:43:706,right,13:36:44:240,,2018_May_30_1329,59.9340977108,MP-Perception Experiment,xx05w23re,
67,training(29).mov,False,right,0,vgpdm_dyn(30)-lvm(30)_final(9).mov,0,66,66,2,,,,,,,,13:36:45:722,13:36:45:741,13:36:48:761,right,13:36:49:178,,2018_May_30_1329,59.9340977108,MP-Perception Experiment,xx05w23re,
68,vgpdm_dyn(10)-lvm(5)_final(4).mov,True,left,0,training(13).mov,0,67,67,139,,,,,,,,13:36:49:966,13:36:50:680,13:36:53:699,left,13:36:54:166,,2018_May_30_1329,59.9340977108,MP-Perception Experiment,xx05w23re,
69,vgpdm_dyn(20)-lvm(30)_final(8).mov,True,left,0,training(29).mov,0,68,68,10,,,,,,,,13:36:54:943,13:36:55:667,13:36:58:669,left,13:37:00:871,,2018_May_30_1329,59.9340977108,MP-Perception Experiment,xx05w23re,
70,vcgpdm_dyn(30)-lvm(35)_final(3).mov,False,left,0,training(39).mov,0,69,69,12,,,,,,,,13:37:01:651,13:37:02:373,13:37:05:373,right,13:37:06:040,,2018_May_30_1329,59.9340977108,MP-Perception Experiment,xx05w23re,
71,training(38).mov,True,right,0,vcgpdm_dyn(35)-lvm(30)_final(8).mov,0,70,70,64,,,,,,,,13:37:06:831,13:37:07:542,13:37:10:545,right,13:37:10:962,,2018_May_30_1329,59.9340977108,MP-Perception Experiment,xx05w23re,
72,training(2).mov,False,right,0,vcgpdm_dyn(15)-lvm(15)_final(3).mov,0,71,71,41,,,,,,,,13:37:11:743,13:37:12:463,13:37:15:466,right,13:37:15:916,,2018_May_30_1329,59.9340977108,MP-Perception Experiment,xx05w23re,
73,training(25).mov,False,right,0,tmp_numprim(8)_final(7).mov,0,72,72,80,,,,,,,,13:37:16:696,13:37:17:417,13:37:20:422,right,13:37:20:872,,2018_May_30_1329,59.9340977108,MP-Perception Experiment,xx05w23re,
74,vgpdm_dyn(35)-lvm(30)_final(1).mov,True,left,0,training(5).mov,0,73,73,109,,,,,,,,13:37:21:649,13:37:22:373,13:37:25:376,left,13:37:25:793,,2018_May_30_1329,59.9340977108,MP-Perception Experiment,xx05w23re,
75,training(2).mov,True,right,0,tmp_numprim(7)_final(1).mov,0,74,74,26,,,,,,,,13:37:26:598,13:37:27:295,13:37:30:297,left,13:37:30:747,,2018_May_30_1329,59.9340977108,MP-Perception Experiment,xx05w23re,
76,vcgpdm_dyn(15)-lvm(15)_final(2).mov,False,left,0,training(17).mov,0,75,75,89,,,,,,,,13:37:31:532,13:37:32:249,13:37:35:268,right,13:37:35:852,,2018_May_30_1329,59.9340977108,MP-Perception Experiment,xx05w23re,
77,training(28).mov,False,right,0,vgpdm_dyn(25)-lvm(30)_final(6).mov,0,76,76,151,,,,,,,,13:37:36:634,13:37:37:353,13:37:40:355,right,13:37:40:806,,2018_May_30_1329,59.9340977108,MP-Perception Experiment,xx05w23re,
78,tmp_numprim(6)_final(8).mov,True,left,0,training(9).mov,0,77,77,91,,,,,,,,13:37:41:589,13:37:42:308,13:37:45:310,left,13:37:46:028,,2018_May_30_1329,59.9340977108,MP-Perception Experiment,xx05w23re,
79,training(19).mov,True,right,0,dmp_npsi(40)_final(4).mov,0,78,78,105,,,,,,,,13:37:46:806,13:37:47:528,13:37:50:531,left,13:37:52:333,,2018_May_30_1329,59.9340977108,MP-Perception Experiment,xx05w23re,
80,training(6).mov,False,right,0,vcgpdm_dyn(15)-lvm(30)_final(5).mov,0,79,79,128,,,,,,,,13:37:53:117,13:37:53:834,13:37:56:834,right,13:37:57:101,,2018_May_30_1329,59.9340977108,MP-Perception Experiment,xx05w23re,
81,vcgpdm_dyn(15)-lvm(15)_final(4).mov,True,left,0,training(40).mov,0,80,80,149,,,,,,,,13:37:57:872,13:37:58:602,13:38:01:606,left,13:38:01:806,,2018_May_30_1329,59.9340977108,MP-Perception Experiment,xx05w23re,
82,vgpdm_dyn(10)-lvm(35)_final(3).mov,True,left,0,training(15).mov,0,81,81,21,,,,,,,,13:38:02:583,13:38:03:307,13:38:06:310,left,13:38:06:710,,2018_May_30_1329,59.9340977108,MP-Perception Experiment,xx05w23re,
83,vgpdm_dyn(30)-lvm(25)_final(8).mov,False,left,0,training(34).mov,0,82,82,35,,,,,,,,13:38:07:501,13:38:08:211,13:38:11:216,left,13:38:11:783,,2018_May_30_1329,59.9340977108,MP-Perception Experiment,xx05w23re,
84,training(48).mov,True,right,0,map_cgpdm_final(9).mov,0,83,83,155,,,,,,,,13:38:12:562,13:38:13:284,13:38:16:303,right,13:38:16:854,,2018_May_30_1329,59.9340977108,MP-Perception Experiment,xx05w23re,
85,dmp_npsi(30)_final(8).mov,True,left,0,training(4).mov,0,84,84,60,,,,,,,,13:38:17:638,13:38:18:355,13:38:21:358,left,13:38:21:792,,2018_May_30_1329,59.9340977108,MP-Perception Experiment,xx05w23re,
86,training(30).mov,False,right,0,vgpdm_dyn(30)-lvm(15)_final(2).mov,0,85,85,24,,,,,,,,13:38:22:606,13:38:23:293,13:38:26:296,right,13:38:26:746,,2018_May_30_1329,59.9340977108,MP-Perception Experiment,xx05w23re,
87,training(12).mov,True,right,0,vgpdm_dyn(30)-lvm(30)_final(1).mov,0,86,86,126,,,,,,,,13:38:27:527,13:38:28:247,13:38:31:266,left,13:38:32:751,,2018_May_30_1329,59.9340977108,MP-Perception Experiment,xx05w23re,
88,training(19).mov,False,right,0,dmp_npsi(40)_final(3).mov,0,87,87,7,,,,,,,,13:38:33:521,13:38:34:269,13:38:37:255,right,13:38:37:689,,2018_May_30_1329,59.9340977108,MP-Perception Experiment,xx05w23re,
89,vgpdm_dyn(25)-lvm(30)_final(8).mov,True,left,0,training(21).mov,0,88,88,86,,,,,,,,13:38:38:906,13:38:39:423,13:38:42:192,left,13:38:42:626,,2018_May_30_1329,59.9340977108,MP-Perception Experiment,xx05w23re,
90,dmp_npsi(15)_final(7).mov,False,left,0,training(2).mov,0,89,89,148,,,,,,,,13:38:43:435,13:38:44:127,13:38:47:128,left,13:38:47:529,,2018_May_30_1329,59.9340977108,MP-Perception Experiment,xx05w23re,
91,training(6).mov,False,right,0,vgpdm_dyn(35)-lvm(30)_final(2).mov,0,90,90,157,,,,,,,,13:38:48:320,13:38:49:029,13:38:52:033,right,13:38:52:266,,2018_May_30_1329,59.9340977108,MP-Perception Experiment,xx05w23re,
92,vgpdm_dyn(35)-lvm(25)_final(1).mov,False,left,0,training(0).mov,0,91,91,154,,,,,,,,13:38:53:050,13:38:53:768,13:38:56:770,right,13:38:57:838,,2018_May_30_1329,59.9340977108,MP-Perception Experiment,xx05w23re,
93,training(20).mov,True,right,0,tmp_numprim(3)_final(9).mov,0,92,92,103,,,,,,,,13:38:58:628,13:38:59:339,13:39:02:326,right,13:39:02:727,,2018_May_30_1329,59.9340977108,MP-Perception Experiment,xx05w23re,
94,training(1).mov,True,right,0,vcgpdm_dyn(10)-lvm(5)_final(0).mov,0,93,93,90,,,,,,,,13:39:03:516,13:39:04:228,13:39:07:230,right,13:39:07:748,,2018_May_30_1329,59.9340977108,MP-Perception Experiment,xx05w23re,
95,vcgpdm_dyn(20)-lvm(30)_final(6).mov,False,left,0,training(9).mov,0,94,94,104,,,,,,,,13:39:08:521,13:39:09:250,13:39:12:269,left,13:39:12:986,,2018_May_30_1329,59.9340977108,MP-Perception Experiment,xx05w23re,
96,training(0).mov,True,right,0,vgpdm_dyn(10)-lvm(25)_final(1).mov,0,95,95,11,,,,,,,,13:39:13:780,13:39:14:487,13:39:17:506,right,13:39:18:174,,2018_May_30_1329,59.9340977108,MP-Perception Experiment,xx05w23re,
97,vgpdm_dyn(10)-lvm(30)_final(3).mov,True,left,0,training(1).mov,0,96,96,84,,,,,,,,13:39:18:954,13:39:19:675,13:39:22:694,left,13:39:23:077,,2018_May_30_1329,59.9340977108,MP-Perception Experiment,xx05w23re,
98,training(33).mov,True,right,0,vcgpdm_dyn(25)-lvm(25)_final(1).mov,0,97,97,67,,,,,,,,13:39:23:869,13:39:24:579,13:39:27:582,right,13:39:28:850,,2018_May_30_1329,59.9340977108,MP-Perception Experiment,xx05w23re,
99,training(16).mov,False,right,0,vgpdm_dyn(35)-lvm(30)_final(2).mov,0,98,98,111,,,,,,,,13:39:29:628,13:39:30:368,13:39:33:353,left,13:39:34:071,,2018_May_30_1329,59.9340977108,MP-Perception Experiment,xx05w23re,
100,training(20).mov,True,right,0,vcgpdm_dyn(25)-lvm(20)_final(2).mov,0,99,99,71,,,,,,,,13:39:34:857,13:39:35:587,13:39:38:572,right,13:39:39:106,,2018_May_30_1329,59.9340977108,MP-Perception Experiment,xx05w23re,
101,training(40).mov,True,right,0,vgpdm_dyn(20)-lvm(15)_final(2).mov,0,100,100,152,,,,,,,,13:39:39:873,13:39:40:607,13:39:43:610,right,13:39:43:843,,2018_May_30_1329,59.9340977108,MP-Perception Experiment,xx05w23re,
102,vgpdm_dyn(30)-lvm(10)_final(4).mov,True,left,0,training(38).mov,0,101,101,27,,,,,,,,13:39:45:600,13:39:45:601,13:39:48:350,left,13:39:48:817,,2018_May_30_1329,59.9340977108,MP-Perception Experiment,xx05w23re,
103,training(11).mov,True,right,0,vgpdm_dyn(15)-lvm(5)_final(1).mov,0,102,102,135,,,,,,,,13:39:49:599,13:39:50:318,13:39:53:337,left,13:39:53:804,,2018_May_30_1329,59.9340977108,MP-Perception Experiment,xx05w23re,
104,vcgpdm_dyn(15)-lvm(30)_final(1).mov,False,left,0,training(41).mov,0,103,103,40,,,,,,,,13:39:54:602,13:39:55:305,13:39:58:308,left,13:39:58:725,,2018_May_30_1329,59.9340977108,MP-Perception Experiment,xx05w23re,
105,vgpdm_dyn(20)-lvm(35)_final(0).mov,False,left,0,training(18).mov,0,104,104,138,,,,,,,,13:39:59:515,13:40:00:226,13:40:03:230,right,13:40:03:646,,2018_May_30_1329,59.9340977108,MP-Perception Experiment,xx05w23re,
106,map_gpdm_final(4).mov,False,left,0,training(23).mov,0,105,105,141,,,,,,,,13:40:04:418,13:40:05:148,13:40:08:150,left,13:40:08:784,,2018_May_30_1329,59.9340977108,MP-Perception Experiment,xx05w23re,
107,vgpdm_dyn(10)-lvm(5)_final(1).mov,True,left,0,training(13).mov,0,106,106,83,,,,,,,,13:40:09:574,13:40:10:285,13:40:13:288,left,13:40:13:622,,2018_May_30_1329,59.9340977108,MP-Perception Experiment,xx05w23re,
108,vgpdm_dyn(5)-lvm(15)_final(2).mov,True,left,0,training(36).mov,0,107,107,146,,,,,,,,13:40:14:404,13:40:15:122,13:40:18:125,left,13:40:18:525,,2018_May_30_1329,59.9340977108,MP-Perception Experiment,xx05w23re,
109,training(26).mov,True,right,0,vcgpdm_dyn(5)-lvm(10)_final(1).mov,0,108,108,38,,,,,,,,13:40:19:317,13:40:20:027,13:40:23:030,right,13:40:23:931,,2018_May_30_1329,59.9340977108,MP-Perception Experiment,xx05w23re,
110,training(41).mov,True,right,0,vgpdm_dyn(15)-lvm(5)_final(4).mov,0,109,109,93,,,,,,,,13:40:24:711,13:40:25:447,13:40:28:433,left,13:40:28:950,,2018_May_30_1329,59.9340977108,MP-Perception Experiment,xx05w23re,
111,vgpdm_dyn(35)-lvm(35)_final(2).mov,True,left,0,training(18).mov,0,110,110,9,,,,,,,,13:40:29:736,13:40:30:451,13:40:33:453,left,13:40:34:587,,2018_May_30_1329,59.9340977108,MP-Perception Experiment,xx05w23re,
112,vcgpdm_dyn(20)-lvm(10)_final(1).mov,True,left,0,training(19).mov,0,111,111,31,,,,,,,,13:40:35:355,13:40:36:089,13:40:39:077,left,13:40:41:045,,2018_May_30_1329,59.9340977108,MP-Perception Experiment,xx05w23re,
113,dmp_npsi(50)_final(1).mov,False,left,0,training(19).mov,0,112,112,20,,,,,,,,13:40:41:815,13:40:42:546,13:40:45:566,right,13:40:46:500,,2018_May_30_1329,59.9340977108,MP-Perception Experiment,xx05w23re,
114,training(36).mov,False,right,0,vcgpdm_dyn(20)-lvm(10)_final(6).mov,0,113,113,156,,,,,,,,13:40:47:275,13:40:48:001,13:40:51:004,right,13:40:51:371,,2018_May_30_1329,59.9340977108,MP-Perception Experiment,xx05w23re,
115,vcgpdm_dyn(25)-lvm(20)_final(0).mov,False,left,0,training(0).mov,0,114,114,13,,,,,,,,13:40:52:151,13:40:52:871,13:40:55:875,right,13:40:57:260,,2018_May_30_1329,59.9340977108,MP-Perception Experiment,xx05w23re,
116,vcgpdm_dyn(35)-lvm(15)_final(7)_out_of_screen.mov,True,left,0,training(35).mov,0,115,115,110,,,,,,,,13:40:58:031,13:40:58:761,13:41:01:763,left,13:41:02:180,,2018_May_30_1329,59.9340977108,MP-Perception Experiment,xx05w23re,
117,vcgpdm_dyn(35)-lvm(25)_final(6).mov,False,left,0,training(31).mov,0,116,116,131,,,,,,,,13:41:02:955,13:41:03:681,13:41:06:684,left,13:41:07:084,,2018_May_30_1329,59.9340977108,MP-Perception Experiment,xx05w23re,
118,training(39).mov,True,right,0,vgpdm_dyn(30)-lvm(20)_final(5).mov,0,117,117,102,,,,,,,,13:41:07:856,13:41:08:585,13:41:11:589,left,13:41:11:956,,2018_May_30_1329,59.9340977108,MP-Perception Experiment,xx05w23re,
119,training(48).mov,True,right,0,vgpdm_dyn(25)-lvm(35)_final(0).mov,0,118,118,122,,,,,,,,13:41:12:733,13:41:13:457,13:41:16:457,right,13:41:16:874,,2018_May_30_1329,59.9340977108,MP-Perception Experiment,xx05w23re,
120,training(7).mov,False,right,0,dmp_npsi(50)_final(4).mov,0,119,119,106,,,,,,,,13:41:17:650,13:41:18:376,13:41:21:378,left,13:41:21:412,,2018_May_30_1329,59.9340977108,MP-Perception Experiment,xx05w23re,
121,vgpdm_dyn(30)-lvm(20)_final(7).mov,False,left,0,training(18).mov,0,120,120,121,,,,,,,,13:41:22:210,13:41:22:913,13:41:25:915,right,13:41:26:265,,2018_May_30_1329,59.9340977108,MP-Perception Experiment,xx05w23re,
122,vcgpdm_dyn(25)-lvm(10)_final(8).mov,False,left,0,training(25).mov,0,121,121,4,,,,,,,,13:41:27:035,13:41:27:767,13:41:30:755,right,13:41:31:172,,2018_May_30_1329,59.9340977108,MP-Perception Experiment,xx05w23re,
123,vcgpdm_dyn(15)-lvm(20)_final(4).mov,False,left,0,training(12).mov,0,122,122,51,,,,,,,,13:41:31:972,13:41:32:690,13:41:35:676,left,13:41:36:176,,2018_May_30_1329,59.9340977108,MP-Perception Experiment,xx05w23re,
124,training(36).mov,False,right,0,vgpdm_dyn(15)-lvm(10)_final(9)_out_of_screen.mov,0,123,123,16,,,,,,,,13:41:36:961,13:41:37:677,13:41:40:697,right,13:41:41:230,,2018_May_30_1329,59.9340977108,MP-Perception Experiment,xx05w23re,
125,training(35).mov,True,right,0,vcgpdm_dyn(35)-lvm(10)_final(6).mov,0,124,124,144,,,,,,,,13:41:42:006,13:41:42:731,13:41:45:734,left,13:41:47:887,,2018_May_30_1329,59.9340977108,MP-Perception Experiment,xx05w23re,
126,vcgpdm_dyn(15)-lvm(5)_final(5).mov,True,left,0,training(16).mov,0,125,125,73,,,,,,,,13:41:48:666,13:41:49:388,13:41:52:390,left,13:41:52:857,,2018_May_30_1329,59.9340977108,MP-Perception Experiment,xx05w23re,
127,training(17).mov,True,right,0,dmp_npsi(20)_final(0).mov,0,126,126,70,,,,,,,,13:41:53:643,13:41:54:358,13:41:57:361,right,13:41:57:795,,2018_May_30_1329,59.9340977108,MP-Perception Experiment,xx05w23re,
128,training(22).mov,True,right,0,vcgpdm_dyn(25)-lvm(35)_final(3).mov,0,127,127,53,,,,,,,,13:41:58:579,13:41:59:296,13:42:02:298,left,13:42:02:732,,2018_May_30_1329,59.9340977108,MP-Perception Experiment,xx05w23re,
129,training(3).mov,True,right,0,vgpdm_dyn(35)-lvm(35)_final(7).mov,0,128,128,66,,,,,,,,13:42:03:517,13:42:04:234,13:42:07:235,right,13:42:07:585,,2018_May_30_1329,59.9340977108,MP-Perception Experiment,xx05w23re,
130,vgpdm_dyn(25)-lvm(20)_final(0).mov,True,left,0,training(48).mov,0,129,129,108,,,,,,,,13:42:08:358,13:42:09:087,13:42:12:089,right,13:42:12:372,,2018_May_30_1329,59.9340977108,MP-Perception Experiment,xx05w23re,
131,training(32).mov,True,right,0,tmp_numprim(10)_final(3).mov,0,130,130,81,,,,,,,,13:42:13:156,13:42:13:874,13:42:16:878,left,13:42:16:928,,2018_May_30_1329,59.9340977108,MP-Perception Experiment,xx05w23re,
132,vgpdm_dyn(25)-lvm(20)_final(8).mov,True,left,0,training(40).mov,0,131,131,59,,,,,,,,13:42:17:710,13:42:18:429,13:42:21:448,left,13:42:21:916,,2018_May_30_1329,59.9340977108,MP-Perception Experiment,xx05w23re,
133,vgpdm_dyn(5)-lvm(10)_final(2).mov,False,left,0,training(1).mov,0,132,132,19,,,,,,,,13:42:22:734,13:42:23:417,13:42:26:420,left,13:42:26:803,,2018_May_30_1329,59.9340977108,MP-Perception Experiment,xx05w23re,
134,map_gpdm_final(7).mov,True,left,0,training(10).mov,0,133,133,69,,,,,,,,13:42:27:598,13:42:28:305,13:42:31:307,left,13:42:31:707,,2018_May_30_1329,59.9340977108,MP-Perception Experiment,xx05w23re,
135,vcgpdm_dyn(10)-lvm(35)_final(9).mov,True,left,0,training(25).mov,0,134,134,61,,,,,,,,13:42:32:484,13:42:33:225,13:42:36:211,left,13:42:36:845,,2018_May_30_1329,59.9340977108,MP-Perception Experiment,xx05w23re,
136,training(15).mov,True,right,0,vcgpdm_dyn(35)-lvm(25)_final(7).mov,0,135,135,76,,,,,,,,13:42:37:639,13:42:38:346,13:42:41:366,right,13:42:42:067,,2018_May_30_1329,59.9340977108,MP-Perception Experiment,xx05w23re,
137,vcgpdm_dyn(20)-lvm(20)_final(5).mov,False,left,0,training(0).mov,0,136,136,50,,,,,,,,13:42:42:868,13:42:43:568,13:42:46:587,right,13:42:47:054,,2018_May_30_1329,59.9340977108,MP-Perception Experiment,xx05w23re,
138,training(6).mov,False,right,0,vgpdm_dyn(5)-lvm(20)_final(6).mov,0,137,137,43,,,,,,,,13:42:47:864,13:42:48:555,13:42:51:558,right,13:42:52:276,,2018_May_30_1329,59.9340977108,MP-Perception Experiment,xx05w23re,
139,vcgpdm_dyn(20)-lvm(35)_final(3).mov,False,left,0,training(41).mov,0,138,138,129,,,,,,,,13:42:53:054,13:42:53:793,13:42:56:778,right,13:42:57:212,,2018_May_30_1329,59.9340977108,MP-Perception Experiment,xx05w23re,
140,training(18).mov,False,right,0,vcgpdm_dyn(20)-lvm(10)_final(7).mov,0,139,139,3,,,,,,,,13:42:58:002,13:42:58:713,13:43:01:715,right,13:43:02:182,,2018_May_30_1329,59.9340977108,MP-Perception Experiment,xx05w23re,
141,training(18).mov,False,right,0,vcgpdm_dyn(5)-lvm(25)_final(3).mov,0,140,140,63,,,,,,,,13:43:02:958,13:43:03:683,13:43:06:686,right,13:43:06:986,,2018_May_30_1329,59.9340977108,MP-Perception Experiment,xx05w23re,
142,vgpdm_dyn(30)-lvm(25)_final(9).mov,True,left,0,training(30).mov,0,141,141,147,,,,,,,,13:43:07:777,13:43:08:487,13:43:11:475,left,13:43:11:859,,2018_May_30_1329,59.9340977108,MP-Perception Experiment,xx05w23re,
143,dmp_npsi(20)_final(2).mov,True,left,0,training(26).mov,0,142,142,107,,,,,,,,13:43:12:637,13:43:13:360,13:43:16:380,left,13:43:16:813,,2018_May_30_1329,59.9340977108,MP-Perception Experiment,xx05w23re,
144,vgpdm_dyn(5)-lvm(30)_final(3).mov,False,left,0,training(41).mov,0,143,143,58,,,,,,,,13:43:17:603,13:43:18:315,13:43:21:317,left,13:43:21:667,,2018_May_30_1329,59.9340977108,MP-Perception Experiment,xx05w23re,
145,vcgpdm_dyn(25)-lvm(5)_final(4).mov,False,left,0,training(9).mov,0,144,144,98,,,,,,,,13:43:22:468,13:43:23:168,13:43:26:171,left,13:43:27:172,,2018_May_30_1329,59.9340977108,MP-Perception Experiment,xx05w23re,
146,training(11).mov,False,right,0,vcgpdm_dyn(10)-lvm(25)_final(1).mov,0,145,145,22,,,,,,,,13:43:27:953,13:43:28:673,13:43:31:693,right,13:43:32:360,,2018_May_30_1329,59.9340977108,MP-Perception Experiment,xx05w23re,
147,vcgpdm_dyn(10)-lvm(35)_final(1).mov,True,left,0,training(4).mov,0,146,146,133,,,,,,,,13:43:33:142,13:43:33:878,13:43:36:864,left,13:43:37:398,,2018_May_30_1329,59.9340977108,MP-Perception Experiment,xx05w23re,
148,vcgpdm_dyn(30)-lvm(30)_final(7).mov,True,left,0,training(0).mov,0,147,147,145,,,,,,,,13:43:38:184,13:43:38:899,13:43:41:918,left,13:43:42:319,,2018_May_30_1329,59.9340977108,MP-Perception Experiment,xx05w23re,
149,vcgpdm_dyn(25)-lvm(35)_final(3).mov,True,left,0,training(38).mov,0,148,148,44,,,,,,,,13:43:43:096,13:43:43:819,13:43:46:820,left,13:43:47:371,,2018_May_30_1329,59.9340977108,MP-Perception Experiment,xx05w23re,
150,vcgpdm_dyn(20)-lvm(25)_final(0).mov,True,left,0,training(28).mov,0,149,149,65,,,,,,,,13:43:48:155,13:43:48:872,13:43:51:875,left,13:43:52:243,,2018_May_30_1329,59.9340977108,MP-Perception Experiment,xx05w23re,
151,training(22).mov,False,right,0,tmp_numprim(2)_final(2).mov,0,150,150,57,,,,,,,,13:43:53:030,13:43:53:743,13:43:56:731,right,13:43:57:181,,2018_May_30_1329,59.9340977108,MP-Perception Experiment,xx05w23re,
152,training(26).mov,False,right,0,tmp_numprim(2)_final(6).mov,0,151,151,87,,,,,,,,13:43:57:987,13:43:58:682,13:44:01:685,right,13:44:02:719,,2018_May_30_1329,59.9340977108,MP-Perception Experiment,xx05w23re,
153,vcgpdm_dyn(20)-lvm(35)_final(2).mov,False,left,0,training(38).mov,0,152,152,36,,,,,,,,13:44:03:496,13:44:04:220,13:44:07:224,right,13:44:07:691,,2018_May_30_1329,59.9340977108,MP-Perception Experiment,xx05w23re,
154,training(19).mov,True,right,0,vcgpdm_dyn(30)-lvm(25)_final(1).mov,0,153,153,150,,,,,,,,13:44:08:474,13:44:09:192,13:44:12:194,left,13:44:13:062,,2018_May_30_1329,59.9340977108,MP-Perception Experiment,xx05w23re,
155,training(10).mov,False,right,0,vcgpdm_dyn(20)-lvm(25)_final(4).mov,0,154,154,137,,,,,,,,13:44:13:877,13:44:14:563,13:44:17:582,right,13:44:18:066,,2018_May_30_1329,59.9340977108,MP-Perception Experiment,xx05w23re,
156,training(14).mov,False,right,0,vcgpdm_dyn(30)-lvm(10)_final(8).mov,0,155,155,52,,,,,,,,13:44:18:850,13:44:19:567,13:44:22:569,right,13:44:23:203,,2018_May_30_1329,59.9340977108,MP-Perception Experiment,xx05w23re,
157,vcgpdm_dyn(5)-lvm(5)_final(7).mov,False,left,0,training(2).mov,0,156,156,25,,,,,,,,13:44:23:990,13:44:24:706,13:44:27:708,left,13:44:28:142,,2018_May_30_1329,59.9340977108,MP-Perception Experiment,xx05w23re,
158,vgpdm_dyn(10)-lvm(30)_final(4).mov,False,left,0,training(30).mov,0,157,157,0,,,,,,,,13:44:28:924,13:44:29:643,13:44:32:645,left,13:44:33:079,,2018_May_30_1329,59.9340977108,MP-Perception Experiment,xx05w23re,
159,tmp_numprim(4)_final(2).mov,True,left,0,training(13).mov,0,158,158,74,,,,,,,,13:44:33:869,13:44:34:580,13:44:37:581,left,13:44:37:881,,2018_May_30_1329,59.9340977108,MP-Perception Experiment,xx05w23re,
160,training(37).mov,True,right,1,dmp_npsi(30)_final(0).mov,0,0,0,13,,,,,,,,13:47:01:410,13:47:02:142,13:47:05:144,right,13:47:05:560,,2018_May_30_1329,59.9340977108,MP-Perception Experiment,xx05w23re,
161,vgpdm_dyn(20)-lvm(5)_final(9).mov,True,left,1,training(29).mov,0,1,1,135,,,,,,,,13:47:06:361,13:47:07:077,13:47:10:063,left,13:47:10:363,,2018_May_30_1329,59.9340977108,MP-Perception Experiment,xx05w23re,
162,training(1).mov,True,right,1,vgpdm_dyn(35)-lvm(10)_final(2).mov,0,2,2,141,,,,,,,,13:47:11:142,13:47:11:864,13:47:14:867,right,13:47:15:200,,2018_May_30_1329,59.9340977108,MP-Perception Experiment,xx05w23re,
163,training(39).mov,False,right,1,vcgpdm_dyn(30)-lvm(25)_final(3).mov,0,3,3,41,,,,,,,,13:47:15:978,13:47:16:702,13:47:19:690,right,13:47:20:024,,2018_May_30_1329,59.9340977108,MP-Perception Experiment,xx05w23re,
164,vcgpdm_dyn(25)-lvm(20)_final(3).mov,True,left,1,training(35).mov,0,4,4,138,,,,,,,,13:47:20:786,13:47:21:525,13:47:24:527,left,13:47:25:028,,2018_May_30_1329,59.9340977108,MP-Perception Experiment,xx05w23re,
165,training(32).mov,False,right,1,dmp_npsi(30)_final(2).mov,0,5,5,122,,,,,,,,13:47:25:813,13:47:26:529,13:47:29:532,right,13:47:30:032,,2018_May_30_1329,59.9340977108,MP-Perception Experiment,xx05w23re,
166,training(31).mov,False,right,1,vcgpdm_dyn(35)-lvm(5)_final(4).mov,0,6,6,7,,,,,,,,13:47:30:818,13:47:31:533,13:47:34:536,right,13:47:35:169,,2018_May_30_1329,59.9340977108,MP-Perception Experiment,xx05w23re,
167,vcgpdm_dyn(35)-lvm(20)_final(6).mov,False,left,1,training(1).mov,0,7,7,21,,,,,,,,13:47:35:964,13:47:36:672,13:47:39:674,left,13:47:40:091,,2018_May_30_1329,59.9340977108,MP-Perception Experiment,xx05w23re,
168,training(31).mov,True,right,1,tmp_numprim(10)_final(5).mov,0,8,8,14,,,,,,,,13:47:40:887,13:47:41:592,13:47:44:595,right,13:47:45:145,,2018_May_30_1329,59.9340977108,MP-Perception Experiment,xx05w23re,
169,vgpdm_dyn(30)-lvm(20)_final(1).mov,True,left,1,training(38).mov,0,9,9,112,,,,,,,,13:47:45:924,13:47:46:663,13:47:49:665,right,13:47:52:184,,2018_May_30_1329,59.9340977108,MP-Perception Experiment,xx05w23re,
170,vcgpdm_dyn(10)-lvm(25)_final(1).mov,False,left,1,training(31).mov,0,10,10,40,,,,,,,,13:47:52:983,13:47:53:685,13:47:56:687,left,13:47:57:187,,2018_May_30_1329,59.9340977108,MP-Perception Experiment,xx05w23re,
171,training(39).mov,False,right,1,vgpdm_dyn(35)-lvm(25)_final(1).mov,0,11,11,127,,,,,,,,13:47:57:975,13:47:58:688,13:48:01:691,right,13:48:02:008,,2018_May_30_1329,59.9340977108,MP-Perception Experiment,xx05w23re,
172,training(48).mov,True,right,1,vcgpdm_dyn(25)-lvm(30)_final(9).mov,0,12,12,83,,,,,,,,13:48:02:789,13:48:03:509,13:48:06:511,left,13:48:06:862,,2018_May_30_1329,59.9340977108,MP-Perception Experiment,xx05w23re,
173,vcgpdm_dyn(15)-lvm(15)_final(0).mov,False,left,1,training(6).mov,0,13,13,48,,,,,,,,13:48:07:660,13:48:08:380,13:48:11:368,left,13:48:12:269,,2018_May_30_1329,59.9340977108,MP-Perception Experiment,xx05w23re,
174,vgpdm_dyn(25)-lvm(20)_final(6).mov,True,left,1,training(30).mov,0,14,14,61,,,,,,,,13:48:13:059,13:48:13:787,13:48:16:773,left,13:48:17:323,,2018_May_30_1329,59.9340977108,MP-Perception Experiment,xx05w23re,
175,vcgpdm_dyn(15)-lvm(10)_final(9).mov,True,left,1,training(16).mov,0,15,15,156,,,,,,,,13:48:18:095,13:48:18:824,13:48:21:827,left,13:48:22:227,,2018_May_30_1329,59.9340977108,MP-Perception Experiment,xx05w23re,
176,training(23).mov,False,right,1,vcgpdm_dyn(30)-lvm(25)_final(9).mov,0,16,16,32,,,,,,,,13:48:23:006,13:48:23:728,13:48:26:748,right,13:48:27:248,,2018_May_30_1329,59.9340977108,MP-Perception Experiment,xx05w23re,
177,tmp_numprim(10)_final(7).mov,True,left,1,training(10).mov,0,17,17,80,,,,,,,,13:48:28:039,13:48:28:750,13:48:31:752,right,13:48:32:803,,2018_May_30_1329,59.9340977108,MP-Perception Experiment,xx05w23re,
178,training(21).mov,True,right,1,vgpdm_dyn(15)-lvm(5)_final(0).mov,0,18,18,105,,,,,,,,13:48:33:581,13:48:34:321,13:48:37:307,left,13:48:37:707,,2018_May_30_1329,59.9340977108,MP-Perception Experiment,xx05w23re,
179,training(2).mov,False,right,1,vcgpdm_dyn(10)-lvm(30)_final(3).mov,0,19,19,69,,,,,,,,13:48:38:480,13:48:39:208,13:48:42:211,right,13:48:42:961,,2018_May_30_1329,59.9340977108,MP-Perception Experiment,xx05w23re,
180,dmp_npsi(45)_final(4).mov,True,left,1,training(11).mov,0,20,20,134,,,,,,,,13:48:43:740,13:48:44:462,13:48:47:464,left,13:48:47:865,,2018_May_30_1329,59.9340977108,MP-Perception Experiment,xx05w23re,
181,vcgpdm_dyn(25)-lvm(25)_final(3).mov,False,left,1,training(15).mov,0,21,21,15,,,,,,,,13:48:48:640,13:48:49:366,13:48:52:368,right,13:48:52:668,,2018_May_30_1329,59.9340977108,MP-Perception Experiment,xx05w23re,
182,vcgpdm_dyn(10)-lvm(20)_final(1).mov,False,left,1,training(10).mov,0,22,22,139,,,,,,,,13:48:53:459,13:48:54:170,13:48:57:157,left,13:48:57:441,,2018_May_30_1329,59.9340977108,MP-Perception Experiment,xx05w23re,
183,training(0).mov,True,right,1,vgpdm_dyn(15)-lvm(5)_final(7).mov,0,23,23,30,,,,,,,,13:48:58:221,13:48:58:959,13:49:01:944,right,13:49:02:645,,2018_May_30_1329,59.9340977108,MP-Perception Experiment,xx05w23re,
184,training(10).mov,True,right,1,tmp_numprim(4)_final(0).mov,0,24,24,87,,,,,,,,13:49:03:416,13:49:04:147,13:49:07:150,right,13:49:07:650,,2018_May_30_1329,59.9340977108,MP-Perception Experiment,xx05w23re,
185,training(22).mov,False,right,1,vcgpdm_dyn(30)-lvm(15)_final(6).mov,0,25,25,86,,,,,,,,13:49:08:436,13:49:09:168,13:49:12:154,right,13:49:12:521,,2018_May_30_1329,59.9340977108,MP-Perception Experiment,xx05w23re,
186,training(18).mov,True,right,1,vcgpdm_dyn(30)-lvm(20)_final(1).mov,0,26,26,125,,,,,,,,13:49:13:305,13:49:14:022,13:49:17:024,left,13:49:17:425,,2018_May_30_1329,59.9340977108,MP-Perception Experiment,xx05w23re,
187,training(11).mov,False,right,1,vgpdm_dyn(15)-lvm(35)_final(6).mov,0,27,27,114,,,,,,,,13:49:18:206,13:49:18:926,13:49:21:929,left,13:49:22:380,,2018_May_30_1329,59.9340977108,MP-Perception Experiment,xx05w23re,
188,training(40).mov,True,right,1,vcgpdm_dyn(10)-lvm(30)_final(3).mov,0,28,28,142,,,,,,,,13:49:23:154,13:49:23:881,13:49:26:883,right,13:49:27:000,,2018_May_30_1329,59.9340977108,MP-Perception Experiment,xx05w23re,
189,training(23).mov,False,right,1,vgpdm_dyn(10)-lvm(25)_final(2).mov,0,29,29,129,,,,,,,,13:49:27:783,13:49:28:501,13:49:31:503,right,13:49:34:406,,2018_May_30_1329,59.9340977108,MP-Perception Experiment,xx05w23re,
190,training(27).mov,True,right,1,vcgpdm_dyn(25)-lvm(10)_final(7).mov,0,30,30,119,,,,,,,,13:49:35:194,13:49:35:922,13:49:38:909,right,13:49:39:326,,2018_May_30_1329,59.9340977108,MP-Perception Experiment,xx05w23re,
191,vcgpdm_dyn(5)-lvm(25)_final(0).mov,True,left,1,training(20).mov,0,31,31,28,,,,,,,,13:49:40:105,13:49:40:827,13:49:43:829,left,13:49:44:180,,2018_May_30_1329,59.9340977108,MP-Perception Experiment,xx05w23re,
192,training(30).mov,True,right,1,tmp_numprim(2)_final(3).mov,0,32,32,130,,,,,,,,13:49:45:702,13:49:45:702,13:49:48:668,right,13:49:49:119,,2018_May_30_1329,59.9340977108,MP-Perception Experiment,xx05w23re,
193,training(38).mov,False,right,1,vcgpdm_dyn(20)-lvm(35)_final(1).mov,0,33,33,24,,,,,,,,13:49:49:893,13:49:50:637,13:49:53:639,right,13:49:54:040,,2018_May_30_1329,59.9340977108,MP-Perception Experiment,xx05w23re,
194,vcgpdm_dyn(35)-lvm(10)_final(0).mov,True,left,1,training(9).mov,0,34,34,154,,,,,,,,13:49:54:817,13:49:55:541,13:49:58:544,left,13:49:59:211,,2018_May_30_1329,59.9340977108,MP-Perception Experiment,xx05w23re,
195,training(48).mov,True,right,1,map_cgpdm_final(4).mov,0,35,35,43,,,,,,,,13:49:59:990,13:50:00:712,13:50:03:715,right,13:50:04:683,,2018_May_30_1329,59.9340977108,MP-Perception Experiment,xx05w23re,
196,vcgpdm_dyn(5)-lvm(10)_final(5).mov,False,left,1,training(26).mov,0,36,36,96,,,,,,,,13:50:05:465,13:50:06:183,13:50:09:186,left,13:50:09:803,,2018_May_30_1329,59.9340977108,MP-Perception Experiment,xx05w23re,
197,training(30).mov,True,right,1,tmp_numprim(5)_final(7).mov,0,37,37,79,,,,,,,,13:50:10:579,13:50:11:304,13:50:14:308,right,13:50:14:892,,2018_May_30_1329,59.9340977108,MP-Perception Experiment,xx05w23re,
198,training(34).mov,False,right,1,vcgpdm_dyn(10)-lvm(15)_final(8).mov,0,38,38,42,,,,,,,,13:50:15:663,13:50:16:393,13:50:19:395,right,13:50:19:846,,2018_May_30_1329,59.9340977108,MP-Perception Experiment,xx05w23re,
199,map_cgpdm_final(5).mov,False,left,1,training(35).mov,0,39,39,51,,,,,,,,13:50:20:612,13:50:21:347,13:50:24:349,left,13:50:25:000,,2018_May_30_1329,59.9340977108,MP-Perception Experiment,xx05w23re,
200,training(48).mov,True,right,1,map_cgpdm_final(0).mov,0,40,40,152,,,,,,,,13:50:25:788,13:50:26:516,13:50:29:502,right,13:50:29:635,,2018_May_30_1329,59.9340977108,MP-Perception Experiment,xx05w23re,
201,training(11).mov,True,right,1,vcgpdm_dyn(35)-lvm(20)_final(5).mov,0,41,41,65,,,,,,,,13:50:30:429,13:50:31:154,13:50:34:156,left,13:50:34:557,,2018_May_30_1329,59.9340977108,MP-Perception Experiment,xx05w23re,
202,training(24).mov,True,right,1,vcgpdm_dyn(25)-lvm(35)_final(5).mov,0,42,42,121,,,,,,,,13:50:35:338,13:50:36:058,13:50:39:045,left,13:50:39:412,,2018_May_30_1329,59.9340977108,MP-Perception Experiment,xx05w23re,
203,training(16).mov,True,right,1,vcgpdm_dyn(15)-lvm(25)_final(6).mov,0,43,43,109,,,,,,,,13:50:40:197,13:50:40:913,13:50:43:916,left,13:50:44:450,,2018_May_30_1329,59.9340977108,MP-Perception Experiment,xx05w23re,
204,training(17).mov,False,right,1,vcgpdm_dyn(15)-lvm(30)_final(2).mov,0,44,44,131,,,,,,,,13:50:45:605,13:50:46:118,13:50:48:971,right,13:50:49:405,,2018_May_30_1329,59.9340977108,MP-Perception Experiment,xx05w23re,
205,vcgpdm_dyn(20)-lvm(35)_final(5).mov,False,left,1,training(12).mov,0,45,45,144,,,,,,,,13:50:50:179,13:50:50:923,13:50:53:908,left,13:50:54:542,,2018_May_30_1329,59.9340977108,MP-Perception Experiment,xx05w23re,
206,training(29).mov,True,right,1,tmp_numprim(4)_final(5).mov,0,46,46,85,,,,,,,,13:50:55:334,13:50:56:043,13:50:59:063,right,13:50:59:546,,2018_May_30_1329,59.9340977108,MP-Perception Experiment,xx05w23re,
207,training(26).mov,False,right,1,vcgpdm_dyn(10)-lvm(15)_final(2).mov,0,47,47,76,,,,,,,,13:51:00:336,13:51:01:047,13:51:04:050,right,13:51:04:484,,2018_May_30_1329,59.9340977108,MP-Perception Experiment,xx05w23re,
208,training(41).mov,False,right,1,vcgpdm_dyn(15)-lvm(5)_final(7).mov,0,48,48,81,,,,,,,,13:51:05:255,13:51:05:985,13:51:09:005,right,13:51:09:372,,2018_May_30_1329,59.9340977108,MP-Perception Experiment,xx05w23re,
209,vcgpdm_dyn(5)-lvm(15)_final(5).mov,False,left,1,training(26).mov,0,49,49,132,,,,,,,,13:51:10:148,13:51:10:873,13:51:13:876,left,13:51:14:176,,2018_May_30_1329,59.9340977108,MP-Perception Experiment,xx05w23re,
210,vcgpdm_dyn(35)-lvm(20)_final(7).mov,False,left,1,training(27).mov,0,50,50,158,,,,,,,,13:51:14:964,13:51:15:677,13:51:18:678,right,13:51:19:645,,2018_May_30_1329,59.9340977108,MP-Perception Experiment,xx05w23re,
211,vcgpdm_dyn(35)-lvm(30)_final(5).mov,False,left,1,training(2).mov,0,51,51,53,,,,,,,,13:51:20:434,13:51:21:146,13:51:24:150,right,13:51:24:884,,2018_May_30_1329,59.9340977108,MP-Perception Experiment,xx05w23re,
212,vgpdm_dyn(20)-lvm(35)_final(3).mov,True,left,1,training(41).mov,0,52,52,1,,,,,,,,13:51:25:662,13:51:26:385,13:51:29:372,left,13:51:29:789,,2018_May_30_1329,59.9340977108,MP-Perception Experiment,xx05w23re,
213,vgpdm_dyn(25)-lvm(35)_final(1).mov,False,left,1,training(41).mov,0,53,53,95,,,,,,,,13:51:30:588,13:51:31:291,13:51:34:293,right,13:51:35:094,,2018_May_30_1329,59.9340977108,MP-Perception Experiment,xx05w23re,
214,training(20).mov,True,right,1,dmp_npsi(15)_final(3).mov,0,54,54,22,,,,,,,,13:51:35:885,13:51:36:595,13:51:39:614,right,13:51:40:031,,2018_May_30_1329,59.9340977108,MP-Perception Experiment,xx05w23re,
215,vcgpdm_dyn(35)-lvm(10)_final(1).mov,False,left,1,training(32).mov,0,55,55,151,,,,,,,,13:51:40:832,13:51:41:533,13:51:44:536,right,13:51:44:869,,2018_May_30_1329,59.9340977108,MP-Perception Experiment,xx05w23re,
216,vcgpdm_dyn(20)-lvm(5)_final(8).mov,False,left,1,training(9).mov,0,56,56,50,,,,,,,,13:51:45:733,13:51:46:370,13:51:49:390,right,13:51:49:807,,2018_May_30_1329,59.9340977108,MP-Perception Experiment,xx05w23re,
217,training(39).mov,False,right,1,vgpdm_dyn(25)-lvm(30)_final(9).mov,0,57,57,92,,,,,,,,13:51:50:579,13:51:51:308,13:51:54:310,right,13:51:54:961,,2018_May_30_1329,59.9340977108,MP-Perception Experiment,xx05w23re,
218,vcgpdm_dyn(20)-lvm(30)_final(9).mov,False,left,1,training(41).mov,0,58,58,19,,,,,,,,13:51:55:753,13:51:56:462,13:51:59:465,left,13:51:59:782,,2018_May_30_1329,59.9340977108,MP-Perception Experiment,xx05w23re,
219,training(36).mov,True,right,1,vgpdm_dyn(35)-lvm(35)_final(2).mov,0,59,59,84,,,,,,,,13:52:00:944,13:52:01:450,13:52:04:286,left,13:52:04:787,,2018_May_30_1329,59.9340977108,MP-Perception Experiment,xx05w23re,
220,training(8).mov,False,right,1,vgpdm_dyn(20)-lvm(15)_final(7).mov,0,60,60,23,,,,,,,,13:52:05:570,13:52:06:302,13:52:09:288,right,13:52:09:772,,2018_May_30_1329,59.9340977108,MP-Perception Experiment,xx05w23re,
221,training(11).mov,False,right,1,vcgpdm_dyn(20)-lvm(10)_final(0).mov,0,61,61,59,,,,,,,,13:52:10:554,13:52:11:273,13:52:14:276,right,13:52:14:459,,2018_May_30_1329,59.9340977108,MP-Perception Experiment,xx05w23re,
222,training(40).mov,False,right,1,map_cgpdm_final(3).mov,0,62,62,29,,,,,,,,13:52:15:253,13:52:15:961,13:52:18:949,right,13:52:19:182,,2018_May_30_1329,59.9340977108,MP-Perception Experiment,xx05w23re,
223,training(30).mov,False,right,1,vgpdm_dyn(15)-lvm(15)_final(0).mov,0,63,63,104,,,,,,,,13:52:19:964,13:52:20:700,13:52:23:686,left,13:52:24:320,,2018_May_30_1329,59.9340977108,MP-Perception Experiment,xx05w23re,
224,training(3).mov,True,right,1,vgpdm_dyn(5)-lvm(20)_final(2).mov,0,64,64,12,,,,,,,,13:52:25:099,13:52:25:821,13:52:28:823,left,13:52:30:358,,2018_May_30_1329,59.9340977108,MP-Perception Experiment,xx05w23re,
225,vgpdm_dyn(20)-lvm(5)_final(2).mov,True,left,1,training(26).mov,0,65,65,111,,,,,,,,13:52:31:132,13:52:31:859,13:52:34:862,left,13:52:35:713,,2018_May_30_1329,59.9340977108,MP-Perception Experiment,xx05w23re,
226,vgpdm_dyn(10)-lvm(20)_final(0).mov,True,left,1,training(15).mov,0,66,66,146,,,,,,,,13:52:36:483,13:52:37:214,13:52:40:234,left,13:52:40:651,,2018_May_30_1329,59.9340977108,MP-Perception Experiment,xx05w23re,
227,vcgpdm_dyn(30)-lvm(5)_final(7).mov,True,left,1,training(8).mov,0,67,67,31,,,,,,,,13:52:41:430,13:52:42:152,13:52:45:154,left,13:52:45:605,,2018_May_30_1329,59.9340977108,MP-Perception Experiment,xx05w23re,
228,tmp_numprim(2)_final(8).mov,False,left,1,training(25).mov,0,68,68,56,,,,,,,,13:52:46:395,13:52:47:122,13:52:50:125,left,13:52:50:625,,2018_May_30_1329,59.9340977108,MP-Perception Experiment,xx05w23re,
229,tmp_numprim(9)_final(6).mov,False,left,1,training(4).mov,0,69,69,147,,,,,,,,13:52:51:419,13:52:52:144,13:52:55:130,left,13:52:55:914,,2018_May_30_1329,59.9340977108,MP-Perception Experiment,xx05w23re,
230,training(1).mov,True,right,1,vcgpdm_dyn(25)-lvm(25)_final(7).mov,0,70,70,17,,,,,,,,13:52:56:699,13:52:57:430,13:53:00:433,left,13:53:00:766,,2018_May_30_1329,59.9340977108,MP-Perception Experiment,xx05w23re,
231,training(40).mov,True,right,1,vcgpdm_dyn(30)-lvm(5)_final(6).mov,0,71,71,74,,,,,,,,13:53:01:541,13:53:02:267,13:53:05:270,right,13:53:05:537,,2018_May_30_1329,59.9340977108,MP-Perception Experiment,xx05w23re,
232,vgpdm_dyn(15)-lvm(30)_final(7).mov,True,left,1,training(1).mov,0,72,72,157,,,,,,,,13:53:06:320,13:53:07:038,13:53:10:043,left,13:53:10:377,,2018_May_30_1329,59.9340977108,MP-Perception Experiment,xx05w23re,
233,training(31).mov,False,right,1,vcgpdm_dyn(5)-lvm(30)_final(9)_bad.mov,0,73,73,2,,,,,,,,13:53:11:179,13:53:11:878,13:53:14:880,right,13:53:15:331,,2018_May_30_1329,59.9340977108,MP-Perception Experiment,xx05w23re,
234,vcgpdm_dyn(30)-lvm(15)_final(7).mov,True,left,1,training(28).mov,0,74,74,90,,,,,,,,13:53:16:123,13:53:16:832,13:53:19:834,left,13:53:20:268,,2018_May_30_1329,59.9340977108,MP-Perception Experiment,xx05w23re,
235,training(7).mov,False,right,1,vgpdm_dyn(5)-lvm(30)_final(5).mov,0,75,75,91,,,,,,,,13:53:21:055,13:53:21:786,13:53:24:772,right,13:53:25:122,,2018_May_30_1329,59.9340977108,MP-Perception Experiment,xx05w23re,
236,vgpdm_dyn(5)-lvm(5)_final(1)_out_of_screen.mov,True,left,1,training(15).mov,0,76,76,124,,,,,,,,13:53:25:905,13:53:26:641,13:53:29:643,left,13:53:30:194,,2018_May_30_1329,59.9340977108,MP-Perception Experiment,xx05w23re,
237,training(7).mov,False,right,1,vcgpdm_dyn(20)-lvm(15)_final(2).mov,0,77,77,39,,,,,,,,13:53:30:978,13:53:31:695,13:53:34:697,left,13:53:36:199,,2018_May_30_1329,59.9340977108,MP-Perception Experiment,xx05w23re,
238,training(21).mov,True,right,1,vgpdm_dyn(5)-lvm(15)_final(9).mov,0,78,78,128,,,,,,,,13:53:36:977,13:53:37:700,13:53:40:702,right,13:53:41:336,,2018_May_30_1329,59.9340977108,MP-Perception Experiment,xx05w23re,
239,vgpdm_dyn(35)-lvm(10)_final(4).mov,False,left,1,training(10).mov,0,79,79,57,,,,,,,,13:53:42:126,13:53:42:854,13:53:45:857,right,13:53:46:273,,2018_May_30_1329,59.9340977108,MP-Perception Experiment,xx05w23re,
240,training(1).mov,False,right,1,vgpdm_dyn(20)-lvm(30)_final(7).mov,0,80,80,62,,,,,,,,13:53:47:056,13:53:47:774,13:53:50:776,left,13:53:51:010,,2018_May_30_1329,59.9340977108,MP-Perception Experiment,xx05w23re,
241,vcgpdm_dyn(35)-lvm(20)_final(8).mov,False,left,1,training(18).mov,0,81,81,27,,,,,,,,13:53:51:793,13:53:52:511,13:53:55:513,right,13:53:56:264,,2018_May_30_1329,59.9340977108,MP-Perception Experiment,xx05w23re,
242,vgpdm_dyn(35)-lvm(10)_final(0).mov,True,left,1,training(16).mov,0,82,82,33,,,,,,,,13:53:57:061,13:53:57:765,13:54:00:752,left,13:54:01:204,,2018_May_30_1329,59.9340977108,MP-Perception Experiment,xx05w23re,
243,training(35).mov,True,right,1,vgpdm_dyn(35)-lvm(10)_final(8).mov,0,83,83,26,,,,,,,,13:54:01:983,13:54:02:705,13:54:05:707,left,13:54:06:291,,2018_May_30_1329,59.9340977108,MP-Perception Experiment,xx05w23re,
244,tmp_numprim(9)_final(9).mov,False,left,1,training(31).mov,0,84,84,11,,,,,,,,13:54:07:096,13:54:07:793,13:54:10:811,right,13:54:11:162,,2018_May_30_1329,59.9340977108,MP-Perception Experiment,xx05w23re,
245,training(5).mov,True,right,1,vcgpdm_dyn(5)-lvm(20)_final(2).mov,0,85,85,8,,,,,,,,13:54:11:946,13:54:12:663,13:54:15:666,left,13:54:16:049,,2018_May_30_1329,59.9340977108,MP-Perception Experiment,xx05w23re,
246,vgpdm_dyn(5)-lvm(15)_final(9).mov,True,left,1,training(2).mov,0,86,86,110,,,,,,,,13:54:16:820,13:54:17:550,13:54:20:571,left,13:54:20:988,,2018_May_30_1329,59.9340977108,MP-Perception Experiment,xx05w23re,
247,dmp_npsi(20)_final(6).mov,False,left,1,training(39).mov,0,87,87,35,,,,,,,,13:54:21:774,13:54:22:505,13:54:25:491,left,13:54:25:891,,2018_May_30_1329,59.9340977108,MP-Perception Experiment,xx05w23re,
248,vcgpdm_dyn(30)-lvm(30)_final(9).mov,False,left,1,training(26).mov,0,88,88,101,,,,,,,,13:54:26:672,13:54:27:393,13:54:30:412,left,13:54:30:962,,2018_May_30_1329,59.9340977108,MP-Perception Experiment,xx05w23re,
249,dmp_npsi(15)_final(7).mov,False,left,1,training(9).mov,0,89,89,47,,,,,,,,13:54:31:768,13:54:32:463,13:54:35:483,left,13:54:35:884,,2018_May_30_1329,59.9340977108,MP-Perception Experiment,xx05w23re,
250,vcgpdm_dyn(20)-lvm(20)_final(3).mov,True,left,1,training(21).mov,0,90,90,100,,,,,,,,13:54:36:666,13:54:37:400,13:54:40:402,left,13:54:40:820,,2018_May_30_1329,59.9340977108,MP-Perception Experiment,xx05w23re,
251,training(37).mov,True,right,1,vcgpdm_dyn(30)-lvm(35)_final(1).mov,0,91,91,102,,,,,,,,13:54:41:619,13:54:42:321,13:54:45:323,right,13:54:45:407,,2018_May_30_1329,59.9340977108,MP-Perception Experiment,xx05w23re,
252,dmp_npsi(35)_final(0).mov,True,left,1,training(21).mov,0,92,92,75,,,,,,,,13:54:46:199,13:54:46:908,13:54:49:895,right,13:54:50:746,,2018_May_30_1329,59.9340977108,MP-Perception Experiment,xx05w23re,
253,training(5).mov,False,right,1,vgpdm_dyn(20)-lvm(35)_final(1).mov,0,93,93,52,,,,,,,,13:54:51:535,13:54:52:247,13:54:55:268,right,13:54:56:268,,2018_May_30_1329,59.9340977108,MP-Perception Experiment,xx05w23re,
254,vcgpdm_dyn(30)-lvm(20)_final(5).mov,False,left,1,training(20).mov,0,94,94,71,,,,,,,,13:54:57:046,13:54:57:769,13:55:00:772,right,13:55:01:172,,2018_May_30_1329,59.9340977108,MP-Perception Experiment,xx05w23re,
255,vcgpdm_dyn(30)-lvm(35)_final(1).mov,True,left,1,training(33).mov,0,95,95,68,,,,,,,,13:55:01:942,13:55:02:673,13:55:05:692,left,13:55:06:076,,2018_May_30_1329,59.9340977108,MP-Perception Experiment,xx05w23re,
256,vcgpdm_dyn(5)-lvm(5)_final(3).mov,True,left,1,training(12).mov,0,96,96,133,,,,,,,,13:55:06:867,13:55:07:577,13:55:10:579,left,13:55:10:964,,2018_May_30_1329,59.9340977108,MP-Perception Experiment,xx05w23re,
257,training(17).mov,False,right,1,vgpdm_dyn(30)-lvm(30)_final(0).mov,0,97,97,143,,,,,,,,13:55:11:751,13:55:12:465,13:55:15:468,right,13:55:15:868,,2018_May_30_1329,59.9340977108,MP-Perception Experiment,xx05w23re,
258,vcgpdm_dyn(15)-lvm(10)_final(9).mov,False,left,1,training(13).mov,0,98,98,89,,,,,,,,13:55:16:649,13:55:17:386,13:55:20:372,left,13:55:20:789,,2018_May_30_1329,59.9340977108,MP-Perception Experiment,xx05w23re,
259,vcgpdm_dyn(15)-lvm(20)_final(6).mov,True,left,1,training(23).mov,0,99,99,37,,,,,,,,13:55:21:570,13:55:22:290,13:55:25:292,left,13:55:25:743,,2018_May_30_1329,59.9340977108,MP-Perception Experiment,xx05w23re,
260,training(30).mov,True,right,1,vgpdm_dyn(10)-lvm(15)_final(1).mov,0,100,100,116,,,,,,,,13:55:26:535,13:55:27:259,13:55:30:263,left,13:55:30:563,,2018_May_30_1329,59.9340977108,MP-Perception Experiment,xx05w23re,
261,dmp_npsi(20)_final(1).mov,True,left,1,training(21).mov,0,101,101,9,,,,,,,,13:55:31:345,13:55:32:064,13:55:35:066,left,13:55:35:483,,2018_May_30_1329,59.9340977108,MP-Perception Experiment,xx05w23re,
262,vgpdm_dyn(15)-lvm(25)_final(3).mov,True,left,1,training(11).mov,0,102,102,153,,,,,,,,13:55:36:277,13:55:36:984,13:55:39:972,left,13:55:40:422,,2018_May_30_1329,59.9340977108,MP-Perception Experiment,xx05w23re,
263,vcgpdm_dyn(10)-lvm(15)_final(8).mov,False,left,1,training(25).mov,0,103,103,148,,,,,,,,13:55:41:194,13:55:41:923,13:55:44:926,left,13:55:45:260,,2018_May_30_1329,59.9340977108,MP-Perception Experiment,xx05w23re,
264,vcgpdm_dyn(5)-lvm(5)_final(2).mov,False,left,1,training(38).mov,0,104,104,77,,,,,,,,13:55:46:042,13:55:46:762,13:55:49:764,left,13:55:50:131,,2018_May_30_1329,59.9340977108,MP-Perception Experiment,xx05w23re,
265,vcgpdm_dyn(35)-lvm(5)_final(7).mov,True,left,1,training(23).mov,0,105,105,3,,,,,,,,13:55:50:906,13:55:51:632,13:55:54:652,left,13:55:55:135,,2018_May_30_1329,59.9340977108,MP-Perception Experiment,xx05w23re,
266,vcgpdm_dyn(10)-lvm(10)_final(6).mov,False,left,1,training(7).mov,0,106,106,64,,,,,,,,13:55:55:912,13:55:56:636,13:55:59:639,right,13:56:00:106,,2018_May_30_1329,59.9340977108,MP-Perception Experiment,xx05w23re,
267,training(15).mov,True,right,1,dmp_npsi(15)_final(6).mov,0,107,107,49,,,,,,,,13:56:00:873,13:56:01:607,13:56:04:627,right,13:56:05:078,,2018_May_30_1329,59.9340977108,MP-Perception Experiment,xx05w23re,
268,tmp_numprim(9)_final(4).mov,False,left,1,training(35).mov,0,108,108,67,,,,,,,,13:56:05:874,13:56:06:579,13:56:09:581,right,13:56:10:082,,2018_May_30_1329,59.9340977108,MP-Perception Experiment,xx05w23re,
269,vgpdm_dyn(5)-lvm(10)_final(7).mov,True,left,1,training(7).mov,0,109,109,63,,,,,,,,13:56:10:874,13:56:11:583,13:56:14:602,left,13:56:15:069,,2018_May_30_1329,59.9340977108,MP-Perception Experiment,xx05w23re,
270,training(22).mov,False,right,1,vgpdm_dyn(30)-lvm(5)_final(2).mov,0,110,110,66,,,,,,,,13:56:15:840,13:56:16:585,13:56:19:571,right,13:56:19:971,,2018_May_30_1329,59.9340977108,MP-Perception Experiment,xx05w23re,
271,vgpdm_dyn(30)-lvm(20)_final(7).mov,False,left,1,training(16).mov,0,111,111,140,,,,,,,,13:56:20:742,13:56:21:490,13:56:24:476,right,13:56:24:709,,2018_May_30_1329,59.9340977108,MP-Perception Experiment,xx05w23re,
272,training(2).mov,False,right,1,vcgpdm_dyn(25)-lvm(15)_final(1).mov,0,112,112,55,,,,,,,,13:56:25:482,13:56:26:227,13:56:29:215,left,13:56:29:615,,2018_May_30_1329,59.9340977108,MP-Perception Experiment,xx05w23re,
273,vcgpdm_dyn(5)-lvm(25)_final(0).mov,True,left,1,training(37).mov,0,113,113,60,,,,,,,,13:56:30:374,13:56:31:117,13:56:34:119,left,13:56:34:502,,2018_May_30_1329,59.9340977108,MP-Perception Experiment,xx05w23re,
274,training(8).mov,False,right,1,vgpdm_dyn(20)-lvm(15)_final(2).mov,0,114,114,5,,,,,,,,13:56:35:266,13:56:36:003,13:56:39:007,right,13:56:39:424,,2018_May_30_1329,59.9340977108,MP-Perception Experiment,xx05w23re,
275,training(24).mov,True,right,1,vcgpdm_dyn(25)-lvm(10)_final(6).mov,0,115,115,108,,,,,,,,13:56:40:213,13:56:40:925,13:56:43:944,left,13:56:44:378,,2018_May_30_1329,59.9340977108,MP-Perception Experiment,xx05w23re,
276,training(32).mov,True,right,1,vcgpdm_dyn(35)-lvm(25)_final(1).mov,0,116,116,106,,,,,,,,13:56:45:888,13:56:45:888,13:56:48:882,right,13:56:49:315,,2018_May_30_1329,59.9340977108,MP-Perception Experiment,xx05w23re,
277,vcgpdm_dyn(10)-lvm(5)_final(4).mov,True,left,1,training(36).mov,0,117,117,10,,,,,,,,13:56:50:089,13:56:50:816,13:56:53:819,left,13:56:54:219,,2018_May_30_1329,59.9340977108,MP-Perception Experiment,xx05w23re,
278,training(13).mov,True,right,1,vgpdm_dyn(20)-lvm(20)_final(4).mov,0,118,118,137,,,,,,,,13:56:55:008,13:56:55:721,13:56:58:724,left,13:56:59:208,,2018_May_30_1329,59.9340977108,MP-Perception Experiment,xx05w23re,
279,dmp_npsi(35)_final(5).mov,True,left,1,training(30).mov,0,119,119,34,,,,,,,,13:56:59:990,13:57:00:709,13:57:03:711,left,13:57:04:295,,2018_May_30_1329,59.9340977108,MP-Perception Experiment,xx05w23re,
280,tmp_numprim(8)_final(6).mov,False,left,1,training(36).mov,0,120,120,58,,,,,,,,13:57:05:085,13:57:05:796,13:57:08:797,right,13:57:08:997,,2018_May_30_1329,59.9340977108,MP-Perception Experiment,xx05w23re,
281,training(38).mov,True,right,1,vcgpdm_dyn(5)-lvm(10)_final(0).mov,0,121,121,118,,,,,,,,13:57:09:767,13:57:10:498,13:57:13:502,right,13:57:13:935,,2018_May_30_1329,59.9340977108,MP-Perception Experiment,xx05w23re,
282,training(7).mov,False,right,1,dmp_npsi(45)_final(1).mov,0,122,122,113,,,,,,,,13:57:14:714,13:57:15:436,13:57:18:439,right,13:57:18:756,,2018_May_30_1329,59.9340977108,MP-Perception Experiment,xx05w23re,
283,training(11).mov,False,right,1,vgpdm_dyn(10)-lvm(20)_final(0).mov,0,123,123,73,,,,,,,,13:57:19:544,13:57:20:257,13:57:23:261,left,13:57:24:863,,2018_May_30_1329,59.9340977108,MP-Perception Experiment,xx05w23re,
284,training(23).mov,False,right,1,vcgpdm_dyn(5)-lvm(20)_final(0).mov,0,124,124,117,,,,,,,,13:57:25:659,13:57:26:380,13:57:29:366,right,13:57:29:683,,2018_May_30_1329,59.9340977108,MP-Perception Experiment,xx05w23re,
285,vgpdm_dyn(10)-lvm(20)_final(2).mov,False,left,1,training(38).mov,0,125,125,44,,,,,,,,13:57:30:486,13:57:31:185,13:57:34:188,left,13:57:34:672,,2018_May_30_1329,59.9340977108,MP-Perception Experiment,xx05w23re,
286,vgpdm_dyn(10)-lvm(30)_final(1).mov,False,left,1,training(9).mov,0,126,126,78,,,,,,,,13:57:35:463,13:57:36:173,13:57:39:175,left,13:57:39:693,,2018_May_30_1329,59.9340977108,MP-Perception Experiment,xx05w23re,
287,training(8).mov,False,right,1,dmp_npsi(35)_final(9).mov,0,127,127,115,,,,,,,,13:57:40:499,13:57:41:193,13:57:44:213,left,13:57:44:913,,2018_May_30_1329,59.9340977108,MP-Perception Experiment,xx05w23re,
288,training(4).mov,True,right,1,vcgpdm_dyn(35)-lvm(25)_final(4).mov,0,128,128,155,,,,,,,,13:57:45:696,13:57:46:414,13:57:49:418,right,13:57:50:252,,2018_May_30_1329,59.9340977108,MP-Perception Experiment,xx05w23re,
289,training(5).mov,False,right,1,vgpdm_dyn(35)-lvm(25)_final(5).mov,0,129,129,0,,,,,,,,13:57:51:043,13:57:51:753,13:57:54:772,right,13:57:55:222,,2018_May_30_1329,59.9340977108,MP-Perception Experiment,xx05w23re,
290,dmp_npsi(40)_final(2).mov,True,left,1,training(5).mov,0,130,130,97,,,,,,,,13:57:56:001,13:57:56:739,13:57:59:724,left,13:58:00:091,,2018_May_30_1329,59.9340977108,MP-Perception Experiment,xx05w23re,
291,training(19).mov,False,right,1,vcgpdm_dyn(30)-lvm(15)_final(9).mov,0,131,131,123,,,,,,,,13:58:00:875,13:58:01:609,13:58:04:595,left,13:58:04:995,,2018_May_30_1329,59.9340977108,MP-Perception Experiment,xx05w23re,
292,training(25).mov,False,right,1,vgpdm_dyn(30)-lvm(5)_final(4).mov,0,132,132,98,,,,,,,,13:58:05:795,13:58:06:497,13:58:09:502,right,13:58:10:019,,2018_May_30_1329,59.9340977108,MP-Perception Experiment,xx05w23re,
293,vcgpdm_dyn(30)-lvm(5)_final(2).mov,True,left,1,training(32).mov,0,133,133,45,,,,,,,,13:58:10:825,13:58:11:520,13:58:14:522,left,13:58:14:956,,2018_May_30_1329,59.9340977108,MP-Perception Experiment,xx05w23re,
294,training(30).mov,True,right,1,vcgpdm_dyn(25)-lvm(5)_final(4).mov,0,134,134,120,,,,,,,,13:58:15:733,13:58:16:457,13:58:19:477,right,13:58:20:144,,2018_May_30_1329,59.9340977108,MP-Perception Experiment,xx05w23re,
295,training(35).mov,False,right,1,vcgpdm_dyn(30)-lvm(10)_final(0).mov,0,135,135,94,,,,,,,,13:58:20:907,13:58:21:645,13:58:24:648,right,13:58:25:215,,2018_May_30_1329,59.9340977108,MP-Perception Experiment,xx05w23re,
296,dmp_npsi(30)_final(8).mov,False,left,1,training(6).mov,0,136,136,54,,,,,,,,13:58:26:001,13:58:26:716,13:58:29:719,left,13:58:30:203,,2018_May_30_1329,59.9340977108,MP-Perception Experiment,xx05w23re,
297,vgpdm_dyn(20)-lvm(25)_final(2).mov,False,left,1,training(16).mov,0,137,137,4,,,,,,,,13:58:30:985,13:58:31:704,13:58:34:706,left,13:58:35:140,,2018_May_30_1329,59.9340977108,MP-Perception Experiment,xx05w23re,
298,training(41).mov,False,right,1,dmp_npsi(40)_final(0).mov,0,138,138,38,,,,,,,,13:58:35:923,13:58:36:641,13:58:39:644,right,13:58:40:227,,2018_May_30_1329,59.9340977108,MP-Perception Experiment,xx05w23re,
299,vcgpdm_dyn(20)-lvm(25)_final(7).mov,False,left,1,training(2).mov,0,139,139,88,,,,,,,,13:58:41:012,13:58:41:746,13:58:44:749,left,13:58:45:350,,2018_May_30_1329,59.9340977108,MP-Perception Experiment,xx05w23re,
300,training(39).mov,False,right,1,vcgpdm_dyn(25)-lvm(30)_final(8).mov,0,140,140,25,,,,,,,,13:58:46:121,13:58:46:865,13:58:49:851,right,13:58:50:285,,2018_May_30_1329,59.9340977108,MP-Perception Experiment,xx05w23re,
301,training(2).mov,True,right,1,vgpdm_dyn(25)-lvm(15)_final(9)_out_of_screen.mov,0,141,141,70,,,,,,,,13:58:51:089,13:58:51:786,13:58:54:788,right,13:58:55:172,,2018_May_30_1329,59.9340977108,MP-Perception Experiment,xx05w23re,
302,training(28).mov,True,right,1,vcgpdm_dyn(20)-lvm(5)_final(2).mov,0,142,142,99,,,,,,,,13:58:55:963,13:58:56:673,13:58:59:662,right,13:59:00:062,,2018_May_30_1329,59.9340977108,MP-Perception Experiment,xx05w23re,
303,vcgpdm_dyn(10)-lvm(30)_final(6).mov,False,left,1,training(33).mov,0,143,143,46,,,,,,,,13:59:00:829,13:59:01:563,13:59:04:566,left,13:59:04:899,,2018_May_30_1329,59.9340977108,MP-Perception Experiment,xx05w23re,
304,training(5).mov,False,right,1,vcgpdm_dyn(10)-lvm(5)_final(0).mov,0,144,144,82,,,,,,,,13:59:05:666,13:59:06:401,13:59:09:403,right,13:59:09:937,,2018_May_30_1329,59.9340977108,MP-Perception Experiment,xx05w23re,
305,vcgpdm_dyn(10)-lvm(35)_final(5).mov,True,left,1,training(35).mov,0,145,145,145,,,,,,,,13:59:10:718,13:59:11:438,13:59:14:440,left,13:59:14:841,,2018_May_30_1329,59.9340977108,MP-Perception Experiment,xx05w23re,
306,vgpdm_dyn(15)-lvm(30)_final(4).mov,False,left,1,training(3).mov,0,146,146,18,,,,,,,,13:59:15:621,13:59:16:343,13:59:19:345,left,13:59:19:679,,2018_May_30_1329,59.9340977108,MP-Perception Experiment,xx05w23re,
307,training(2).mov,True,right,1,tmp_numprim(10)_final(2).mov,0,147,147,136,,,,,,,,13:59:20:476,13:59:21:180,13:59:24:182,left,13:59:24:617,,2018_May_30_1329,59.9340977108,MP-Perception Experiment,xx05w23re,
308,training(11).mov,False,right,1,vgpdm_dyn(30)-lvm(5)_final(8).mov,0,148,148,149,,,,,,,,13:59:25:403,13:59:26:134,13:59:29:137,right,13:59:29:637,,2018_May_30_1329,59.9340977108,MP-Perception Experiment,xx05w23re,
309,dmp_npsi(25)_final(4).mov,False,left,1,training(12).mov,0,149,149,107,,,,,,,,13:59:30:414,13:59:31:138,13:59:34:158,left,13:59:34:525,,2018_May_30_1329,59.9340977108,MP-Perception Experiment,xx05w23re,
310,vcgpdm_dyn(5)-lvm(25)_final(0).mov,False,left,1,training(34).mov,0,150,150,20,,,,,,,,13:59:35:299,13:59:36:043,13:59:39:027,left,13:59:39:427,,2018_May_30_1329,59.9340977108,MP-Perception Experiment,xx05w23re,
311,dmp_npsi(40)_final(0).mov,False,left,1,training(28).mov,0,151,151,6,,,,,,,,13:59:40:206,13:59:40:929,13:59:43:931,left,13:59:44:315,,2018_May_30_1329,59.9340977108,MP-Perception Experiment,xx05w23re,
312,training(22).mov,True,right,1,tmp_numprim(5)_final(4).mov,0,152,152,16,,,,,,,,13:59:45:720,13:59:46:233,13:59:48:818,right,13:59:49:235,,2018_May_30_1329,59.9340977108,MP-Perception Experiment,xx05w23re,
313,training(5).mov,False,right,1,vcgpdm_dyn(10)-lvm(10)_final(2).mov,0,153,153,93,,,,,,,,13:59:50:024,13:59:50:739,13:59:53:742,right,13:59:54:176,,2018_May_30_1329,59.9340977108,MP-Perception Experiment,xx05w23re,
314,vgpdm_dyn(30)-lvm(30)_final(2).mov,False,left,1,training(35).mov,0,154,154,103,,,,,,,,13:59:54:956,13:59:55:677,13:59:58:679,right,13:59:59:063,,2018_May_30_1329,59.9340977108,MP-Perception Experiment,xx05w23re,
315,vcgpdm_dyn(35)-lvm(20)_final(5).mov,True,left,1,training(34).mov,0,155,155,36,,,,,,,,13:59:59:839,14:00:00:564,14:00:03:567,right,14:00:04:000,,2018_May_30_1329,59.9340977108,MP-Perception Experiment,xx05w23re,
316,training(39).mov,True,right,1,vcgpdm_dyn(10)-lvm(20)_final(9).mov,0,156,156,150,,,,,,,,14:00:04:778,14:00:05:501,14:00:08:505,right,14:00:09:272,,2018_May_30_1329,59.9340977108,MP-Perception Experiment,xx05w23re,
317,dmp_npsi(10)_final(8)_bad.mov,True,left,1,training(24).mov,0,157,157,126,,,,,,,,14:00:10:059,14:00:10:773,14:00:13:776,left,14:00:14:226,,2018_May_30_1329,59.9340977108,MP-Perception Experiment,xx05w23re,
318,tmp_numprim(3)_final(4).mov,True,left,1,training(41).mov,0,158,158,72,,,,,,,,14:00:15:003,14:00:15:727,14:00:18:729,left,14:00:19:147,,2018_May_30_1329,59.9340977108,MP-Perception Experiment,xx05w23re,
319,vgpdm_dyn(25)-lvm(10)_final(4)_out_of_screen.mov,False,left,2,training(26).mov,0,0,0,79,,,,,,,,14:02:13:088,14:02:13:811,14:02:16:797,left,14:02:18:617,,2018_May_30_1329,59.9340977108,MP-Perception Experiment,xx05w23re,
320,training(19).mov,True,right,2,vgpdm_dyn(35)-lvm(10)_final(0).mov,0,1,1,129,,,,,,,,14:02:19:394,14:02:20:118,14:02:23:137,right,14:02:23:521,,2018_May_30_1329,59.9340977108,MP-Perception Experiment,xx05w23re,
321,vgpdm_dyn(5)-lvm(25)_final(1)_out_of_screen.mov,True,left,2,training(2).mov,0,2,2,136,,,,,,,,14:02:24:317,14:02:25:022,14:02:28:025,left,14:02:28:392,,2018_May_30_1329,59.9340977108,MP-Perception Experiment,xx05w23re,
322,vcgpdm_dyn(25)-lvm(15)_final(7).mov,False,left,2,training(37).mov,0,3,3,90,,,,,,,,14:02:29:173,14:02:29:893,14:02:32:896,right,14:02:33:363,,2018_May_30_1329,59.9340977108,MP-Perception Experiment,xx05w23re,
323,training(8).mov,False,right,2,vgpdm_dyn(35)-lvm(5)_final(7).mov,0,4,4,74,,,,,,,,14:02:34:143,14:02:34:864,14:02:37:867,left,14:02:38:400,,2018_May_30_1329,59.9340977108,MP-Perception Experiment,xx05w23re,
324,vcgpdm_dyn(10)-lvm(10)_final(6).mov,False,left,2,training(34).mov,0,5,5,35,,,,,,,,14:02:39:193,14:02:39:902,14:02:42:921,right,14:02:43:354,,2018_May_30_1329,59.9340977108,MP-Perception Experiment,xx05w23re,
325,training(5).mov,False,right,2,vcgpdm_dyn(25)-lvm(35)_final(4).mov,0,6,6,158,,,,,,,,14:02:44:134,14:02:44:855,14:02:47:859,right,14:02:48:309,,2018_May_30_1329,59.9340977108,MP-Perception Experiment,xx05w23re,
326,training(31).mov,True,right,2,vcgpdm_dyn(10)-lvm(30)_final(8).mov,0,7,7,21,,,,,,,,14:02:49:083,14:02:49:810,14:02:52:813,right,14:02:53:214,,2018_May_30_1329,59.9340977108,MP-Perception Experiment,xx05w23re,
327,training(30).mov,False,right,2,vcgpdm_dyn(20)-lvm(15)_final(7).mov,0,8,8,127,,,,,,,,14:02:54:016,14:02:54:714,14:02:57:715,right,14:02:58:166,,2018_May_30_1329,59.9340977108,MP-Perception Experiment,xx05w23re,
328,training(10).mov,True,right,2,dmp_npsi(25)_final(3).mov,0,9,9,125,,,,,,,,14:02:58:948,14:02:59:667,14:03:02:669,right,14:03:02:970,,2018_May_30_1329,59.9340977108,MP-Perception Experiment,xx05w23re,
329,vgpdm_dyn(10)-lvm(20)_final(2).mov,True,left,2,training(7).mov,0,10,10,142,,,,,,,,14:03:03:743,14:03:04:472,14:03:07:474,left,14:03:07:791,,2018_May_30_1329,59.9340977108,MP-Perception Experiment,xx05w23re,
330,tmp_numprim(6)_final(8).mov,True,left,2,training(33).mov,0,11,11,154,,,,,,,,14:03:08:585,14:03:09:294,14:03:12:296,left,14:03:12:763,,2018_May_30_1329,59.9340977108,MP-Perception Experiment,xx05w23re,
331,vgpdm_dyn(20)-lvm(15)_final(2).mov,True,left,2,training(39).mov,0,12,12,23,,,,,,,,14:03:13:555,14:03:14:265,14:03:17:267,left,14:03:20:571,,2018_May_30_1329,59.9340977108,MP-Perception Experiment,xx05w23re,
332,training(5).mov,True,right,2,vgpdm_dyn(5)-lvm(10)_final(8).mov,0,13,13,144,,,,,,,,14:03:21:352,14:03:22:072,14:03:25:091,right,14:03:25:592,,2018_May_30_1329,59.9340977108,MP-Perception Experiment,xx05w23re,
333,training(25).mov,False,right,2,tmp_numprim(4)_final(0).mov,0,14,14,49,,,,,,,,14:03:26:362,14:03:27:093,14:03:30:112,right,14:03:30:529,,2018_May_30_1329,59.9340977108,MP-Perception Experiment,xx05w23re,
334,vcgpdm_dyn(20)-lvm(20)_final(5).mov,False,left,2,training(27).mov,0,15,15,141,,,,,,,,14:03:31:294,14:03:32:030,14:03:35:032,right,14:03:35:433,,2018_May_30_1329,59.9340977108,MP-Perception Experiment,xx05w23re,
335,tmp_numprim(7)_final(9).mov,False,left,2,training(23).mov,0,16,16,97,,,,,,,,14:03:36:219,14:03:36:934,14:03:39:938,right,14:03:40:338,,2018_May_30_1329,59.9340977108,MP-Perception Experiment,xx05w23re,
336,training(38).mov,False,right,2,vgpdm_dyn(5)-lvm(10)_final(8).mov,0,17,17,6,,,,,,,,14:03:41:109,14:03:41:856,14:03:44:841,right,14:03:45:292,,2018_May_30_1329,59.9340977108,MP-Perception Experiment,xx05w23re,
337,vcgpdm_dyn(35)-lvm(25)_final(1).mov,False,left,2,training(41).mov,0,18,18,148,,,,,,,,14:03:46:070,14:03:46:808,14:03:49:794,left,14:03:50:060,,2018_May_30_1329,59.9340977108,MP-Perception Experiment,xx05w23re,
338,training(36).mov,False,right,2,vgpdm_dyn(25)-lvm(35)_final(7).mov,0,19,19,44,,,,,,,,14:03:50:854,14:03:51:562,14:03:54:564,left,14:03:54:831,,2018_May_30_1329,59.9340977108,MP-Perception Experiment,xx05w23re,
339,training(26).mov,True,right,2,vcgpdm_dyn(30)-lvm(30)_final(2).mov,0,20,20,20,,,,,,,,14:03:55:623,14:03:56:350,14:03:59:337,right,14:03:59:788,,2018_May_30_1329,59.9340977108,MP-Perception Experiment,xx05w23re,
340,vgpdm_dyn(35)-lvm(20)_final(2)_out_of_screen.mov,False,left,2,training(24).mov,0,21,21,0,,,,,,,,14:04:00:566,14:04:01:289,14:04:04:291,left,14:04:04:892,,2018_May_30_1329,59.9340977108,MP-Perception Experiment,xx05w23re,
341,training(23).mov,False,right,2,vcgpdm_dyn(25)-lvm(20)_final(0).mov,0,22,22,115,,,,,,,,14:04:05:673,14:04:06:393,14:04:09:412,right,14:04:09:879,,2018_May_30_1329,59.9340977108,MP-Perception Experiment,xx05w23re,
342,vcgpdm_dyn(25)-lvm(30)_final(2).mov,True,left,2,training(22).mov,0,23,23,139,,,,,,,,14:04:10:658,14:04:11:380,14:04:14:384,right,14:04:14:784,,2018_May_30_1329,59.9340977108,MP-Perception Experiment,xx05w23re,
343,vgpdm_dyn(5)-lvm(30)_final(4).mov,False,left,2,training(39).mov,0,24,24,143,,,,,,,,14:04:15:576,14:04:16:285,14:04:19:305,left,14:04:19:955,,2018_May_30_1329,59.9340977108,MP-Perception Experiment,xx05w23re,
344,vcgpdm_dyn(20)-lvm(20)_final(3).mov,False,left,2,training(6).mov,0,25,25,91,,,,,,,,14:04:20:736,14:04:21:456,14:04:24:459,right,14:04:24:892,,2018_May_30_1329,59.9340977108,MP-Perception Experiment,xx05w23re,
345,vcgpdm_dyn(10)-lvm(25)_final(0).mov,False,left,2,training(33).mov,0,26,26,124,,,,,,,,14:04:25:690,14:04:26:393,14:04:29:396,left,14:04:29:980,,2018_May_30_1329,59.9340977108,MP-Perception Experiment,xx05w23re,
346,vcgpdm_dyn(30)-lvm(30)_final(3).mov,True,left,2,training(6).mov,0,27,27,13,,,,,,,,14:04:30:751,14:04:31:499,14:04:34:484,left,14:04:35:018,,2018_May_30_1329,59.9340977108,MP-Perception Experiment,xx05w23re,
347,training(1).mov,True,right,2,dmp_npsi(35)_final(8).mov,0,28,28,81,,,,,,,,14:04:35:812,14:04:36:536,14:04:39:520,left,14:04:39:854,,2018_May_30_1329,59.9340977108,MP-Perception Experiment,xx05w23re,
348,training(3).mov,False,right,2,vcgpdm_dyn(20)-lvm(30)_final(7).mov,0,29,29,122,,,,,,,,14:04:40:635,14:04:41:355,14:04:44:357,right,14:04:45:024,,2018_May_30_1329,59.9340977108,MP-Perception Experiment,xx05w23re,
349,vgpdm_dyn(20)-lvm(5)_final(6).mov,False,left,2,training(3).mov,0,30,30,100,,,,,,,,14:04:45:810,14:04:46:526,14:04:49:514,left,14:04:50:015,,2018_May_30_1329,59.9340977108,MP-Perception Experiment,xx05w23re,
350,vgpdm_dyn(30)-lvm(15)_final(0).mov,True,left,2,training(33).mov,0,31,31,36,,,,,,,,14:04:50:798,14:04:51:532,14:04:54:518,left,14:04:55:085,,2018_May_30_1329,59.9340977108,MP-Perception Experiment,xx05w23re,
351,training(19).mov,True,right,2,vcgpdm_dyn(35)-lvm(30)_final(2).mov,0,32,32,3,,,,,,,,14:04:55:892,14:04:56:587,14:04:59:589,right,14:05:00:206,,2018_May_30_1329,59.9340977108,MP-Perception Experiment,xx05w23re,
352,training(7).mov,False,right,2,dmp_npsi(25)_final(8).mov,0,33,33,96,,,,,,,,14:05:00:977,14:05:01:707,14:05:04:710,right,14:05:05:411,,2018_May_30_1329,59.9340977108,MP-Perception Experiment,xx05w23re,
353,vgpdm_dyn(5)-lvm(20)_final(7).mov,True,left,2,training(21).mov,0,34,34,12,,,,,,,,14:05:06:196,14:05:06:929,14:05:09:915,left,14:05:10:365,,2018_May_30_1329,59.9340977108,MP-Perception Experiment,xx05w23re,
354,training(17).mov,True,right,2,vgpdm_dyn(35)-lvm(15)_final(0)_out_of_screen.mov,0,35,35,145,,,,,,,,14:05:11:137,14:05:11:866,14:05:14:886,right,14:05:15:269,,2018_May_30_1329,59.9340977108,MP-Perception Experiment,xx05w23re,
355,vgpdm_dyn(35)-lvm(5)_final(9).mov,False,left,2,training(1).mov,0,36,36,131,,,,,,,,14:05:16:049,14:05:16:770,14:05:19:773,right,14:05:20:173,,2018_May_30_1329,59.9340977108,MP-Perception Experiment,xx05w23re,
356,vgpdm_dyn(5)-lvm(35)_final(2)_bad.mov,True,left,2,training(22).mov,0,37,37,50,,,,,,,,14:05:20:949,14:05:21:674,14:05:24:678,left,14:05:25:045,,2018_May_30_1329,59.9340977108,MP-Perception Experiment,xx05w23re,
357,training(35).mov,True,right,2,tmp_numprim(5)_final(9).mov,0,38,38,33,,,,,,,,14:05:25:826,14:05:26:546,14:05:29:564,right,14:05:29:914,,2018_May_30_1329,59.9340977108,MP-Perception Experiment,xx05w23re,
358,vgpdm_dyn(30)-lvm(15)_final(2).mov,True,left,2,training(39).mov,0,39,39,106,,,,,,,,14:05:30:699,14:05:31:431,14:05:34:417,left,14:05:34:751,,2018_May_30_1329,59.9340977108,MP-Perception Experiment,xx05w23re,
359,training(9).mov,True,right,2,vgpdm_dyn(10)-lvm(15)_final(6).mov,0,40,40,153,,,,,,,,14:05:35:532,14:05:36:252,14:05:39:254,right,14:05:39:521,,2018_May_30_1329,59.9340977108,MP-Perception Experiment,xx05w23re,
360,vgpdm_dyn(35)-lvm(5)_final(8).mov,True,left,2,training(11).mov,0,41,41,72,,,,,,,,14:05:40:294,14:05:41:025,14:05:44:011,left,14:05:44:512,,2018_May_30_1329,59.9340977108,MP-Perception Experiment,xx05w23re,
361,vgpdm_dyn(20)-lvm(20)_final(7).mov,False,left,2,training(0).mov,0,42,42,86,,,,,,,,14:05:45:724,14:05:46:230,14:05:49:015,right,14:05:49:716,,2018_May_30_1329,59.9340977108,MP-Perception Experiment,xx05w23re,
362,training(19).mov,False,right,2,vgpdm_dyn(15)-lvm(35)_final(8).mov,0,43,43,102,,,,,,,,14:05:50:506,14:05:51:217,14:05:54:219,left,14:05:54:820,,2018_May_30_1329,59.9340977108,MP-Perception Experiment,xx05w23re,
363,training(16).mov,False,right,2,vgpdm_dyn(25)-lvm(20)_final(8).mov,0,44,44,121,,,,,,,,14:05:55:603,14:05:56:321,14:05:59:325,left,14:05:59:842,,2018_May_30_1329,59.9340977108,MP-Perception Experiment,xx05w23re,
364,vgpdm_dyn(20)-lvm(35)_final(5).mov,True,left,2,training(14).mov,0,45,45,151,,,,,,,,14:06:00:621,14:06:01:343,14:06:04:362,left,14:06:04:862,,2018_May_30_1329,59.9340977108,MP-Perception Experiment,xx05w23re,
365,vcgpdm_dyn(35)-lvm(10)_final(0).mov,True,left,2,training(40).mov,0,46,46,103,,,,,,,,14:06:05:644,14:06:06:363,14:06:09:366,left,14:06:09:883,,2018_May_30_1329,59.9340977108,MP-Perception Experiment,xx05w23re,
366,training(2).mov,True,right,2,vgpdm_dyn(30)-lvm(5)_final(5).mov,0,47,47,76,,,,,,,,14:06:10:649,14:06:11:401,14:06:14:387,left,14:06:14:787,,2018_May_30_1329,59.9340977108,MP-Perception Experiment,xx05w23re,
367,training(27).mov,False,right,2,vgpdm_dyn(20)-lvm(5)_final(3).mov,0,48,48,51,,,,,,,,14:06:15:564,14:06:16:289,14:06:19:290,right,14:06:19:723,,2018_May_30_1329,59.9340977108,MP-Perception Experiment,xx05w23re,
368,vgpdm_dyn(20)-lvm(30)_final(2).mov,True,left,2,training(17).mov,0,49,49,119,,,,,,,,14:06:20:501,14:06:21:225,14:06:24:227,left,14:06:24:444,,2018_May_30_1329,59.9340977108,MP-Perception Experiment,xx05w23re,
369,dmp_npsi(25)_final(1).mov,True,left,2,training(14).mov,0,50,50,60,,,,,,,,14:06:25:242,14:06:25:945,14:06:28:933,left,14:06:29:316,,2018_May_30_1329,59.9340977108,MP-Perception Experiment,xx05w23re,
370,training(23).mov,True,right,2,vcgpdm_dyn(25)-lvm(30)_final(3).mov,0,51,51,156,,,,,,,,14:06:30:097,14:06:30:818,14:06:33:821,left,14:06:34:421,,2018_May_30_1329,59.9340977108,MP-Perception Experiment,xx05w23re,
371,training(36).mov,False,right,2,vcgpdm_dyn(10)-lvm(20)_final(6).mov,0,52,52,55,,,,,,,,14:06:35:211,14:06:35:923,14:06:38:925,right,14:06:39:359,,2018_May_30_1329,59.9340977108,MP-Perception Experiment,xx05w23re,
372,training(23).mov,False,right,2,vgpdm_dyn(20)-lvm(35)_final(1).mov,0,53,53,30,,,,,,,,14:06:40:143,14:06:40:860,14:06:43:862,right,14:06:44:346,,2018_May_30_1329,59.9340977108,MP-Perception Experiment,xx05w23re,
373,vcgpdm_dyn(30)-lvm(10)_final(7).mov,True,left,2,training(24).mov,0,54,54,111,,,,,,,,14:06:45:700,14:06:46:214,14:06:48:867,left,14:06:49:350,,2018_May_30_1329,59.9340977108,MP-Perception Experiment,xx05w23re,
374,training(6).mov,True,right,2,vcgpdm_dyn(30)-lvm(5)_final(6).mov,0,55,55,75,,,,,,,,14:06:50:131,14:06:50:852,14:06:53:872,right,14:06:54:239,,2018_May_30_1329,59.9340977108,MP-Perception Experiment,xx05w23re,
375,vgpdm_dyn(30)-lvm(35)_final(6).mov,True,left,2,training(33).mov,0,56,56,48,,,,,,,,14:06:55:029,14:06:55:740,14:06:58:742,left,14:06:59:109,,2018_May_30_1329,59.9340977108,MP-Perception Experiment,xx05w23re,
376,training(18).mov,True,right,2,vcgpdm_dyn(35)-lvm(5)_final(6).mov,0,57,57,133,,,,,,,,14:06:59:880,14:07:00:610,14:07:03:613,left,14:07:04:313,,2018_May_30_1329,59.9340977108,MP-Perception Experiment,xx05w23re,
377,vgpdm_dyn(25)-lvm(30)_final(2).mov,True,left,2,training(31).mov,0,58,58,19,,,,,,,,14:07:05:103,14:07:05:814,14:07:08:816,left,14:07:09:233,,2018_May_30_1329,59.9340977108,MP-Perception Experiment,xx05w23re,
378,vgpdm_dyn(15)-lvm(20)_final(4)_out_of_screen.mov,False,left,2,training(30).mov,0,59,59,27,,,,,,,,14:07:09:998,14:07:10:734,14:07:13:737,left,14:07:14:154,,2018_May_30_1329,59.9340977108,MP-Perception Experiment,xx05w23re,
379,vgpdm_dyn(5)-lvm(20)_final(6).mov,False,left,2,training(48).mov,0,60,60,107,,,,,,,,14:07:14:960,14:07:15:655,14:07:18:657,left,14:07:19:108,,2018_May_30_1329,59.9340977108,MP-Perception Experiment,xx05w23re,
380,training(31).mov,False,right,2,vcgpdm_dyn(30)-lvm(25)_final(1).mov,0,61,61,98,,,,,,,,14:07:19:887,14:07:20:626,14:07:23:630,right,14:07:24:014,,2018_May_30_1329,59.9340977108,MP-Perception Experiment,xx05w23re,
381,training(2).mov,True,right,2,vcgpdm_dyn(20)-lvm(5)_final(2).mov,0,62,62,43,,,,,,,,14:07:24:791,14:07:25:516,14:07:28:518,right,14:07:28:935,,2018_May_30_1329,59.9340977108,MP-Perception Experiment,xx05w23re,
382,tmp_numprim(7)_final(1).mov,True,left,2,training(20).mov,0,63,63,77,,,,,,,,14:07:29:730,14:07:30:436,14:07:33:439,left,14:07:33:856,,2018_May_30_1329,59.9340977108,MP-Perception Experiment,xx05w23re,
383,vcgpdm_dyn(25)-lvm(25)_final(2).mov,False,left,2,training(23).mov,0,64,64,155,,,,,,,,14:07:34:644,14:07:35:357,14:07:38:376,right,14:07:38:910,,2018_May_30_1329,59.9340977108,MP-Perception Experiment,xx05w23re,
384,training(23).mov,False,right,2,vcgpdm_dyn(5)-lvm(25)_final(7).mov,0,65,65,128,,,,,,,,14:07:39:683,14:07:40:428,14:07:43:415,right,14:07:43:932,,2018_May_30_1329,59.9340977108,MP-Perception Experiment,xx05w23re,
385,vcgpdm_dyn(15)-lvm(35)_final(8).mov,False,left,2,training(25).mov,0,66,66,89,,,,,,,,14:07:45:688,14:07:45:688,14:07:48:452,right,14:07:48:936,,2018_May_30_1329,59.9340977108,MP-Perception Experiment,xx05w23re,
386,vcgpdm_dyn(30)-lvm(10)_final(9).mov,True,left,2,training(29).mov,0,67,67,25,,,,,,,,14:07:49:729,14:07:50:437,14:07:53:440,left,14:07:53:940,,2018_May_30_1329,59.9340977108,MP-Perception Experiment,xx05w23re,
387,vcgpdm_dyn(20)-lvm(35)_final(7).mov,True,left,2,training(19).mov,0,68,68,108,,,,,,,,14:07:54:738,14:07:55:441,14:07:58:441,left,14:08:00:161,,2018_May_30_1329,59.9340977108,MP-Perception Experiment,xx05w23re,
388,training(19).mov,False,right,2,vgpdm_dyn(5)-lvm(15)_final(3).mov,0,69,69,70,,,,,,,,14:08:00:951,14:08:01:678,14:08:04:664,right,14:08:05:248,,2018_May_30_1329,59.9340977108,MP-Perception Experiment,xx05w23re,
389,training(38).mov,True,right,2,vcgpdm_dyn(15)-lvm(25)_final(9).mov,0,70,70,26,,,,,,,,14:08:06:057,14:08:06:749,14:08:09:737,left,14:08:10:421,,2018_May_30_1329,59.9340977108,MP-Perception Experiment,xx05w23re,
390,training(35).mov,True,right,2,vgpdm_dyn(30)-lvm(15)_final(2).mov,0,71,71,147,,,,,,,,14:08:11:184,14:08:11:922,14:08:14:941,right,14:08:15:375,,2018_May_30_1329,59.9340977108,MP-Perception Experiment,xx05w23re,
391,training(8).mov,True,right,2,vcgpdm_dyn(15)-lvm(5)_final(2).mov,0,72,72,71,,,,,,,,14:08:16:171,14:08:16:876,14:08:19:879,right,14:08:21:414,,2018_May_30_1329,59.9340977108,MP-Perception Experiment,xx05w23re,
392,training(14).mov,True,right,2,vgpdm_dyn(5)-lvm(15)_final(5).mov,0,73,73,29,,,,,,,,14:08:22:194,14:08:22:915,14:08:25:934,right,14:08:26:401,,2018_May_30_1329,59.9340977108,MP-Perception Experiment,xx05w23re,
393,training(16).mov,True,right,2,vcgpdm_dyn(10)-lvm(15)_final(9).mov,0,74,74,126,,,,,,,,14:08:27:189,14:08:27:919,14:08:30:921,right,14:08:32:006,,2018_May_30_1329,59.9340977108,MP-Perception Experiment,xx05w23re,
394,vcgpdm_dyn(30)-lvm(20)_final(1).mov,True,left,2,training(3).mov,0,75,75,112,,,,,,,,14:08:32:785,14:08:33:507,14:08:36:510,right,14:08:36:961,,2018_May_30_1329,59.9340977108,MP-Perception Experiment,xx05w23re,
395,training(39).mov,True,right,2,vcgpdm_dyn(5)-lvm(15)_final(7).mov,0,76,76,42,,,,,,,,14:08:37:755,14:08:38:478,14:08:41:464,right,14:08:41:948,,2018_May_30_1329,59.9340977108,MP-Perception Experiment,xx05w23re,
396,map_cgpdm_final(2).mov,False,left,2,training(4).mov,0,77,77,80,,,,,,,,14:08:42:735,14:08:43:449,14:08:46:452,right,14:08:47:067,,2018_May_30_1329,59.9340977108,MP-Perception Experiment,xx05w23re,
397,vgpdm_dyn(15)-lvm(30)_final(7).mov,False,left,2,training(25).mov,0,78,78,68,,,,,,,,14:08:47:821,14:08:48:568,14:08:51:571,left,14:08:52:171,,2018_May_30_1329,59.9340977108,MP-Perception Experiment,xx05w23re,
398,training(3).mov,False,right,2,vcgpdm_dyn(10)-lvm(30)_final(9).mov,0,79,79,87,,,,,,,,14:08:52:963,14:08:53:673,14:08:56:676,right,14:08:56:693,,2018_May_30_1329,59.9340977108,MP-Perception Experiment,xx05w23re,
399,vgpdm_dyn(30)-lvm(15)_final(7).mov,False,left,2,training(5).mov,0,80,80,95,,,,,,,,14:08:57:481,14:08:58:195,14:09:01:181,right,14:09:01:849,,2018_May_30_1329,59.9340977108,MP-Perception Experiment,xx05w23re,
400,vcgpdm_dyn(15)-lvm(35)_final(9).mov,True,left,2,training(29).mov,0,81,81,2,,,,,,,,14:09:02:642,14:09:03:366,14:09:06:369,left,14:09:06:819,,2018_May_30_1329,59.9340977108,MP-Perception Experiment,xx05w23re,
401,map_gpdm_final(5).mov,True,left,2,training(20).mov,0,82,82,152,,,,,,,,14:09:07:596,14:09:08:320,14:09:11:341,left,14:09:11:708,,2018_May_30_1329,59.9340977108,MP-Perception Experiment,xx05w23re,
402,training(48).mov,True,right,2,vcgpdm_dyn(25)-lvm(35)_final(4).mov,0,83,83,110,,,,,,,,14:09:12:486,14:09:13:209,14:09:16:228,right,14:09:16:628,,2018_May_30_1329,59.9340977108,MP-Perception Experiment,xx05w23re,
403,vgpdm_dyn(10)-lvm(30)_final(7).mov,True,left,2,training(30).mov,0,84,84,99,,,,,,,,14:09:17:419,14:09:18:129,14:09:21:132,left,14:09:21:499,,2018_May_30_1329,59.9340977108,MP-Perception Experiment,xx05w23re,
404,training(31).mov,False,right,2,vcgpdm_dyn(25)-lvm(10)_final(8).mov,0,85,85,109,,,,,,,,14:09:22:275,14:09:23:016,14:09:26:002,right,14:09:28:523,,2018_May_30_1329,59.9340977108,MP-Perception Experiment,xx05w23re,
405,training(16).mov,False,right,2,map_gpdm_final(2).mov,0,86,86,118,,,,,,,,14:09:29:311,14:09:30:040,14:09:33:026,right,14:09:33:976,,2018_May_30_1329,59.9340977108,MP-Perception Experiment,xx05w23re,
406,training(11).mov,True,right,2,dmp_npsi(50)_final(8).mov,0,87,87,65,,,,,,,,14:09:34:742,14:09:35:478,14:09:38:478,left,14:09:38:829,,2018_May_30_1329,59.9340977108,MP-Perception Experiment,xx05w23re,
407,training(24).mov,False,right,2,vcgpdm_dyn(35)-lvm(5)_final(7).mov,0,88,88,117,,,,,,,,14:09:39:620,14:09:40:330,14:09:43:332,right,14:09:43:766,,2018_May_30_1329,59.9340977108,MP-Perception Experiment,xx05w23re,
408,training(30).mov,False,right,2,vcgpdm_dyn(10)-lvm(35)_final(2).mov,0,89,89,59,,,,,,,,14:09:45:617,14:09:45:617,14:09:48:256,right,14:09:49:724,,2018_May_30_1329,59.9340977108,MP-Perception Experiment,xx05w23re,
409,dmp_npsi(25)_final(1).mov,True,left,2,training(31).mov,0,90,90,83,,,,,,,,14:09:50:488,14:09:51:225,14:09:54:227,left,14:09:54:578,,2018_May_30_1329,59.9340977108,MP-Perception Experiment,xx05w23re,
410,training(20).mov,False,right,2,vcgpdm_dyn(20)-lvm(5)_final(2).mov,0,91,91,15,,,,,,,,14:09:55:404,14:09:56:079,14:09:59:098,right,14:09:59:548,,2018_May_30_1329,59.9340977108,MP-Perception Experiment,xx05w23re,
411,vgpdm_dyn(20)-lvm(5)_final(9).mov,False,left,2,training(23).mov,0,92,92,146,,,,,,,,14:10:00:340,14:10:01:049,14:10:04:053,right,14:10:04:503,,2018_May_30_1329,59.9340977108,MP-Perception Experiment,xx05w23re,
412,vgpdm_dyn(15)-lvm(25)_final(5).mov,False,left,2,training(14).mov,0,93,93,150,,,,,,,,14:10:05:278,14:10:06:004,14:10:09:023,right,14:10:09:574,,2018_May_30_1329,59.9340977108,MP-Perception Experiment,xx05w23re,
413,training(2).mov,True,right,2,vgpdm_dyn(30)-lvm(10)_final(6).mov,0,94,94,39,,,,,,,,14:10:10:357,14:10:11:092,14:10:14:077,left,14:10:14:394,,2018_May_30_1329,59.9340977108,MP-Perception Experiment,xx05w23re,
414,training(34).mov,True,right,2,vcgpdm_dyn(30)-lvm(15)_final(3).mov,0,95,95,14,,,,,,,,14:10:15:176,14:10:15:912,14:10:18:898,left,14:10:19:298,,2018_May_30_1329,59.9340977108,MP-Perception Experiment,xx05w23re,
415,training(48).mov,False,right,2,vcgpdm_dyn(25)-lvm(35)_final(6).mov,0,96,96,135,,,,,,,,14:10:20:076,14:10:20:800,14:10:23:803,right,14:10:24:187,,2018_May_30_1329,59.9340977108,MP-Perception Experiment,xx05w23re,
416,training(25).mov,True,right,2,vcgpdm_dyn(25)-lvm(15)_final(3).mov,0,97,97,24,,,,,,,,14:10:24:973,14:10:25:688,14:10:28:688,left,14:10:29:072,,2018_May_30_1329,59.9340977108,MP-Perception Experiment,xx05w23re,
417,vcgpdm_dyn(25)-lvm(10)_final(1).mov,True,left,2,training(39).mov,0,98,98,130,,,,,,,,14:10:29:863,14:10:30:590,14:10:33:576,left,14:10:33:609,,2018_May_30_1329,59.9340977108,MP-Perception Experiment,xx05w23re,
418,training(39).mov,False,right,2,vgpdm_dyn(20)-lvm(35)_final(8).mov,0,99,99,101,,,,,,,,14:10:34:404,14:10:35:110,14:10:38:114,left,14:10:39:999,,2018_May_30_1329,59.9340977108,MP-Perception Experiment,xx05w23re,
419,vcgpdm_dyn(15)-lvm(15)_final(0).mov,True,left,2,training(7).mov,0,100,100,92,,,,,,,,14:10:40:777,14:10:41:502,14:10:44:487,left,14:10:44:854,,2018_May_30_1329,59.9340977108,MP-Perception Experiment,xx05w23re,
420,training(6).mov,True,right,2,vgpdm_dyn(35)-lvm(25)_final(2).mov,0,101,101,113,,,,,,,,14:10:45:649,14:10:46:355,14:10:49:358,left,14:10:49:858,,2018_May_30_1329,59.9340977108,MP-Perception Experiment,xx05w23re,
421,training(32).mov,False,right,2,vgpdm_dyn(15)-lvm(35)_final(1).mov,0,102,102,116,,,,,,,,14:10:50:638,14:10:51:376,14:10:54:362,left,14:10:54:829,,2018_May_30_1329,59.9340977108,MP-Perception Experiment,xx05w23re,
422,vcgpdm_dyn(20)-lvm(15)_final(4).mov,True,left,2,training(28).mov,0,103,103,67,,,,,,,,14:10:55:626,14:10:56:331,14:10:59:334,left,14:10:59:901,,2018_May_30_1329,59.9340977108,MP-Perception Experiment,xx05w23re,
423,training(38).mov,True,right,2,vgpdm_dyn(30)-lvm(20)_final(9).mov,0,104,104,28,,,,,,,,14:11:00:683,14:11:01:402,14:11:04:404,left,14:11:05:072,,2018_May_30_1329,59.9340977108,MP-Perception Experiment,xx05w23re,
424,training(12).mov,True,right,2,vcgpdm_dyn(20)-lvm(30)_final(9).mov,0,105,105,41,,,,,,,,14:11:05:875,14:11:06:573,14:11:09:575,left,14:11:10:126,,2018_May_30_1329,59.9340977108,MP-Perception Experiment,xx05w23re,
425,vcgpdm_dyn(5)-lvm(10)_final(4).mov,True,left,2,training(4).mov,0,106,106,137,,,,,,,,14:11:10:910,14:11:11:660,14:11:14:647,left,14:11:14:997,,2018_May_30_1329,59.9340977108,MP-Perception Experiment,xx05w23re,
426,vcgpdm_dyn(5)-lvm(20)_final(4).mov,False,left,2,training(35).mov,0,107,107,46,,,,,,,,14:11:15:784,14:11:16:498,14:11:19:499,left,14:11:19:849,,2018_May_30_1329,59.9340977108,MP-Perception Experiment,xx05w23re,
427,vgpdm_dyn(20)-lvm(25)_final(2).mov,False,left,2,training(34).mov,0,108,108,56,,,,,,,,14:11:20:630,14:11:21:351,14:11:24:353,left,14:11:24:920,,2018_May_30_1329,59.9340977108,MP-Perception Experiment,xx05w23re,
428,training(8).mov,False,right,2,vcgpdm_dyn(15)-lvm(10)_final(5).mov,0,109,109,149,,,,,,,,14:11:25:687,14:11:26:438,14:11:29:442,left,14:11:29:843,,2018_May_30_1329,59.9340977108,MP-Perception Experiment,xx05w23re,
429,training(1).mov,False,right,2,vgpdm_dyn(20)-lvm(25)_final(9).mov,0,110,110,132,,,,,,,,14:11:30:620,14:11:31:345,14:11:34:347,right,14:11:34:748,,2018_May_30_1329,59.9340977108,MP-Perception Experiment,xx05w23re,
430,training(13).mov,True,right,2,vcgpdm_dyn(15)-lvm(30)_final(7).mov,0,111,111,157,,,,,,,,14:11:35:533,14:11:36:249,14:11:39:268,left,14:11:39:752,,2018_May_30_1329,59.9340977108,MP-Perception Experiment,xx05w23re,
431,training(0).mov,True,right,2,vgpdm_dyn(15)-lvm(25)_final(2).mov,0,112,112,120,,,,,,,,14:11:40:537,14:11:41:253,14:11:44:255,right,14:11:45:156,,2018_May_30_1329,59.9340977108,MP-Perception Experiment,xx05w23re,
432,training(25).mov,False,right,2,vgpdm_dyn(20)-lvm(10)_final(3)_out_of_screen.mov,0,113,113,7,,,,,,,,14:11:45:929,14:11:46:657,14:11:49:661,right,14:11:50:444,,2018_May_30_1329,59.9340977108,MP-Perception Experiment,xx05w23re,
433,vgpdm_dyn(15)-lvm(30)_final(2).mov,False,left,2,training(40).mov,0,114,114,32,,,,,,,,14:11:51:224,14:11:51:946,14:11:54:948,left,14:11:55:732,,2018_May_30_1329,59.9340977108,MP-Perception Experiment,xx05w23re,
434,vcgpdm_dyn(35)-lvm(5)_final(2).mov,False,left,2,training(6).mov,0,115,115,34,,,,,,,,14:11:56:512,14:11:57:233,14:12:00:236,left,14:12:00:903,,2018_May_30_1329,59.9340977108,MP-Perception Experiment,xx05w23re,
435,vgpdm_dyn(30)-lvm(35)_final(8).mov,True,left,2,training(23).mov,0,116,116,134,,,,,,,,14:12:01:686,14:12:02:421,14:12:05:408,right,14:12:06:025,,2018_May_30_1329,59.9340977108,MP-Perception Experiment,xx05w23re,
436,vcgpdm_dyn(20)-lvm(30)_final(1).mov,True,left,2,training(38).mov,0,117,117,53,,,,,,,,14:12:06:796,14:12:07:541,14:12:10:527,left,14:12:11:211,,2018_May_30_1329,59.9340977108,MP-Perception Experiment,xx05w23re,
437,training(19).mov,True,right,2,vgpdm_dyn(10)-lvm(5)_final(6).mov,0,118,118,18,,,,,,,,14:12:11:992,14:12:12:712,14:12:15:714,right,14:12:16:165,,2018_May_30_1329,59.9340977108,MP-Perception Experiment,xx05w23re,
438,training(35).mov,False,right,2,vcgpdm_dyn(20)-lvm(25)_final(1).mov,0,119,119,63,,,,,,,,14:12:16:952,14:12:17:666,14:12:20:653,right,14:12:21:087,,2018_May_30_1329,59.9340977108,MP-Perception Experiment,xx05w23re,
439,vcgpdm_dyn(20)-lvm(5)_final(7).mov,True,left,2,training(34).mov,0,120,120,22,,,,,,,,14:12:22:014,14:12:22:589,14:12:25:608,left,14:12:26:042,,2018_May_30_1329,59.9340977108,MP-Perception Experiment,xx05w23re,
440,vcgpdm_dyn(25)-lvm(15)_final(8).mov,True,left,2,training(12).mov,0,121,121,8,,,,,,,,14:12:26:858,14:12:27:543,14:12:30:562,left,14:12:30:979,,2018_May_30_1329,59.9340977108,MP-Perception Experiment,xx05w23re,
441,vgpdm_dyn(15)-lvm(30)_final(2).mov,False,left,2,training(11).mov,0,122,122,10,,,,,,,,14:12:31:747,14:12:32:480,14:12:35:483,left,14:12:35:967,,2018_May_30_1329,59.9340977108,MP-Perception Experiment,xx05w23re,
442,training(29).mov,False,right,2,vcgpdm_dyn(15)-lvm(5)_final(5).mov,0,123,123,104,,,,,,,,14:12:36:749,14:12:37:468,14:12:40:471,right,14:12:40:872,,2018_May_30_1329,59.9340977108,MP-Perception Experiment,xx05w23re,
443,vcgpdm_dyn(35)-lvm(30)_final(8).mov,True,left,2,training(41).mov,0,124,124,40,,,,,,,,14:12:41:647,14:12:42:373,14:12:45:375,left,14:12:46:343,,2018_May_30_1329,59.9340977108,MP-Perception Experiment,xx05w23re,
444,training(27).mov,True,right,2,vgpdm_dyn(20)-lvm(20)_final(2).mov,0,125,125,138,,,,,,,,14:12:47:131,14:12:47:860,14:12:50:846,left,14:12:51:330,,2018_May_30_1329,59.9340977108,MP-Perception Experiment,xx05w23re,
445,vgpdm_dyn(10)-lvm(35)_final(1).mov,False,left,2,training(29).mov,0,126,126,82,,,,,,,,14:12:52:110,14:12:52:831,14:12:55:834,left,14:12:56:318,,2018_May_30_1329,59.9340977108,MP-Perception Experiment,xx05w23re,
446,training(33).mov,False,right,2,map_gpdm_final(9).mov,0,127,127,1,,,,,,,,14:12:57:105,14:12:57:835,14:13:00:838,right,14:13:00:987,,2018_May_30_1329,59.9340977108,MP-Perception Experiment,xx05w23re,
447,training(2).mov,False,right,2,vgpdm_dyn(25)-lvm(20)_final(6).mov,0,128,128,69,,,,,,,,14:13:01:755,14:13:02:505,14:13:05:491,right,14:13:05:674,,2018_May_30_1329,59.9340977108,MP-Perception Experiment,xx05w23re,
448,vgpdm_dyn(15)-lvm(15)_final(2).mov,True,left,2,training(4).mov,0,129,129,88,,,,,,,,14:13:06:451,14:13:07:175,14:13:10:163,left,14:13:10:530,,2018_May_30_1329,59.9340977108,MP-Perception Experiment,xx05w23re,
449,training(25).mov,False,right,2,vgpdm_dyn(15)-lvm(35)_final(7).mov,0,130,130,94,,,,,,,,14:13:11:329,14:13:12:031,14:13:15:034,right,14:13:15:485,,2018_May_30_1329,59.9340977108,MP-Perception Experiment,xx05w23re,
450,training(19).mov,False,right,2,map_gpdm_final(6).mov,0,131,131,58,,,,,,,,14:13:16:282,14:13:16:986,14:13:19:988,right,14:13:20:356,,2018_May_30_1329,59.9340977108,MP-Perception Experiment,xx05w23re,
451,vcgpdm_dyn(35)-lvm(20)_final(5).mov,True,left,2,training(10).mov,0,132,132,52,,,,,,,,14:13:21:137,14:13:21:873,14:13:24:859,right,14:13:25:360,,2018_May_30_1329,59.9340977108,MP-Perception Experiment,xx05w23re,
452,vcgpdm_dyn(15)-lvm(10)_final(0).mov,False,left,2,training(7).mov,0,133,133,31,,,,,,,,14:13:26:150,14:13:26:861,14:13:29:863,right,14:13:30:247,,2018_May_30_1329,59.9340977108,MP-Perception Experiment,xx05w23re,
453,dmp_npsi(45)_final(1).mov,False,left,2,training(15).mov,0,134,134,61,,,,,,,,14:13:31:031,14:13:31:748,14:13:34:751,right,14:13:35:169,,2018_May_30_1329,59.9340977108,MP-Perception Experiment,xx05w23re,
454,dmp_npsi(40)_final(9).mov,True,left,2,training(24).mov,0,135,135,57,,,,,,,,14:13:35:950,14:13:36:670,14:13:39:689,left,14:13:40:473,,2018_May_30_1329,59.9340977108,MP-Perception Experiment,xx05w23re,
455,vgpdm_dyn(10)-lvm(30)_final(2).mov,False,left,2,training(10).mov,0,136,136,78,,,,,,,,14:13:41:254,14:13:41:974,14:13:44:993,left,14:13:45:393,,2018_May_30_1329,59.9340977108,MP-Perception Experiment,xx05w23re,
456,training(30).mov,True,right,2,dmp_npsi(35)_final(1).mov,0,137,137,105,,,,,,,,14:13:46:181,14:13:46:909,14:13:49:896,right,14:13:49:946,,2018_May_30_1329,59.9340977108,MP-Perception Experiment,xx05w23re,
457,training(26).mov,True,right,2,tmp_numprim(8)_final(8).mov,0,138,138,16,,,,,,,,14:13:50:728,14:13:51:447,14:13:54:450,left,14:13:54:517,,2018_May_30_1329,59.9340977108,MP-Perception Experiment,xx05w23re,
458,vcgpdm_dyn(15)-lvm(35)_final(0).mov,False,left,2,training(25).mov,0,139,139,114,,,,,,,,14:13:55:309,14:13:56:018,14:13:59:005,left,14:13:59:873,,2018_May_30_1329,59.9340977108,MP-Perception Experiment,xx05w23re,
459,vcgpdm_dyn(15)-lvm(25)_final(8).mov,False,left,2,training(31).mov,0,140,140,93,,,,,,,,14:14:00:648,14:14:01:374,14:14:04:376,left,14:14:05:127,,2018_May_30_1329,59.9340977108,MP-Perception Experiment,xx05w23re,
460,vcgpdm_dyn(15)-lvm(10)_final(0).mov,True,left,2,training(25).mov,0,141,141,9,,,,,,,,14:14:05:912,14:14:06:645,14:14:09:632,left,14:14:10:065,,2018_May_30_1329,59.9340977108,MP-Perception Experiment,xx05w23re,
461,training(16).mov,False,right,2,vgpdm_dyn(10)-lvm(10)_final(1).mov,0,142,142,66,,,,,,,,14:14:10:861,14:14:11:566,14:14:14:586,right,14:14:15:103,,2018_May_30_1329,59.9340977108,MP-Perception Experiment,xx05w23re,
462,training(23).mov,True,right,2,vcgpdm_dyn(25)-lvm(20)_final(8).mov,0,143,143,62,,,,,,,,14:14:15:891,14:14:16:604,14:14:19:606,right,14:14:20:440,,2018_May_30_1329,59.9340977108,MP-Perception Experiment,xx05w23re,
463,vgpdm_dyn(25)-lvm(5)_final(7).mov,False,left,2,training(0).mov,0,144,144,85,,,,,,,,14:14:21:214,14:14:21:941,14:14:24:945,right,14:14:25:345,,2018_May_30_1329,59.9340977108,MP-Perception Experiment,xx05w23re,
464,vgpdm_dyn(35)-lvm(25)_final(1).mov,True,left,2,training(10).mov,0,145,145,45,,,,,,,,14:14:26:143,14:14:26:846,14:14:29:849,left,14:14:30:633,,2018_May_30_1329,59.9340977108,MP-Perception Experiment,xx05w23re,
465,training(24).mov,True,right,2,vcgpdm_dyn(30)-lvm(30)_final(9).mov,0,146,146,84,,,,,,,,14:14:31:410,14:14:32:135,14:14:35:153,right,14:14:35:821,,2018_May_30_1329,59.9340977108,MP-Perception Experiment,xx05w23re,
466,training(23).mov,True,right,2,tmp_numprim(9)_final(4).mov,0,147,147,37,,,,,,,,14:14:36:593,14:14:37:336,14:14:40:322,left,14:14:40:623,,2018_May_30_1329,59.9340977108,MP-Perception Experiment,xx05w23re,
467,training(17).mov,True,right,2,vgpdm_dyn(35)-lvm(35)_final(7).mov,0,148,148,123,,,,,,,,14:14:41:417,14:14:42:140,14:14:45:127,left,14:14:45:661,,2018_May_30_1329,59.9340977108,MP-Perception Experiment,xx05w23re,
468,vgpdm_dyn(10)-lvm(15)_final(6).mov,False,left,2,training(13).mov,0,149,149,47,,,,,,,,14:14:46:444,14:14:47:162,14:14:50:150,left,14:14:50:517,,2018_May_30_1329,59.9340977108,MP-Perception Experiment,xx05w23re,
