trial_number,right,flipped,correct,block,left,trials.thisRepN,trials.thisTrialN,trials.thisN,trials.thisIndex,flipwelcome.keys,flipwelcome.corr,flipwelcome.rt,flippreparations.keys,flippreparations.rt,flipInstructions.keys,flipInstructions.rt,time_at_fixation_cross_onset,time_at_videoonset,time_at_videoend,participant_key_response,time_at_key_response,key_resp_4.keys,date,frameRate,expName,participant,
,,,,,,,,,,space,0,108.659041291,,,,,,,,,,,2018_May_30_1627,59.9593151659,MP-Perception Experiment,xx06w28,
,,,,,,,,,,,,,space,16.0153257432,,,,,,,,,2018_May_30_1627,59.9593151659,MP-Perception Experiment,xx06w28,
,,,,,,,,,,,,,,,space,10.3924019105,,,,,,,2018_May_30_1627,59.9593151659,MP-Perception Experiment,xx06w28,
1,vcgpdm_dyn(15)-lvm(15)_final(0).mov,True,left,0,training(18).mov,0,0,0,53,,,,,,,,16:29:37:081,16:29:37:687,16:29:40:672,left,16:29:40:839,,2018_May_30_1627,59.9593151659,MP-Perception Experiment,xx06w28,
2,training(34).mov,False,right,0,vgpdm_dyn(20)-lvm(5)_final(6).mov,0,1,1,63,,,,,,,,16:29:41:625,16:29:42:340,16:29:45:343,right,16:29:46:044,,2018_May_30_1627,59.9593151659,MP-Perception Experiment,xx06w28,
3,vcgpdm_dyn(30)-lvm(10)_final(1).mov,True,left,0,training(23).mov,0,2,2,3,,,,,,,,16:29:46:832,16:29:47:544,16:29:50:545,right,16:29:52:380,,2018_May_30_1627,59.9593151659,MP-Perception Experiment,xx06w28,
4,training(9).mov,False,right,0,vgpdm_dyn(10)-lvm(30)_final(2).mov,0,3,3,60,,,,,,,,16:29:53:153,16:29:53:881,16:29:56:885,right,16:29:57:535,,2018_May_30_1627,59.9593151659,MP-Perception Experiment,xx06w28,
5,training(11).mov,False,right,0,vcgpdm_dyn(35)-lvm(10)_final(7).mov,0,4,4,71,,,,,,,,16:29:58:313,16:29:59:036,16:30:02:039,right,16:30:03:724,,2018_May_30_1627,59.9593151659,MP-Perception Experiment,xx06w28,
6,dmp_npsi(20)_final(7).mov,True,left,0,training(2).mov,0,5,5,35,,,,,,,,16:30:04:501,16:30:05:227,16:30:08:245,left,16:30:08:946,,2018_May_30_1627,59.9593151659,MP-Perception Experiment,xx06w28,
7,vcgpdm_dyn(35)-lvm(10)_final(5).mov,False,left,0,training(10).mov,0,6,6,81,,,,,,,,16:30:09:705,16:30:10:447,16:30:13:451,right,16:30:14:268,,2018_May_30_1627,59.9593151659,MP-Perception Experiment,xx06w28,
8,training(23).mov,True,right,0,vcgpdm_dyn(35)-lvm(5)_final(2).mov,0,7,7,132,,,,,,,,16:30:15:051,16:30:15:786,16:30:18:789,left,16:30:19:639,,2018_May_30_1627,59.9593151659,MP-Perception Experiment,xx06w28,
9,vgpdm_dyn(25)-lvm(30)_final(6).mov,True,left,0,training(28).mov,0,8,8,5,,,,,,,,16:30:20:404,16:30:21:140,16:30:24:143,right,16:30:25:778,,2018_May_30_1627,59.9593151659,MP-Perception Experiment,xx06w28,
10,vcgpdm_dyn(15)-lvm(10)_final(0).mov,True,left,0,training(14).mov,0,9,9,149,,,,,,,,16:30:26:556,16:30:27:279,16:30:30:282,right,16:30:31:033,,2018_May_30_1627,59.9593151659,MP-Perception Experiment,xx06w28,
11,vcgpdm_dyn(20)-lvm(15)_final(4).mov,True,left,0,training(28).mov,0,10,10,117,,,,,,,,16:30:31:798,16:30:32:534,16:30:35:536,left,16:30:36:687,,2018_May_30_1627,59.9593151659,MP-Perception Experiment,xx06w28,
12,vgpdm_dyn(30)-lvm(20)_final(9).mov,False,left,0,training(11).mov,0,11,11,122,,,,,,,,16:30:37:458,16:30:38:188,16:30:41:189,right,16:30:41:790,,2018_May_30_1627,59.9593151659,MP-Perception Experiment,xx06w28,
13,training(48).mov,False,right,0,vgpdm_dyn(30)-lvm(10)_final(5).mov,0,12,12,111,,,,,,,,16:30:42:564,16:30:43:291,16:30:46:293,right,16:30:46:877,,2018_May_30_1627,59.9593151659,MP-Perception Experiment,xx06w28,
14,dmp_npsi(20)_final(7).mov,True,left,0,training(34).mov,0,13,13,55,,,,,,,,16:30:47:659,16:30:48:379,16:30:51:382,left,16:30:51:951,,2018_May_30_1627,59.9593151659,MP-Perception Experiment,xx06w28,
15,training(13).mov,True,right,0,dmp_npsi(35)_final(9).mov,0,14,14,95,,,,,,,,16:30:52:737,16:30:53:452,16:30:56:471,left,16:30:57:255,,2018_May_30_1627,59.9593151659,MP-Perception Experiment,xx06w28,
16,vgpdm_dyn(35)-lvm(10)_final(4).mov,True,left,0,training(8).mov,0,15,15,99,,,,,,,,16:30:58:026,16:30:58:756,16:31:01:758,left,16:31:02:559,,2018_May_30_1627,59.9593151659,MP-Perception Experiment,xx06w28,
17,training(41).mov,False,right,0,vgpdm_dyn(20)-lvm(20)_final(4).mov,0,16,16,158,,,,,,,,16:31:03:367,16:31:04:060,16:31:07:064,left,16:31:07:564,,2018_May_30_1627,59.9593151659,MP-Perception Experiment,xx06w28,
18,vcgpdm_dyn(15)-lvm(10)_final(7).mov,True,left,0,training(22).mov,0,17,17,155,,,,,,,,16:31:08:347,16:31:09:082,16:31:12:085,left,16:31:12:702,,2018_May_30_1627,59.9593151659,MP-Perception Experiment,xx06w28,
19,training(28).mov,False,right,0,vcgpdm_dyn(10)-lvm(20)_final(9).mov,0,18,18,84,,,,,,,,16:31:13:547,16:31:14:220,16:31:17:205,right,16:31:17:806,,2018_May_30_1627,59.9593151659,MP-Perception Experiment,xx06w28,
20,training(48).mov,False,right,0,vcgpdm_dyn(35)-lvm(20)_final(2).mov,0,19,19,51,,,,,,,,16:31:18:609,16:31:19:307,16:31:22:310,right,16:31:22:778,,2018_May_30_1627,59.9593151659,MP-Perception Experiment,xx06w28,
21,vgpdm_dyn(30)-lvm(5)_final(9).mov,False,left,0,training(25).mov,0,20,20,127,,,,,,,,16:31:23:556,16:31:24:279,16:31:27:282,left,16:31:28:049,,2018_May_30_1627,59.9593151659,MP-Perception Experiment,xx06w28,
22,training(18).mov,True,right,0,tmp_numprim(8)_final(8).mov,0,21,21,69,,,,,,,,16:31:28:830,16:31:29:550,16:31:32:550,left,16:31:32:984,,2018_May_30_1627,59.9593151659,MP-Perception Experiment,xx06w28,
23,training(20).mov,False,right,0,vgpdm_dyn(30)-lvm(10)_final(8).mov,0,22,22,13,,,,,,,,16:31:33:793,16:31:34:485,16:31:37:488,right,16:31:38:021,,2018_May_30_1627,59.9593151659,MP-Perception Experiment,xx06w28,
24,training(28).mov,False,right,0,tmp_numprim(6)_final(3).mov,0,23,23,100,,,,,,,,16:31:38:827,16:31:39:523,16:31:42:511,right,16:31:42:928,,2018_May_30_1627,59.9593151659,MP-Perception Experiment,xx06w28,
25,vgpdm_dyn(20)-lvm(35)_final(8).mov,False,left,0,training(8).mov,0,24,24,70,,,,,,,,16:31:43:714,16:31:44:429,16:31:47:432,left,16:31:47:933,,2018_May_30_1627,59.9593151659,MP-Perception Experiment,xx06w28,
26,vcgpdm_dyn(10)-lvm(20)_final(8).mov,True,left,0,training(30).mov,0,25,25,157,,,,,,,,16:31:48:721,16:31:49:433,16:31:52:436,left,16:31:52:953,,2018_May_30_1627,59.9593151659,MP-Perception Experiment,xx06w28,
27,training(13).mov,False,right,0,dmp_npsi(35)_final(0).mov,0,26,26,90,,,,,,,,16:31:53:725,16:31:54:454,16:31:57:457,left,16:31:58:041,,2018_May_30_1627,59.9593151659,MP-Perception Experiment,xx06w28,
28,training(19).mov,False,right,0,vcgpdm_dyn(20)-lvm(35)_final(1).mov,0,27,27,48,,,,,,,,16:31:58:824,16:31:59:542,16:32:02:545,right,16:32:03:062,,2018_May_30_1627,59.9593151659,MP-Perception Experiment,xx06w28,
29,training(30).mov,True,right,0,vcgpdm_dyn(30)-lvm(20)_final(0).mov,0,28,28,52,,,,,,,,16:32:03:839,16:32:04:563,16:32:07:582,left,16:32:08:033,,2018_May_30_1627,59.9593151659,MP-Perception Experiment,xx06w28,
30,training(13).mov,True,right,0,vcgpdm_dyn(20)-lvm(30)_final(7).mov,0,29,29,108,,,,,,,,16:32:08:799,16:32:09:534,16:32:12:536,left,16:32:13:604,,2018_May_30_1627,59.9593151659,MP-Perception Experiment,xx06w28,
31,training(40).mov,False,right,0,vgpdm_dyn(10)-lvm(10)_final(6).mov,0,30,30,16,,,,,,,,16:32:14:384,16:32:15:106,16:32:18:109,right,16:32:18:709,,2018_May_30_1627,59.9593151659,MP-Perception Experiment,xx06w28,
32,dmp_npsi(20)_final(4).mov,False,left,0,training(12).mov,0,31,31,105,,,,,,,,16:32:19:485,16:32:20:210,16:32:23:211,left,16:32:23:845,,2018_May_30_1627,59.9593151659,MP-Perception Experiment,xx06w28,
33,training(34).mov,True,right,0,vcgpdm_dyn(5)-lvm(10)_final(8).mov,0,32,32,47,,,,,,,,16:32:24:642,16:32:25:346,16:32:28:348,left,16:32:28:816,,2018_May_30_1627,59.9593151659,MP-Perception Experiment,xx06w28,
34,training(37).mov,True,right,0,vgpdm_dyn(10)-lvm(35)_final(4).mov,0,33,33,67,,,,,,,,16:32:29:590,16:32:30:333,16:32:33:322,right,16:32:34:056,,2018_May_30_1627,59.9593151659,MP-Perception Experiment,xx06w28,
35,vgpdm_dyn(25)-lvm(15)_final(7)_out_of_screen.mov,False,left,0,training(34).mov,0,34,34,42,,,,,,,,16:32:34:854,16:32:35:557,16:32:38:560,right,16:32:40:211,,2018_May_30_1627,59.9593151659,MP-Perception Experiment,xx06w28,
36,training(4).mov,True,right,0,vcgpdm_dyn(30)-lvm(15)_final(6).mov,0,35,35,98,,,,,,,,16:32:40:990,16:32:41:712,16:32:44:714,left,16:32:45:098,,2018_May_30_1627,59.9593151659,MP-Perception Experiment,xx06w28,
37,training(29).mov,False,right,0,vcgpdm_dyn(10)-lvm(10)_final(0).mov,0,36,36,118,,,,,,,,16:32:45:878,16:32:46:599,16:32:49:603,left,16:32:50:153,,2018_May_30_1627,59.9593151659,MP-Perception Experiment,xx06w28,
38,training(17).mov,False,right,0,vcgpdm_dyn(15)-lvm(20)_final(2).mov,0,37,37,72,,,,,,,,16:32:50:932,16:32:51:654,16:32:54:657,right,16:32:55:224,,2018_May_30_1627,59.9593151659,MP-Perception Experiment,xx06w28,
39,dmp_npsi(45)_final(2).mov,False,left,0,training(4).mov,0,38,38,148,,,,,,,,16:32:55:997,16:32:56:742,16:32:59:727,right,16:33:00:345,,2018_May_30_1627,59.9593151659,MP-Perception Experiment,xx06w28,
40,vcgpdm_dyn(25)-lvm(15)_final(7).mov,False,left,0,training(37).mov,0,39,39,64,,,,,,,,16:33:01:109,16:33:01:846,16:33:04:848,right,16:33:05:382,,2018_May_30_1627,59.9593151659,MP-Perception Experiment,xx06w28,
41,training(24).mov,True,right,0,tmp_numprim(10)_final(6).mov,0,40,40,22,,,,,,,,16:33:06:173,16:33:06:884,16:33:09:903,left,16:33:11:069,,2018_May_30_1627,59.9593151659,MP-Perception Experiment,xx06w28,
42,training(8).mov,False,right,0,vgpdm_dyn(35)-lvm(25)_final(3).mov,0,41,41,120,,,,,,,,16:33:11:851,16:33:12:570,16:33:15:590,right,16:33:15:990,,2018_May_30_1627,59.9593151659,MP-Perception Experiment,xx06w28,
43,vcgpdm_dyn(20)-lvm(5)_final(5).mov,True,left,0,training(4).mov,0,42,42,65,,,,,,,,16:33:16:762,16:33:17:491,16:33:20:493,left,16:33:20:894,,2018_May_30_1627,59.9593151659,MP-Perception Experiment,xx06w28,
44,dmp_npsi(40)_final(8).mov,True,left,0,training(24).mov,0,43,43,107,,,,,,,,16:33:21:683,16:33:22:397,16:33:25:383,left,16:33:26:318,,2018_May_30_1627,59.9593151659,MP-Perception Experiment,xx06w28,
45,vcgpdm_dyn(30)-lvm(10)_final(4).mov,True,left,0,training(38).mov,0,44,44,57,,,,,,,,16:33:27:119,16:33:27:819,16:33:30:821,left,16:33:31:472,,2018_May_30_1627,59.9593151659,MP-Perception Experiment,xx06w28,
46,dmp_npsi(30)_final(5).mov,False,left,0,training(8).mov,0,45,45,124,,,,,,,,16:33:32:236,16:33:32:973,16:33:35:992,left,16:33:36:860,,2018_May_30_1627,59.9593151659,MP-Perception Experiment,xx06w28,
47,training(6).mov,False,right,0,map_gpdm_final(7).mov,0,46,46,8,,,,,,,,16:33:37:633,16:33:38:360,16:33:41:363,right,16:33:41:865,,2018_May_30_1627,59.9593151659,MP-Perception Experiment,xx06w28,
48,training(30).mov,True,right,0,map_gpdm_final(8).mov,0,47,47,128,,,,,,,,16:33:42:638,16:33:43:366,16:33:46:368,right,16:33:46:985,,2018_May_30_1627,59.9593151659,MP-Perception Experiment,xx06w28,
49,vcgpdm_dyn(30)-lvm(15)_final(4).mov,False,left,0,training(3).mov,0,48,48,28,,,,,,,,16:33:47:759,16:33:48:486,16:33:51:489,right,16:33:51:923,,2018_May_30_1627,59.9593151659,MP-Perception Experiment,xx06w28,
50,vgpdm_dyn(20)-lvm(30)_final(0).mov,False,left,0,training(31).mov,0,49,49,40,,,,,,,,16:33:52:694,16:33:53:424,16:33:56:426,right,16:33:56:977,,2018_May_30_1627,59.9593151659,MP-Perception Experiment,xx06w28,
51,training(23).mov,False,right,0,tmp_numprim(2)_final(3).mov,0,50,50,101,,,,,,,,16:33:57:752,16:33:58:478,16:34:01:479,right,16:34:02:113,,2018_May_30_1627,59.9593151659,MP-Perception Experiment,xx06w28,
52,vcgpdm_dyn(10)-lvm(30)_final(7).mov,False,left,0,training(12).mov,0,51,51,110,,,,,,,,16:34:02:883,16:34:03:614,16:34:06:617,right,16:34:07:234,,2018_May_30_1627,59.9593151659,MP-Perception Experiment,xx06w28,
53,vgpdm_dyn(35)-lvm(35)_final(2).mov,True,left,0,training(7).mov,0,52,52,59,,,,,,,,16:34:08:011,16:34:08:752,16:34:11:723,left,16:34:12:123,,2018_May_30_1627,59.9593151659,MP-Perception Experiment,xx06w28,
54,training(21).mov,True,right,0,vcgpdm_dyn(25)-lvm(10)_final(9).mov,0,53,53,142,,,,,,,,16:34:12:907,16:34:13:624,16:34:16:627,left,16:34:17:128,,2018_May_30_1627,59.9593151659,MP-Perception Experiment,xx06w28,
55,vgpdm_dyn(5)-lvm(5)_final(7)_out_of_screen.mov,False,left,0,training(4).mov,0,54,54,34,,,,,,,,16:34:18:280,16:34:18:796,16:34:21:632,left,16:34:22:783,,2018_May_30_1627,59.9593151659,MP-Perception Experiment,xx06w28,
56,vgpdm_dyn(15)-lvm(5)_final(8).mov,True,left,0,training(25).mov,0,55,55,151,,,,,,,,16:34:23:558,16:34:24:301,16:34:27:286,right,16:34:27:920,,2018_May_30_1627,59.9593151659,MP-Perception Experiment,xx06w28,
57,training(31).mov,True,right,0,vgpdm_dyn(30)-lvm(5)_final(8).mov,0,56,56,92,,,,,,,,16:34:28:685,16:34:29:421,16:34:32:424,left,16:34:33:058,,2018_May_30_1627,59.9593151659,MP-Perception Experiment,xx06w28,
58,vgpdm_dyn(20)-lvm(5)_final(3).mov,True,left,0,training(25).mov,0,57,57,11,,,,,,,,16:34:33:829,16:34:34:577,16:34:37:562,left,16:34:38:163,,2018_May_30_1627,59.9593151659,MP-Perception Experiment,xx06w28,
59,vgpdm_dyn(10)-lvm(25)_final(0).mov,False,left,0,training(18).mov,0,58,58,27,,,,,,,,16:34:38:932,16:34:39:664,16:34:42:666,right,16:34:43:701,,2018_May_30_1627,59.9593151659,MP-Perception Experiment,xx06w28,
60,training(3).mov,True,right,0,vgpdm_dyn(5)-lvm(15)_final(1).mov,0,59,59,112,,,,,,,,16:34:45:458,16:34:45:458,16:34:48:221,left,16:34:48:755,,2018_May_30_1627,59.9593151659,MP-Perception Experiment,xx06w28,
61,training(17).mov,True,right,0,vcgpdm_dyn(15)-lvm(25)_final(2).mov,0,60,60,15,,,,,,,,16:34:49:531,16:34:50:256,16:34:53:258,left,16:34:53:858,,2018_May_30_1627,59.9593151659,MP-Perception Experiment,xx06w28,
62,vcgpdm_dyn(10)-lvm(15)_final(7).mov,False,left,0,training(9).mov,0,61,61,80,,,,,,,,16:34:54:638,16:34:55:359,16:34:58:362,right,16:34:58:779,,2018_May_30_1627,59.9593151659,MP-Perception Experiment,xx06w28,
63,vcgpdm_dyn(20)-lvm(25)_final(1).mov,True,left,0,training(10).mov,0,62,62,88,,,,,,,,16:34:59:551,16:35:00:297,16:35:03:284,left,16:35:03:801,,2018_May_30_1627,59.9593151659,MP-Perception Experiment,xx06w28,
64,vcgpdm_dyn(30)-lvm(10)_final(1).mov,True,left,0,training(7).mov,0,63,63,152,,,,,,,,16:35:04:565,16:35:05:302,16:35:08:305,right,16:35:08:922,,2018_May_30_1627,59.9593151659,MP-Perception Experiment,xx06w28,
65,vgpdm_dyn(20)-lvm(15)_final(2).mov,True,left,0,training(41).mov,0,64,64,103,,,,,,,,16:35:09:698,16:35:10:424,16:35:13:426,left,16:35:13:944,,2018_May_30_1627,59.9593151659,MP-Perception Experiment,xx06w28,
66,vgpdm_dyn(10)-lvm(35)_final(3).mov,True,left,0,training(30).mov,0,65,65,153,,,,,,,,16:35:14:721,16:35:15:445,16:35:18:447,right,16:35:19:515,,2018_May_30_1627,59.9593151659,MP-Perception Experiment,xx06w28,
67,training(31).mov,False,right,0,vcgpdm_dyn(35)-lvm(20)_final(8).mov,0,66,66,141,,,,,,,,16:35:20:286,16:35:21:016,16:35:24:019,right,16:35:24:603,,2018_May_30_1627,59.9593151659,MP-Perception Experiment,xx06w28,
68,training(21).mov,False,right,0,dmp_npsi(25)_final(3).mov,0,67,67,135,,,,,,,,16:35:25:372,16:35:26:104,16:35:29:124,right,16:35:29:591,,2018_May_30_1627,59.9593151659,MP-Perception Experiment,xx06w28,
69,vgpdm_dyn(10)-lvm(25)_final(9).mov,True,left,0,training(24).mov,0,68,68,143,,,,,,,,16:35:30:359,16:35:31:092,16:35:34:094,left,16:35:34:678,,2018_May_30_1627,59.9593151659,MP-Perception Experiment,xx06w28,
70,training(26).mov,False,right,0,vgpdm_dyn(15)-lvm(15)_final(0).mov,0,69,69,154,,,,,,,,16:35:35:466,16:35:36:179,16:35:39:182,left,16:35:39:882,,2018_May_30_1627,59.9593151659,MP-Perception Experiment,xx06w28,
71,dmp_npsi(50)_final(6).mov,True,left,0,training(8).mov,0,70,70,7,,,,,,,,16:35:40:678,16:35:41:398,16:35:44:402,left,16:35:44:802,,2018_May_30_1627,59.9593151659,MP-Perception Experiment,xx06w28,
72,training(12).mov,True,right,0,vgpdm_dyn(30)-lvm(30)_final(1).mov,0,71,71,115,,,,,,,,16:35:45:606,16:35:46:303,16:35:49:306,left,16:35:49:623,,2018_May_30_1627,59.9593151659,MP-Perception Experiment,xx06w28,
73,training(41).mov,False,right,0,vcgpdm_dyn(35)-lvm(25)_final(7).mov,0,72,72,123,,,,,,,,16:35:50:397,16:35:51:124,16:35:54:128,right,16:35:54:595,,2018_May_30_1627,59.9593151659,MP-Perception Experiment,xx06w28,
74,vgpdm_dyn(30)-lvm(5)_final(4).mov,True,left,0,training(21).mov,0,73,73,140,,,,,,,,16:35:55:372,16:35:56:096,16:35:59:099,left,16:35:59:733,,2018_May_30_1627,59.9593151659,MP-Perception Experiment,xx06w28,
75,training(17).mov,False,right,0,vcgpdm_dyn(20)-lvm(30)_final(4).mov,0,74,74,89,,,,,,,,16:36:00:510,16:36:01:234,16:36:04:237,right,16:36:04:838,,2018_May_30_1627,59.9593151659,MP-Perception Experiment,xx06w28,
76,dmp_npsi(20)_final(2).mov,True,left,0,training(25).mov,0,75,75,39,,,,,,,,16:36:05:608,16:36:06:339,16:36:09:341,left,16:36:10:226,,2018_May_30_1627,59.9593151659,MP-Perception Experiment,xx06w28,
77,training(12).mov,False,right,0,vcgpdm_dyn(25)-lvm(15)_final(1).mov,0,76,76,61,,,,,,,,16:36:10:998,16:36:11:727,16:36:14:729,right,16:36:15:246,,2018_May_30_1627,59.9593151659,MP-Perception Experiment,xx06w28,
78,training(38).mov,True,right,0,vgpdm_dyn(35)-lvm(5)_final(1).mov,0,77,77,87,,,,,,,,16:36:16:009,16:36:16:747,16:36:19:751,left,16:36:20:652,,2018_May_30_1627,59.9593151659,MP-Perception Experiment,xx06w28,
79,training(14).mov,False,right,0,vgpdm_dyn(5)-lvm(15)_final(6).mov,0,78,78,121,,,,,,,,16:36:21:440,16:36:22:153,16:36:25:172,right,16:36:26:139,,2018_May_30_1627,59.9593151659,MP-Perception Experiment,xx06w28,
80,vcgpdm_dyn(10)-lvm(25)_final(1).mov,True,left,0,training(30).mov,0,79,79,119,,,,,,,,16:36:26:911,16:36:27:657,16:36:30:641,left,16:36:31:409,,2018_May_30_1627,59.9593151659,MP-Perception Experiment,xx06w28,
81,training(36).mov,False,right,0,vgpdm_dyn(10)-lvm(30)_final(2).mov,0,80,80,144,,,,,,,,16:36:32:189,16:36:32:910,16:36:35:912,right,16:36:36:396,,2018_May_30_1627,59.9593151659,MP-Perception Experiment,xx06w28,
82,tmp_numprim(7)_final(2).mov,False,left,0,training(33).mov,0,81,81,2,,,,,,,,16:36:37:164,16:36:37:898,16:36:40:900,right,16:36:41:335,,2018_May_30_1627,59.9593151659,MP-Perception Experiment,xx06w28,
83,vcgpdm_dyn(15)-lvm(5)_final(6).mov,True,left,0,training(48).mov,0,82,82,29,,,,,,,,16:36:42:119,16:36:42:837,16:36:45:839,right,16:36:47:625,,2018_May_30_1627,59.9593151659,MP-Perception Experiment,xx06w28,
84,vgpdm_dyn(5)-lvm(20)_final(1).mov,True,left,0,training(4).mov,0,83,83,139,,,,,,,,16:36:48:416,16:36:49:126,16:36:52:128,left,16:36:52:578,,2018_May_30_1627,59.9593151659,MP-Perception Experiment,xx06w28,
85,training(6).mov,True,right,0,vgpdm_dyn(20)-lvm(25)_final(9).mov,0,84,84,10,,,,,,,,16:36:53:370,16:36:54:079,16:36:57:083,left,16:36:58:017,,2018_May_30_1627,59.9593151659,MP-Perception Experiment,xx06w28,
86,vcgpdm_dyn(5)-lvm(10)_final(7).mov,True,left,0,training(39).mov,0,85,85,62,,,,,,,,16:36:58:798,16:36:59:518,16:37:02:521,left,16:37:03:188,,2018_May_30_1627,59.9593151659,MP-Perception Experiment,xx06w28,
87,vcgpdm_dyn(25)-lvm(25)_final(9).mov,False,left,0,training(34).mov,0,86,86,33,,,,,,,,16:37:03:970,16:37:04:689,16:37:07:692,right,16:37:08:592,,2018_May_30_1627,59.9593151659,MP-Perception Experiment,xx06w28,
88,vcgpdm_dyn(10)-lvm(35)_final(5).mov,False,left,0,training(38).mov,0,87,87,21,,,,,,,,16:37:09:368,16:37:10:093,16:37:13:097,right,16:37:13:848,,2018_May_30_1627,59.9593151659,MP-Perception Experiment,xx06w28,
89,training(23).mov,True,right,0,vgpdm_dyn(20)-lvm(25)_final(9).mov,0,88,88,50,,,,,,,,16:37:14:638,16:37:15:349,16:37:18:351,left,16:37:19:085,,2018_May_30_1627,59.9593151659,MP-Perception Experiment,xx06w28,
90,training(14).mov,True,right,0,vcgpdm_dyn(10)-lvm(20)_final(8).mov,0,89,89,102,,,,,,,,16:37:19:857,16:37:20:601,16:37:23:587,left,16:37:24:037,,2018_May_30_1627,59.9593151659,MP-Perception Experiment,xx06w28,
91,training(11).mov,False,right,0,vgpdm_dyn(15)-lvm(15)_final(9).mov,0,90,90,104,,,,,,,,16:37:24:813,16:37:25:538,16:37:28:541,right,16:37:29:042,,2018_May_30_1627,59.9593151659,MP-Perception Experiment,xx06w28,
92,vgpdm_dyn(15)-lvm(35)_final(9).mov,True,left,0,training(11).mov,0,91,91,86,,,,,,,,16:37:29:824,16:37:30:544,16:37:33:531,right,16:37:34:215,,2018_May_30_1627,59.9593151659,MP-Perception Experiment,xx06w28,
93,training(4).mov,False,right,0,vgpdm_dyn(10)-lvm(20)_final(2).mov,0,92,92,58,,,,,,,,16:37:34:991,16:37:35:716,16:37:38:719,right,16:37:39:269,,2018_May_30_1627,59.9593151659,MP-Perception Experiment,xx06w28,
94,training(39).mov,False,right,0,vcgpdm_dyn(15)-lvm(35)_final(0).mov,0,93,93,156,,,,,,,,16:37:40:035,16:37:40:770,16:37:43:773,right,16:37:44:273,,2018_May_30_1627,59.9593151659,MP-Perception Experiment,xx06w28,
95,vgpdm_dyn(5)-lvm(30)_final(8).mov,False,left,0,training(1).mov,0,94,94,125,,,,,,,,16:37:46:149,16:37:46:149,16:37:48:778,right,16:37:50:546,,2018_May_30_1627,59.9593151659,MP-Perception Experiment,xx06w28,
96,vcgpdm_dyn(20)-lvm(20)_final(4).mov,True,left,0,training(5).mov,0,95,95,131,,,,,,,,16:37:51:308,16:37:52:047,16:37:55:049,left,16:37:55:517,,2018_May_30_1627,59.9593151659,MP-Perception Experiment,xx06w28,
97,vgpdm_dyn(35)-lvm(25)_final(0).mov,True,left,0,training(33).mov,0,96,96,91,,,,,,,,16:37:56:327,16:37:57:034,16:38:00:020,right,16:38:00:754,,2018_May_30_1627,59.9593151659,MP-Perception Experiment,xx06w28,
98,vgpdm_dyn(25)-lvm(5)_final(5).mov,True,left,0,training(24).mov,0,97,97,73,,,,,,,,16:38:01:524,16:38:02:255,16:38:05:275,right,16:38:06:026,,2018_May_30_1627,59.9593151659,MP-Perception Experiment,xx06w28,
99,vcgpdm_dyn(15)-lvm(20)_final(9).mov,False,left,0,training(28).mov,0,98,98,56,,,,,,,,16:38:06:785,16:38:07:527,16:38:10:528,right,16:38:11:012,,2018_May_30_1627,59.9593151659,MP-Perception Experiment,xx06w28,
100,tmp_numprim(6)_final(9).mov,False,left,0,training(35).mov,0,99,99,19,,,,,,,,16:38:11:782,16:38:12:513,16:38:15:515,right,16:38:15:899,,2018_May_30_1627,59.9593151659,MP-Perception Experiment,xx06w28,
101,training(37).mov,False,right,0,vgpdm_dyn(15)-lvm(25)_final(6).mov,0,100,100,31,,,,,,,,16:38:16:669,16:38:17:400,16:38:20:419,right,16:38:20:803,,2018_May_30_1627,59.9593151659,MP-Perception Experiment,xx06w28,
102,training(18).mov,False,right,0,tmp_numprim(3)_final(9).mov,0,101,101,113,,,,,,,,16:38:21:571,16:38:22:307,16:38:25:293,left,16:38:25:876,,2018_May_30_1627,59.9593151659,MP-Perception Experiment,xx06w28,
103,tmp_numprim(5)_final(8).mov,True,left,0,training(48).mov,0,102,102,76,,,,,,,,16:38:26:646,16:38:27:377,16:38:30:397,left,16:38:30:914,,2018_May_30_1627,59.9593151659,MP-Perception Experiment,xx06w28,
104,vcgpdm_dyn(15)-lvm(5)_final(1).mov,False,left,0,training(25).mov,0,103,103,133,,,,,,,,16:38:31:681,16:38:32:415,16:38:35:418,right,16:38:36:435,,2018_May_30_1627,59.9593151659,MP-Perception Experiment,xx06w28,
105,tmp_numprim(10)_final(3).mov,False,left,0,training(10).mov,0,104,104,49,,,,,,,,16:38:37:203,16:38:37:953,16:38:40:939,right,16:38:41:440,,2018_May_30_1627,59.9593151659,MP-Perception Experiment,xx06w28,
106,training(13).mov,True,right,0,vcgpdm_dyn(20)-lvm(20)_final(8).mov,0,105,105,0,,,,,,,,16:38:42:205,16:38:42:941,16:38:45:943,left,16:38:46:344,,2018_May_30_1627,59.9593151659,MP-Perception Experiment,xx06w28,
107,vgpdm_dyn(10)-lvm(30)_final(6).mov,True,left,0,training(10).mov,0,106,106,134,,,,,,,,16:38:47:120,16:38:47:845,16:38:50:848,left,16:38:51:415,,2018_May_30_1627,59.9593151659,MP-Perception Experiment,xx06w28,
108,training(10).mov,False,right,0,map_gpdm_final(1).mov,0,107,107,43,,,,,,,,16:38:52:182,16:38:52:916,16:38:55:918,right,16:38:56:485,,2018_May_30_1627,59.9593151659,MP-Perception Experiment,xx06w28,
109,tmp_numprim(5)_final(5).mov,True,left,0,training(18).mov,0,108,108,114,,,,,,,,16:38:57:260,16:38:57:988,16:39:00:988,right,16:39:01:572,,2018_May_30_1627,59.9593151659,MP-Perception Experiment,xx06w28,
110,vgpdm_dyn(30)-lvm(15)_final(0).mov,False,left,0,training(34).mov,0,109,109,24,,,,,,,,16:39:02:367,16:39:03:073,16:39:06:092,right,16:39:06:426,,2018_May_30_1627,59.9593151659,MP-Perception Experiment,xx06w28,
111,training(21).mov,False,right,0,vcgpdm_dyn(20)-lvm(35)_final(5).mov,0,110,110,36,,,,,,,,16:39:07:196,16:39:07:927,16:39:10:930,left,16:39:11:247,,2018_May_30_1627,59.9593151659,MP-Perception Experiment,xx06w28,
112,training(33).mov,True,right,0,vgpdm_dyn(10)-lvm(10)_final(0).mov,0,111,111,26,,,,,,,,16:39:12:028,16:39:12:749,16:39:15:770,left,16:39:16:203,,2018_May_30_1627,59.9593151659,MP-Perception Experiment,xx06w28,
113,vcgpdm_dyn(5)-lvm(15)_final(4).mov,False,left,0,training(0).mov,0,112,112,18,,,,,,,,16:39:16:973,16:39:17:704,16:39:20:707,left,16:39:21:207,,2018_May_30_1627,59.9593151659,MP-Perception Experiment,xx06w28,
114,vcgpdm_dyn(10)-lvm(20)_final(8).mov,True,left,0,training(7).mov,0,113,113,9,,,,,,,,16:39:21:981,16:39:22:709,16:39:25:711,left,16:39:26:245,,2018_May_30_1627,59.9593151659,MP-Perception Experiment,xx06w28,
115,vcgpdm_dyn(10)-lvm(35)_final(3).mov,False,left,0,training(23).mov,0,114,114,54,,,,,,,,16:39:27:033,16:39:27:746,16:39:30:765,left,16:39:31:299,,2018_May_30_1627,59.9593151659,MP-Perception Experiment,xx06w28,
116,training(48).mov,False,right,0,vcgpdm_dyn(20)-lvm(25)_final(7).mov,0,115,115,129,,,,,,,,16:39:32:074,16:39:32:801,16:39:35:803,left,16:39:36:337,,2018_May_30_1627,59.9593151659,MP-Perception Experiment,xx06w28,
117,training(31).mov,False,right,0,vcgpdm_dyn(10)-lvm(25)_final(4).mov,0,116,116,17,,,,,,,,16:39:37:117,16:39:37:838,16:39:40:841,right,16:39:41:425,,2018_May_30_1627,59.9593151659,MP-Perception Experiment,xx06w28,
118,training(13).mov,False,right,0,vcgpdm_dyn(35)-lvm(25)_final(4).mov,0,117,117,38,,,,,,,,16:39:42:178,16:39:42:926,16:39:45:928,right,16:39:46:462,,2018_May_30_1627,59.9593151659,MP-Perception Experiment,xx06w28,
119,vgpdm_dyn(30)-lvm(5)_final(6).mov,False,left,0,training(18).mov,0,118,118,137,,,,,,,,16:39:47:271,16:39:47:963,16:39:50:965,left,16:39:51:749,,2018_May_30_1627,59.9593151659,MP-Perception Experiment,xx06w28,
120,map_cgpdm_final(7).mov,True,left,0,training(10).mov,0,119,119,75,,,,,,,,16:39:52:511,16:39:53:267,16:39:56:252,right,16:39:56:803,,2018_May_30_1627,59.9593151659,MP-Perception Experiment,xx06w28,
121,vgpdm_dyn(35)-lvm(35)_final(2).mov,False,left,0,training(7).mov,0,120,120,83,,,,,,,,16:39:57:574,16:39:58:304,16:40:01:307,right,16:40:01:707,,2018_May_30_1627,59.9593151659,MP-Perception Experiment,xx06w28,
122,training(18).mov,True,right,0,vcgpdm_dyn(30)-lvm(20)_final(9).mov,0,121,121,109,,,,,,,,16:40:02:488,16:40:03:210,16:40:06:212,left,16:40:06:697,,2018_May_30_1627,59.9593151659,MP-Perception Experiment,xx06w28,
123,vgpdm_dyn(25)-lvm(5)_final(3).mov,False,left,0,training(32).mov,0,122,122,44,,,,,,,,16:40:07:479,16:40:08:198,16:40:11:201,left,16:40:11:701,,2018_May_30_1627,59.9593151659,MP-Perception Experiment,xx06w28,
124,vgpdm_dyn(10)-lvm(10)_final(8).mov,True,left,0,training(29).mov,0,123,123,41,,,,,,,,16:40:12:486,16:40:13:219,16:40:16:205,right,16:40:17:106,,2018_May_30_1627,59.9593151659,MP-Perception Experiment,xx06w28,
125,vgpdm_dyn(30)-lvm(35)_final(1).mov,True,left,0,training(34).mov,0,124,124,130,,,,,,,,16:40:17:887,16:40:18:607,16:40:21:609,left,16:40:22:059,,2018_May_30_1627,59.9593151659,MP-Perception Experiment,xx06w28,
126,training(41).mov,False,right,0,vcgpdm_dyn(5)-lvm(20)_final(0).mov,0,125,125,46,,,,,,,,16:40:22:845,16:40:23:561,16:40:26:581,left,16:40:27:081,,2018_May_30_1627,59.9593151659,MP-Perception Experiment,xx06w28,
127,training(36).mov,False,right,0,vcgpdm_dyn(10)-lvm(10)_final(3).mov,0,126,126,145,,,,,,,,16:40:27:855,16:40:28:582,16:40:31:585,right,16:40:32:402,,2018_May_30_1627,59.9593151659,MP-Perception Experiment,xx06w28,
128,vcgpdm_dyn(25)-lvm(5)_final(0).mov,False,left,0,training(29).mov,0,127,127,82,,,,,,,,16:40:33:194,16:40:33:920,16:40:36:906,left,16:40:37:507,,2018_May_30_1627,59.9593151659,MP-Perception Experiment,xx06w28,
129,training(10).mov,True,right,0,vcgpdm_dyn(20)-lvm(15)_final(1).mov,0,128,128,32,,,,,,,,16:40:38:275,16:40:39:007,16:40:42:009,left,16:40:42:393,,2018_May_30_1627,59.9593151659,MP-Perception Experiment,xx06w28,
130,vcgpdm_dyn(20)-lvm(20)_final(9).mov,True,left,0,training(48).mov,0,129,129,106,,,,,,,,16:40:43:166,16:40:43:894,16:40:46:896,left,16:40:47:180,,2018_May_30_1627,59.9593151659,MP-Perception Experiment,xx06w28,
131,tmp_numprim(9)_final(6).mov,True,left,0,training(20).mov,0,130,130,37,,,,,,,,16:40:47:967,16:40:48:681,16:40:51:684,left,16:40:52:017,,2018_May_30_1627,59.9593151659,MP-Perception Experiment,xx06w28,
132,training(20).mov,False,right,0,vgpdm_dyn(35)-lvm(30)_final(8).mov,0,131,131,68,,,,,,,,16:40:52:798,16:40:53:520,16:40:56:539,left,16:40:57:006,,2018_May_30_1627,59.9593151659,MP-Perception Experiment,xx06w28,
133,training(27).mov,False,right,0,dmp_npsi(40)_final(7).mov,0,132,132,45,,,,,,,,16:40:57:788,16:40:58:508,16:41:01:511,left,16:41:02:045,,2018_May_30_1627,59.9593151659,MP-Perception Experiment,xx06w28,
134,training(7).mov,True,right,0,vcgpdm_dyn(25)-lvm(35)_final(8).mov,0,133,133,138,,,,,,,,16:41:02:811,16:41:03:563,16:41:06:548,right,16:41:06:950,,2018_May_30_1627,59.9593151659,MP-Perception Experiment,xx06w28,
135,vcgpdm_dyn(5)-lvm(25)_final(8).mov,True,left,0,training(30).mov,0,134,134,94,,,,,,,,16:41:07:745,16:41:08:466,16:41:11:469,right,16:41:13:004,,2018_May_30_1627,59.9593151659,MP-Perception Experiment,xx06w28,
136,training(25).mov,False,right,0,vcgpdm_dyn(25)-lvm(5)_final(2).mov,0,135,135,97,,,,,,,,16:41:13:788,16:41:14:521,16:41:17:525,right,16:41:18:276,,2018_May_30_1627,59.9593151659,MP-Perception Experiment,xx06w28,
137,vcgpdm_dyn(15)-lvm(20)_final(7).mov,True,left,0,training(40).mov,0,136,136,4,,,,,,,,16:41:19:064,16:41:19:777,16:41:22:796,left,16:41:23:179,,2018_May_30_1627,59.9593151659,MP-Perception Experiment,xx06w28,
138,vgpdm_dyn(20)-lvm(5)_final(0).mov,True,left,0,training(6).mov,0,137,137,66,,,,,,,,16:41:23:966,16:41:24:681,16:41:27:683,left,16:41:28:267,,2018_May_30_1627,59.9593151659,MP-Perception Experiment,xx06w28,
139,training(21).mov,True,right,0,vcgpdm_dyn(5)-lvm(25)_final(4).mov,0,138,138,147,,,,,,,,16:41:29:048,16:41:29:768,16:41:32:769,left,16:41:33:369,,2018_May_30_1627,59.9593151659,MP-Perception Experiment,xx06w28,
140,training(19).mov,True,right,0,vgpdm_dyn(30)-lvm(35)_final(2).mov,0,139,139,79,,,,,,,,16:41:34:155,16:41:34:871,16:41:37:874,left,16:41:38:524,,2018_May_30_1627,59.9593151659,MP-Perception Experiment,xx06w28,
141,training(2).mov,False,right,0,dmp_npsi(15)_final(3).mov,0,140,140,116,,,,,,,,16:41:39:291,16:41:40:025,16:41:43:028,right,16:41:43:445,,2018_May_30_1627,59.9593151659,MP-Perception Experiment,xx06w28,
142,vgpdm_dyn(15)-lvm(30)_final(7).mov,True,left,0,training(8).mov,0,141,141,1,,,,,,,,16:41:44:224,16:41:44:946,16:41:47:934,right,16:41:48:884,,2018_May_30_1627,59.9593151659,MP-Perception Experiment,xx06w28,
143,vcgpdm_dyn(30)-lvm(30)_final(3).mov,True,left,0,training(18).mov,0,142,142,20,,,,,,,,16:41:49:656,16:41:50:386,16:41:53:389,left,16:41:53:940,,2018_May_30_1627,59.9593151659,MP-Perception Experiment,xx06w28,
144,dmp_npsi(30)_final(0).mov,True,left,0,training(14).mov,0,143,143,85,,,,,,,,16:41:54:719,16:41:55:457,16:41:58:460,left,16:41:58:927,,2018_May_30_1627,59.9593151659,MP-Perception Experiment,xx06w28,
145,training(18).mov,False,right,0,vgpdm_dyn(25)-lvm(30)_final(9).mov,0,144,144,77,,,,,,,,16:41:59:694,16:42:00:428,16:42:03:431,right,16:42:03:998,,2018_May_30_1627,59.9593151659,MP-Perception Experiment,xx06w28,
146,training(37).mov,True,right,0,vcgpdm_dyn(20)-lvm(10)_final(3).mov,0,145,145,146,,,,,,,,16:42:04:786,16:42:05:499,16:42:08:502,left,16:42:09:053,,2018_May_30_1627,59.9593151659,MP-Perception Experiment,xx06w28,
147,training(1).mov,False,right,0,dmp_npsi(15)_final(2).mov,0,146,146,96,,,,,,,,16:42:09:842,16:42:10:554,16:42:13:557,right,16:42:14:124,,2018_May_30_1627,59.9593151659,MP-Perception Experiment,xx06w28,
148,training(38).mov,False,right,0,vgpdm_dyn(15)-lvm(5)_final(1).mov,0,147,147,93,,,,,,,,16:42:14:906,16:42:15:625,16:42:18:627,right,16:42:19:094,,2018_May_30_1627,59.9593151659,MP-Perception Experiment,xx06w28,
149,training(15).mov,False,right,0,dmp_npsi(40)_final(7).mov,0,148,148,6,,,,,,,,16:42:19:871,16:42:20:610,16:42:23:613,right,16:42:23:980,,2018_May_30_1627,59.9593151659,MP-Perception Experiment,xx06w28,
150,vcgpdm_dyn(20)-lvm(15)_final(3).mov,True,left,0,training(35).mov,0,149,149,78,,,,,,,,16:42:24:748,16:42:25:481,16:42:28:484,left,16:42:28:801,,2018_May_30_1627,59.9593151659,MP-Perception Experiment,xx06w28,
151,training(27).mov,False,right,0,vgpdm_dyn(25)-lvm(10)_final(3)_out_of_screen.mov,0,150,150,25,,,,,,,,16:42:29:586,16:42:30:319,16:42:33:290,right,16:42:33:707,,2018_May_30_1627,59.9593151659,MP-Perception Experiment,xx06w28,
152,vgpdm_dyn(10)-lvm(25)_final(1).mov,True,left,0,training(37).mov,0,151,151,150,,,,,,,,16:42:34:486,16:42:35:208,16:42:38:210,left,16:42:38:678,,2018_May_30_1627,59.9593151659,MP-Perception Experiment,xx06w28,
153,training(15).mov,False,right,0,vcgpdm_dyn(15)-lvm(30)_final(4).mov,0,152,152,14,,,,,,,,16:42:39:462,16:42:40:179,16:42:43:198,right,16:42:43:715,,2018_May_30_1627,59.9593151659,MP-Perception Experiment,xx06w28,
154,vcgpdm_dyn(30)-lvm(5)_final(1).mov,False,left,0,training(15).mov,0,153,153,126,,,,,,,,16:42:45:418,16:42:45:418,16:42:48:220,right,16:42:48:804,,2018_May_30_1627,59.9593151659,MP-Perception Experiment,xx06w28,
155,vgpdm_dyn(35)-lvm(5)_final(6).mov,False,left,0,training(4).mov,0,154,154,74,,,,,,,,16:42:49:582,16:42:50:321,16:42:53:324,left,16:42:53:841,,2018_May_30_1627,59.9593151659,MP-Perception Experiment,xx06w28,
156,training(5).mov,False,right,0,vgpdm_dyn(10)-lvm(5)_final(9).mov,0,155,155,30,,,,,,,,16:42:54:603,16:42:55:342,16:42:58:345,right,16:42:58:762,,2018_May_30_1627,59.9593151659,MP-Perception Experiment,xx06w28,
157,map_gpdm_final(2).mov,False,left,0,training(30).mov,0,156,156,12,,,,,,,,16:42:59:543,16:43:00:263,16:43:03:266,left,16:43:03:683,,2018_May_30_1627,59.9593151659,MP-Perception Experiment,xx06w28,
158,training(13).mov,True,right,0,vcgpdm_dyn(10)-lvm(10)_final(7).mov,0,157,157,23,,,,,,,,16:43:04:470,16:43:05:184,16:43:08:203,right,16:43:08:787,,2018_May_30_1627,59.9593151659,MP-Perception Experiment,xx06w28,
159,training(40).mov,False,right,0,map_cgpdm_final(5).mov,0,158,158,136,,,,,,,,16:43:09:567,16:43:10:305,16:43:13:289,left,16:43:13:923,,2018_May_30_1627,59.9593151659,MP-Perception Experiment,xx06w28,
160,vgpdm_dyn(30)-lvm(10)_final(8).mov,False,left,1,training(35).mov,0,0,0,89,,,,,,,,16:47:30:349,16:47:31:096,16:47:34:100,left,16:47:35:551,,2018_May_30_1627,59.9593151659,MP-Perception Experiment,xx06w28,
161,vcgpdm_dyn(20)-lvm(20)_final(4).mov,False,left,1,training(41).mov,0,1,1,81,,,,,,,,16:47:36:321,16:47:37:069,16:47:40:055,right,16:47:40:605,,2018_May_30_1627,59.9593151659,MP-Perception Experiment,xx06w28,
162,training(12).mov,False,right,1,map_cgpdm_final(8).mov,0,2,2,128,,,,,,,,16:47:41:382,16:47:42:107,16:47:45:126,right,16:47:45:827,,2018_May_30_1627,59.9593151659,MP-Perception Experiment,xx06w28,
163,training(41).mov,False,right,1,tmp_numprim(5)_final(3).mov,0,3,3,60,,,,,,,,16:47:46:602,16:47:47:328,16:47:50:330,left,16:47:50:898,,2018_May_30_1627,59.9593151659,MP-Perception Experiment,xx06w28,
164,training(40).mov,True,right,1,vcgpdm_dyn(15)-lvm(25)_final(2).mov,0,4,4,116,,,,,,,,16:47:51:700,16:47:52:399,16:47:55:418,right,16:47:56:119,,2018_May_30_1627,59.9593151659,MP-Perception Experiment,xx06w28,
165,training(18).mov,True,right,1,vcgpdm_dyn(5)-lvm(30)_final(1)_bad.mov,0,5,5,0,,,,,,,,16:47:56:903,16:47:57:620,16:48:00:640,left,16:48:02:809,,2018_May_30_1627,59.9593151659,MP-Perception Experiment,xx06w28,
166,vcgpdm_dyn(25)-lvm(35)_final(7).mov,False,left,1,training(33).mov,0,6,6,93,,,,,,,,16:48:03:586,16:48:04:310,16:48:07:329,right,16:48:08:113,,2018_May_30_1627,59.9593151659,MP-Perception Experiment,xx06w28,
167,vcgpdm_dyn(25)-lvm(5)_final(5).mov,True,left,1,training(34).mov,0,7,7,144,,,,,,,,16:48:08:881,16:48:09:614,16:48:12:614,left,16:48:13:048,,2018_May_30_1627,59.9593151659,MP-Perception Experiment,xx06w28,
168,vcgpdm_dyn(15)-lvm(35)_final(6).mov,True,left,1,training(2).mov,0,8,8,84,,,,,,,,16:48:13:815,16:48:14:549,16:48:17:553,left,16:48:17:903,,2018_May_30_1627,59.9593151659,MP-Perception Experiment,xx06w28,
169,dmp_npsi(25)_final(2).mov,True,left,1,training(5).mov,0,9,9,97,,,,,,,,16:48:18:693,16:48:19:404,16:48:22:407,left,16:48:22:740,,2018_May_30_1627,59.9593151659,MP-Perception Experiment,xx06w28,
170,training(36).mov,True,right,1,vgpdm_dyn(30)-lvm(30)_final(7).mov,0,10,10,24,,,,,,,,16:48:23:519,16:48:24:242,16:48:27:246,left,16:48:27:713,,2018_May_30_1627,59.9593151659,MP-Perception Experiment,xx06w28,
171,dmp_npsi(30)_final(9).mov,True,left,1,training(15).mov,0,11,11,121,,,,,,,,16:48:28:485,16:48:29:214,16:48:32:233,left,16:48:32:650,,2018_May_30_1627,59.9593151659,MP-Perception Experiment,xx06w28,
172,training(9).mov,True,right,1,vcgpdm_dyn(20)-lvm(5)_final(2).mov,0,12,12,50,,,,,,,,16:48:33:433,16:48:34:152,16:48:37:171,right,16:48:37:822,,2018_May_30_1627,59.9593151659,MP-Perception Experiment,xx06w28,
173,vgpdm_dyn(5)-lvm(20)_final(2).mov,False,left,1,training(0).mov,0,13,13,99,,,,,,,,16:48:38:603,16:48:39:323,16:48:42:342,left,16:48:43:059,,2018_May_30_1627,59.9593151659,MP-Perception Experiment,xx06w28,
174,vcgpdm_dyn(20)-lvm(10)_final(0).mov,False,left,1,training(22).mov,0,14,14,155,,,,,,,,16:48:43:824,16:48:44:577,16:48:47:563,right,16:48:48:230,,2018_May_30_1627,59.9593151659,MP-Perception Experiment,xx06w28,
175,training(12).mov,False,right,1,vcgpdm_dyn(30)-lvm(35)_final(8).mov,0,15,15,29,,,,,,,,16:48:49:009,16:48:49:748,16:48:52:735,right,16:48:53:252,,2018_May_30_1627,59.9593151659,MP-Perception Experiment,xx06w28,
176,training(4).mov,False,right,1,vgpdm_dyn(10)-lvm(35)_final(7).mov,0,16,16,70,,,,,,,,16:48:54:042,16:48:54:753,16:48:57:772,right,16:48:58:289,,2018_May_30_1627,59.9593151659,MP-Perception Experiment,xx06w28,
177,vcgpdm_dyn(20)-lvm(20)_final(7).mov,True,left,1,training(23).mov,0,17,17,122,,,,,,,,16:48:59:068,16:48:59:791,16:49:02:791,left,16:49:03:225,,2018_May_30_1627,59.9593151659,MP-Perception Experiment,xx06w28,
178,training(35).mov,True,right,1,vgpdm_dyn(30)-lvm(15)_final(2).mov,0,18,18,78,,,,,,,,16:49:03:997,16:49:04:726,16:49:07:729,left,16:49:08:029,,2018_May_30_1627,59.9593151659,MP-Perception Experiment,xx06w28,
179,tmp_numprim(7)_final(0).mov,True,left,1,training(20).mov,0,19,19,69,,,,,,,,16:49:08:804,16:49:09:531,16:49:12:533,right,16:49:12:850,,2018_May_30_1627,59.9593151659,MP-Perception Experiment,xx06w28,
180,vgpdm_dyn(5)-lvm(20)_final(3).mov,False,left,1,training(33).mov,0,20,20,92,,,,,,,,16:49:13:625,16:49:14:352,16:49:17:356,right,16:49:18:157,,2018_May_30_1627,59.9593151659,MP-Perception Experiment,xx06w28,
181,vcgpdm_dyn(35)-lvm(30)_final(4).mov,False,left,1,training(2).mov,0,21,21,68,,,,,,,,16:49:18:927,16:49:19:658,16:49:22:660,left,16:49:23:394,,2018_May_30_1627,59.9593151659,MP-Perception Experiment,xx06w28,
182,vgpdm_dyn(25)-lvm(35)_final(9).mov,False,left,1,training(27).mov,0,22,22,30,,,,,,,,16:49:24:165,16:49:24:895,16:49:27:899,right,16:49:28:733,,2018_May_30_1627,59.9593151659,MP-Perception Experiment,xx06w28,
183,dmp_npsi(25)_final(8).mov,True,left,1,training(4).mov,0,23,23,53,,,,,,,,16:49:29:509,16:49:30:234,16:49:33:236,left,16:49:33:637,,2018_May_30_1627,59.9593151659,MP-Perception Experiment,xx06w28,
184,vcgpdm_dyn(30)-lvm(10)_final(1).mov,True,left,1,training(9).mov,0,24,24,101,,,,,,,,16:49:34:418,16:49:35:138,16:49:38:140,left,16:49:38:974,,2018_May_30_1627,59.9593151659,MP-Perception Experiment,xx06w28,
185,tmp_numprim(6)_final(3).mov,False,left,1,training(34).mov,0,25,25,38,,,,,,,,16:49:39:775,16:49:40:475,16:49:43:479,right,16:49:44:163,,2018_May_30_1627,59.9593151659,MP-Perception Experiment,xx06w28,
186,tmp_numprim(2)_final(6).mov,False,left,1,training(15).mov,0,26,26,112,,,,,,,,16:49:45:600,16:49:46:114,16:49:48:666,left,16:49:50:168,,2018_May_30_1627,59.9593151659,MP-Perception Experiment,xx06w28,
187,training(32).mov,False,right,1,vgpdm_dyn(10)-lvm(20)_final(0).mov,0,27,27,54,,,,,,,,16:49:50:967,16:49:51:684,16:49:54:686,right,16:49:55:053,,2018_May_30_1627,59.9593151659,MP-Perception Experiment,xx06w28,
188,training(17).mov,True,right,1,vgpdm_dyn(15)-lvm(35)_final(0).mov,0,28,28,146,,,,,,,,16:49:55:826,16:49:56:571,16:49:59:557,left,16:49:59:857,,2018_May_30_1627,59.9593151659,MP-Perception Experiment,xx06w28,
189,tmp_numprim(8)_final(0).mov,False,left,1,training(23).mov,0,29,29,139,,,,,,,,16:50:00:638,16:50:01:359,16:50:04:346,right,16:50:05:431,,2018_May_30_1627,59.9593151659,MP-Perception Experiment,xx06w28,
190,vgpdm_dyn(30)-lvm(5)_final(9).mov,False,left,1,training(17).mov,0,30,30,123,,,,,,,,16:50:06:198,16:50:06:932,16:50:09:935,left,16:50:10:418,,2018_May_30_1627,59.9593151659,MP-Perception Experiment,xx06w28,
191,training(21).mov,False,right,1,vcgpdm_dyn(5)-lvm(5)_final(2).mov,0,31,31,13,,,,,,,,16:50:11:180,16:50:11:919,16:50:14:939,right,16:50:15:439,,2018_May_30_1627,59.9593151659,MP-Perception Experiment,xx06w28,
192,vcgpdm_dyn(15)-lvm(25)_final(8).mov,False,left,1,training(5).mov,0,32,32,26,,,,,,,,16:50:16:210,16:50:16:940,16:50:19:944,right,16:50:20:628,,2018_May_30_1627,59.9593151659,MP-Perception Experiment,xx06w28,
193,training(40).mov,True,right,1,vcgpdm_dyn(20)-lvm(5)_final(4).mov,0,33,33,127,,,,,,,,16:50:21:400,16:50:22:129,16:50:25:131,left,16:50:25:782,,2018_May_30_1627,59.9593151659,MP-Perception Experiment,xx06w28,
194,vcgpdm_dyn(15)-lvm(5)_final(5).mov,True,left,1,training(24).mov,0,34,34,44,,,,,,,,16:50:26:562,16:50:27:300,16:50:30:302,left,16:50:30:836,,2018_May_30_1627,59.9593151659,MP-Perception Experiment,xx06w28,
195,training(41).mov,False,right,1,vcgpdm_dyn(5)-lvm(10)_final(8).mov,0,35,35,57,,,,,,,,16:50:31:609,16:50:32:337,16:50:35:339,right,16:50:35:773,,2018_May_30_1627,59.9593151659,MP-Perception Experiment,xx06w28,
196,vgpdm_dyn(20)-lvm(35)_final(9).mov,False,left,1,training(38).mov,0,36,36,27,,,,,,,,16:50:36:547,16:50:37:275,16:50:40:278,left,16:50:40:693,,2018_May_30_1627,59.9593151659,MP-Perception Experiment,xx06w28,
197,vgpdm_dyn(30)-lvm(20)_final(3).mov,True,left,1,training(1).mov,0,37,37,77,,,,,,,,16:50:41:473,16:50:42:194,16:50:45:197,left,16:50:45:497,,2018_May_30_1627,59.9593151659,MP-Perception Experiment,xx06w28,
198,tmp_numprim(10)_final(4).mov,True,left,1,training(34).mov,0,38,38,51,,,,,,,,16:50:46:276,16:50:46:998,16:50:50:000,right,16:50:50:668,,2018_May_30_1627,59.9593151659,MP-Perception Experiment,xx06w28,
199,training(36).mov,False,right,1,map_cgpdm_final(9).mov,0,39,39,129,,,,,,,,16:50:51:437,16:50:52:169,16:50:55:157,left,16:50:55:691,,2018_May_30_1627,59.9593151659,MP-Perception Experiment,xx06w28,
200,vcgpdm_dyn(20)-lvm(30)_final(6).mov,True,left,1,training(11).mov,0,40,40,132,,,,,,,,16:50:56:482,16:50:57:192,16:51:00:195,left,16:51:01:113,,2018_May_30_1627,59.9593151659,MP-Perception Experiment,xx06w28,
201,map_cgpdm_final(2).mov,True,left,1,training(40).mov,0,41,41,65,,,,,,,,16:51:01:886,16:51:02:613,16:51:05:632,left,16:51:06:033,,2018_May_30_1627,59.9593151659,MP-Perception Experiment,xx06w28,
202,training(39).mov,True,right,1,vgpdm_dyn(15)-lvm(20)_final(7)_out_of_screen.mov,0,42,42,22,,,,,,,,16:51:06:805,16:51:07:534,16:51:10:536,right,16:51:11:088,,2018_May_30_1627,59.9593151659,MP-Perception Experiment,xx06w28,
203,vgpdm_dyn(35)-lvm(20)_final(4)_out_of_screen.mov,True,left,1,training(14).mov,0,43,43,7,,,,,,,,16:51:11:861,16:51:12:606,16:51:15:608,left,16:51:16:042,,2018_May_30_1627,59.9593151659,MP-Perception Experiment,xx06w28,
204,training(4).mov,False,right,1,tmp_numprim(10)_final(5).mov,0,44,44,17,,,,,,,,16:51:16:815,16:51:17:543,16:51:20:546,right,16:51:20:996,,2018_May_30_1627,59.9593151659,MP-Perception Experiment,xx06w28,
205,training(16).mov,True,right,1,vcgpdm_dyn(25)-lvm(30)_final(5).mov,0,45,45,63,,,,,,,,16:51:21:789,16:51:22:514,16:51:25:500,left,16:51:25:866,,2018_May_30_1627,59.9593151659,MP-Perception Experiment,xx06w28,
206,training(16).mov,False,right,1,vgpdm_dyn(30)-lvm(25)_final(7).mov,0,46,46,135,,,,,,,,16:51:26:637,16:51:27:368,16:51:30:371,left,16:51:30:720,,2018_May_30_1627,59.9593151659,MP-Perception Experiment,xx06w28,
207,vcgpdm_dyn(5)-lvm(10)_final(4).mov,False,left,1,training(26).mov,0,47,47,120,,,,,,,,16:51:31:513,16:51:32:221,16:51:35:223,right,16:51:35:591,,2018_May_30_1627,59.9593151659,MP-Perception Experiment,xx06w28,
208,vcgpdm_dyn(10)-lvm(10)_final(0).mov,True,left,1,training(32).mov,0,48,48,148,,,,,,,,16:51:36:367,16:51:37:108,16:51:40:094,left,16:51:40:428,,2018_May_30_1627,59.9593151659,MP-Perception Experiment,xx06w28,
209,training(48).mov,False,right,1,vcgpdm_dyn(20)-lvm(35)_final(8).mov,0,49,49,1,,,,,,,,16:51:41:210,16:51:41:929,16:51:44:933,right,16:51:45:417,,2018_May_30_1627,59.9593151659,MP-Perception Experiment,xx06w28,
210,training(29).mov,False,right,1,vgpdm_dyn(10)-lvm(10)_final(9).mov,0,50,50,46,,,,,,,,16:51:46:188,16:51:46:919,16:51:49:938,right,16:51:50:405,,2018_May_30_1627,59.9593151659,MP-Perception Experiment,xx06w28,
211,vgpdm_dyn(10)-lvm(20)_final(2).mov,False,left,1,training(26).mov,0,51,51,109,,,,,,,,16:51:51:194,16:51:51:906,16:51:54:909,right,16:51:55:476,,2018_May_30_1627,59.9593151659,MP-Perception Experiment,xx06w28,
212,training(3).mov,False,right,1,vgpdm_dyn(25)-lvm(35)_final(2).mov,0,52,52,133,,,,,,,,16:51:56:264,16:51:56:977,16:51:59:979,right,16:52:00:496,,2018_May_30_1627,59.9593151659,MP-Perception Experiment,xx06w28,
213,vcgpdm_dyn(25)-lvm(25)_final(4).mov,True,left,1,training(12).mov,0,53,53,55,,,,,,,,16:52:01:271,16:52:01:998,16:52:05:001,right,16:52:05:535,,2018_May_30_1627,59.9593151659,MP-Perception Experiment,xx06w28,
214,vcgpdm_dyn(10)-lvm(35)_final(5).mov,True,left,1,training(28).mov,0,54,54,41,,,,,,,,16:52:06:317,16:52:07:036,16:52:10:038,left,16:52:10:456,,2018_May_30_1627,59.9593151659,MP-Perception Experiment,xx06w28,
215,vgpdm_dyn(5)-lvm(20)_final(3).mov,False,left,1,training(37).mov,0,55,55,42,,,,,,,,16:52:11:241,16:52:11:957,16:52:14:976,right,16:52:15:476,,2018_May_30_1627,59.9593151659,MP-Perception Experiment,xx06w28,
216,training(27).mov,True,right,1,vcgpdm_dyn(15)-lvm(25)_final(3).mov,0,56,56,4,,,,,,,,16:52:16:271,16:52:16:977,16:52:19:980,left,16:52:20:597,,2018_May_30_1627,59.9593151659,MP-Perception Experiment,xx06w28,
217,training(23).mov,False,right,1,vcgpdm_dyn(5)-lvm(15)_final(2).mov,0,57,57,75,,,,,,,,16:52:21:398,16:52:22:114,16:52:25:117,left,16:52:25:417,,2018_May_30_1627,59.9593151659,MP-Perception Experiment,xx06w28,
218,training(36).mov,True,right,1,vcgpdm_dyn(25)-lvm(10)_final(6).mov,0,58,58,141,,,,,,,,16:52:26:190,16:52:26:918,16:52:29:921,left,16:52:30:254,,2018_May_30_1627,59.9593151659,MP-Perception Experiment,xx06w28,
219,training(10).mov,False,right,1,vgpdm_dyn(35)-lvm(25)_final(7).mov,0,59,59,138,,,,,,,,16:52:31:037,16:52:31:755,16:52:34:742,left,16:52:35:393,,2018_May_30_1627,59.9593151659,MP-Perception Experiment,xx06w28,
220,training(32).mov,False,right,1,vgpdm_dyn(10)-lvm(25)_final(8).mov,0,60,60,157,,,,,,,,16:52:36:172,16:52:36:911,16:52:39:915,left,16:52:40:515,,2018_May_30_1627,59.9593151659,MP-Perception Experiment,xx06w28,
221,training(33).mov,False,right,1,vcgpdm_dyn(5)-lvm(10)_final(0).mov,0,61,61,23,,,,,,,,16:52:41:305,16:52:42:016,16:52:45:019,right,16:52:45:519,,2018_May_30_1627,59.9593151659,MP-Perception Experiment,xx06w28,
222,vgpdm_dyn(5)-lvm(30)_final(5).mov,False,left,1,training(4).mov,0,62,62,152,,,,,,,,16:52:46:294,16:52:47:020,16:52:50:023,left,16:52:50:540,,2018_May_30_1627,59.9593151659,MP-Perception Experiment,xx06w28,
223,vgpdm_dyn(25)-lvm(20)_final(1).mov,True,left,1,training(34).mov,0,63,63,14,,,,,,,,16:52:51:310,16:52:52:058,16:52:55:043,left,16:52:55:661,,2018_May_30_1627,59.9593151659,MP-Perception Experiment,xx06w28,
224,training(33).mov,True,right,1,vcgpdm_dyn(30)-lvm(20)_final(8).mov,0,64,64,102,,,,,,,,16:52:56:436,16:52:57:179,16:53:00:165,left,16:53:00:732,,2018_May_30_1627,59.9593151659,MP-Perception Experiment,xx06w28,
225,vgpdm_dyn(35)-lvm(30)_final(4).mov,False,left,1,training(13).mov,0,65,65,6,,,,,,,,16:53:01:504,16:53:02:234,16:53:05:236,right,16:53:05:787,,2018_May_30_1627,59.9593151659,MP-Perception Experiment,xx06w28,
226,vcgpdm_dyn(35)-lvm(5)_final(0).mov,True,left,1,training(18).mov,0,66,66,64,,,,,,,,16:53:06:569,16:53:07:288,16:53:10:290,right,16:53:10:839,,2018_May_30_1627,59.9593151659,MP-Perception Experiment,xx06w28,
227,training(3).mov,False,right,1,vcgpdm_dyn(35)-lvm(20)_final(4).mov,0,67,67,80,,,,,,,,16:53:11:636,16:53:12:340,16:53:15:343,left,16:53:15:761,,2018_May_30_1627,59.9593151659,MP-Perception Experiment,xx06w28,
228,tmp_numprim(7)_final(8).mov,False,left,1,training(37).mov,0,68,68,85,,,,,,,,16:53:16:526,16:53:17:262,16:53:20:264,left,16:53:20:948,,2018_May_30_1627,59.9593151659,MP-Perception Experiment,xx06w28,
229,training(2).mov,False,right,1,vcgpdm_dyn(35)-lvm(25)_final(6).mov,0,69,69,5,,,,,,,,16:53:21:741,16:53:22:449,16:53:25:436,right,16:53:27:422,,2018_May_30_1627,59.9593151659,MP-Perception Experiment,xx06w28,
230,vcgpdm_dyn(30)-lvm(20)_final(2).mov,False,left,1,training(28).mov,0,70,70,124,,,,,,,,16:53:28:196,16:53:28:923,16:53:31:926,right,16:53:32:644,,2018_May_30_1627,59.9593151659,MP-Perception Experiment,xx06w28,
231,dmp_npsi(5)_final(2)_bad.mov,False,left,1,training(48).mov,0,71,71,143,,,,,,,,16:53:33:416,16:53:34:145,16:53:37:147,left,16:53:37:748,,2018_May_30_1627,59.9593151659,MP-Perception Experiment,xx06w28,
232,vcgpdm_dyn(25)-lvm(5)_final(7).mov,False,left,1,training(30).mov,0,72,72,98,,,,,,,,16:53:38:531,16:53:39:249,16:53:42:251,right,16:53:42:768,,2018_May_30_1627,59.9593151659,MP-Perception Experiment,xx06w28,
233,training(37).mov,False,right,1,vcgpdm_dyn(10)-lvm(25)_final(1).mov,0,73,73,25,,,,,,,,16:53:43:539,16:53:44:287,16:53:47:272,right,16:53:47:873,,2018_May_30_1627,59.9593151659,MP-Perception Experiment,xx06w28,
234,vcgpdm_dyn(20)-lvm(30)_final(8).mov,False,left,1,training(22).mov,0,74,74,113,,,,,,,,16:53:48:654,16:53:49:375,16:53:52:394,left,16:53:53:078,,2018_May_30_1627,59.9593151659,MP-Perception Experiment,xx06w28,
235,vcgpdm_dyn(25)-lvm(15)_final(4).mov,False,left,1,training(10).mov,0,75,75,95,,,,,,,,16:53:53:855,16:53:54:595,16:53:57:581,left,16:53:58:132,,2018_May_30_1627,59.9593151659,MP-Perception Experiment,xx06w28,
236,training(11).mov,True,right,1,vcgpdm_dyn(20)-lvm(10)_final(4).mov,0,76,76,104,,,,,,,,16:53:58:904,16:53:59:633,16:54:02:634,left,16:54:02:934,,2018_May_30_1627,59.9593151659,MP-Perception Experiment,xx06w28,
237,dmp_npsi(30)_final(5).mov,False,left,1,training(11).mov,0,77,77,12,,,,,,,,16:54:03:703,16:54:04:435,16:54:07:438,left,16:54:07:855,,2018_May_30_1627,59.9593151659,MP-Perception Experiment,xx06w28,
238,training(14).mov,False,right,1,vcgpdm_dyn(35)-lvm(30)_final(8).mov,0,78,78,88,,,,,,,,16:54:08:634,16:54:09:357,16:54:12:359,right,16:54:12:659,,2018_May_30_1627,59.9593151659,MP-Perception Experiment,xx06w28,
239,training(1).mov,False,right,1,tmp_numprim(5)_final(0).mov,0,79,79,149,,,,,,,,16:54:13:452,16:54:14:160,16:54:17:148,right,16:54:18:015,,2018_May_30_1627,59.9593151659,MP-Perception Experiment,xx06w28,
240,training(27).mov,False,right,1,vgpdm_dyn(20)-lvm(25)_final(2).mov,0,80,80,94,,,,,,,,16:54:18:783,16:54:19:533,16:54:22:536,right,16:54:23:387,,2018_May_30_1627,59.9593151659,MP-Perception Experiment,xx06w28,
241,training(37).mov,False,right,1,vcgpdm_dyn(30)-lvm(5)_final(6).mov,0,81,81,28,,,,,,,,16:54:24:164,16:54:24:889,16:54:27:891,right,16:54:28:909,,2018_May_30_1627,59.9593151659,MP-Perception Experiment,xx06w28,
242,vgpdm_dyn(5)-lvm(30)_final(8).mov,True,left,1,training(21).mov,0,82,82,11,,,,,,,,16:54:29:678,16:54:30:410,16:54:33:412,left,16:54:33:813,,2018_May_30_1627,59.9593151659,MP-Perception Experiment,xx06w28,
243,vgpdm_dyn(15)-lvm(30)_final(7).mov,True,left,1,training(2).mov,0,83,83,39,,,,,,,,16:54:34:598,16:54:35:314,16:54:38:316,right,16:54:38:884,,2018_May_30_1627,59.9593151659,MP-Perception Experiment,xx06w28,
244,training(1).mov,False,right,1,vgpdm_dyn(20)-lvm(20)_final(6).mov,0,84,84,106,,,,,,,,16:54:39:650,16:54:40:384,16:54:43:388,right,16:54:43:922,,2018_May_30_1627,59.9593151659,MP-Perception Experiment,xx06w28,
245,training(1).mov,True,right,1,tmp_numprim(6)_final(6).mov,0,85,85,8,,,,,,,,16:54:45:609,16:54:45:609,16:54:48:442,left,16:54:49:126,,2018_May_30_1627,59.9593151659,MP-Perception Experiment,xx06w28,
246,dmp_npsi(40)_final(4).mov,False,left,1,training(23).mov,0,86,86,151,,,,,,,,16:54:49:903,16:54:50:627,16:54:53:628,right,16:54:53:961,,2018_May_30_1627,59.9593151659,MP-Perception Experiment,xx06w28,
247,vcgpdm_dyn(20)-lvm(30)_final(1).mov,True,left,1,training(1).mov,0,87,87,72,,,,,,,,16:54:54:729,16:54:55:462,16:54:58:466,left,16:54:58:716,,2018_May_30_1627,59.9593151659,MP-Perception Experiment,xx06w28,
248,training(28).mov,True,right,1,vcgpdm_dyn(15)-lvm(30)_final(8).mov,0,88,88,158,,,,,,,,16:54:59:492,16:55:00:217,16:55:03:205,right,16:55:03:906,,2018_May_30_1627,59.9593151659,MP-Perception Experiment,xx06w28,
249,vcgpdm_dyn(15)-lvm(15)_final(3).mov,True,left,1,training(21).mov,0,89,89,73,,,,,,,,16:55:04:676,16:55:05:407,16:55:08:409,left,16:55:08:759,,2018_May_30_1627,59.9593151659,MP-Perception Experiment,xx06w28,
250,training(37).mov,False,right,1,vcgpdm_dyn(20)-lvm(35)_final(9).mov,0,90,90,21,,,,,,,,16:55:09:528,16:55:10:261,16:55:13:263,right,16:55:13:763,,2018_May_30_1627,59.9593151659,MP-Perception Experiment,xx06w28,
251,training(40).mov,True,right,1,vcgpdm_dyn(25)-lvm(30)_final(9).mov,0,91,91,2,,,,,,,,16:55:14:556,16:55:15:265,16:55:18:268,left,16:55:18:802,,2018_May_30_1627,59.9593151659,MP-Perception Experiment,xx06w28,
252,vgpdm_dyn(15)-lvm(30)_final(9).mov,True,left,1,training(41).mov,0,92,92,142,,,,,,,,16:55:19:585,16:55:20:303,16:55:23:305,left,16:55:23:873,,2018_May_30_1627,59.9593151659,MP-Perception Experiment,xx06w28,
253,vcgpdm_dyn(5)-lvm(25)_final(3).mov,False,left,1,training(8).mov,0,93,93,31,,,,,,,,16:55:24:636,16:55:25:374,16:55:28:376,left,16:55:28:977,,2018_May_30_1627,59.9593151659,MP-Perception Experiment,xx06w28,
254,training(37).mov,True,right,1,vgpdm_dyn(20)-lvm(35)_final(1).mov,0,94,94,115,,,,,,,,16:55:29:750,16:55:30:495,16:55:33:481,left,16:55:33:932,,2018_May_30_1627,59.9593151659,MP-Perception Experiment,xx06w28,
255,training(3).mov,False,right,1,vgpdm_dyn(15)-lvm(5)_final(1).mov,0,95,95,48,,,,,,,,16:55:34:695,16:55:35:433,16:55:38:452,right,16:55:38:919,,2018_May_30_1627,59.9593151659,MP-Perception Experiment,xx06w28,
256,training(33).mov,False,right,1,vcgpdm_dyn(25)-lvm(35)_final(2).mov,0,96,96,56,,,,,,,,16:55:39:710,16:55:40:420,16:55:43:421,right,16:55:43:754,,2018_May_30_1627,59.9593151659,MP-Perception Experiment,xx06w28,
257,vcgpdm_dyn(30)-lvm(25)_final(8).mov,True,left,1,training(21).mov,0,97,97,18,,,,,,,,16:55:45:505,16:55:45:505,16:55:48:258,left,16:55:48:725,,2018_May_30_1627,59.9593151659,MP-Perception Experiment,xx06w28,
258,training(7).mov,False,right,1,vcgpdm_dyn(15)-lvm(20)_final(4).mov,0,98,98,118,,,,,,,,16:55:49:498,16:55:50:226,16:55:53:230,right,16:55:53:597,,2018_May_30_1627,59.9593151659,MP-Perception Experiment,xx06w28,
259,vgpdm_dyn(30)-lvm(30)_final(0).mov,False,left,1,training(34).mov,0,99,99,82,,,,,,,,16:55:54:365,16:55:55:115,16:55:58:085,right,16:55:58:569,,2018_May_30_1627,59.9593151659,MP-Perception Experiment,xx06w28,
260,dmp_npsi(45)_final(6).mov,True,left,1,training(27).mov,0,100,100,15,,,,,,,,16:55:59:338,16:56:00:071,16:56:03:073,left,16:56:03:507,,2018_May_30_1627,59.9593151659,MP-Perception Experiment,xx06w28,
261,tmp_numprim(4)_final(3).mov,True,left,1,training(38).mov,0,101,101,61,,,,,,,,16:56:04:281,16:56:05:008,16:56:08:010,left,16:56:08:412,,2018_May_30_1627,59.9593151659,MP-Perception Experiment,xx06w28,
262,tmp_numprim(9)_final(8).mov,False,left,1,training(33).mov,0,102,102,3,,,,,,,,16:56:09:208,16:56:09:913,16:56:12:915,right,16:56:13:616,,2018_May_30_1627,59.9593151659,MP-Perception Experiment,xx06w28,
263,training(9).mov,True,right,1,vcgpdm_dyn(25)-lvm(5)_final(9).mov,0,103,103,136,,,,,,,,16:56:14:399,16:56:15:134,16:56:18:119,right,16:56:18:603,,2018_May_30_1627,59.9593151659,MP-Perception Experiment,xx06w28,
264,training(32).mov,True,right,1,tmp_numprim(2)_final(5).mov,0,104,104,119,,,,,,,,16:56:19:381,16:56:20:104,16:56:23:123,right,16:56:23:574,,2018_May_30_1627,59.9593151659,MP-Perception Experiment,xx06w28,
265,training(26).mov,True,right,1,vgpdm_dyn(30)-lvm(25)_final(0).mov,0,105,105,108,,,,,,,,16:56:24:339,16:56:25:075,16:56:28:079,right,16:56:28:562,,2018_May_30_1627,59.9593151659,MP-Perception Experiment,xx06w28,
266,training(13).mov,False,right,1,map_gpdm_final(6).mov,0,106,106,83,,,,,,,,16:56:29:339,16:56:30:063,16:56:33:064,right,16:56:33:448,,2018_May_30_1627,59.9593151659,MP-Perception Experiment,xx06w28,
267,vgpdm_dyn(30)-lvm(35)_final(6).mov,True,left,1,training(2).mov,0,107,107,59,,,,,,,,16:56:34:224,16:56:34:949,16:56:37:951,left,16:56:38:252,,2018_May_30_1627,59.9593151659,MP-Perception Experiment,xx06w28,
268,training(30).mov,True,right,1,vgpdm_dyn(20)-lvm(20)_final(1).mov,0,108,108,33,,,,,,,,16:56:39:034,16:56:39:753,16:56:42:740,right,16:56:43:075,,2018_May_30_1627,59.9593151659,MP-Perception Experiment,xx06w28,
269,vgpdm_dyn(30)-lvm(25)_final(7).mov,True,left,1,training(10).mov,0,109,109,43,,,,,,,,16:56:43:841,16:56:44:576,16:56:47:578,right,16:56:48:796,,2018_May_30_1627,59.9593151659,MP-Perception Experiment,xx06w28,
270,vcgpdm_dyn(25)-lvm(25)_final(0).mov,False,left,1,training(21).mov,0,110,110,110,,,,,,,,16:56:49:564,16:56:50:297,16:56:53:300,left,16:56:53:883,,2018_May_30_1627,59.9593151659,MP-Perception Experiment,xx06w28,
271,training(6).mov,True,right,1,vcgpdm_dyn(20)-lvm(10)_final(3).mov,0,111,111,137,,,,,,,,16:56:54:661,16:56:55:385,16:56:58:387,right,16:56:58:921,,2018_May_30_1627,59.9593151659,MP-Perception Experiment,xx06w28,
272,training(38).mov,False,right,1,vcgpdm_dyn(30)-lvm(20)_final(6).mov,0,112,112,126,,,,,,,,16:56:59:694,16:57:00:422,16:57:03:425,right,16:57:03:876,,2018_May_30_1627,59.9593151659,MP-Perception Experiment,xx06w28,
273,training(17).mov,False,right,1,vcgpdm_dyn(15)-lvm(15)_final(7).mov,0,113,113,52,,,,,,,,16:57:04:643,16:57:05:377,16:57:08:380,right,16:57:08:997,,2018_May_30_1627,59.9593151659,MP-Perception Experiment,xx06w28,
274,training(7).mov,True,right,1,vgpdm_dyn(15)-lvm(35)_final(0).mov,0,114,114,35,,,,,,,,16:57:09:798,16:57:10:498,16:57:13:500,left,16:57:13:867,,2018_May_30_1627,59.9593151659,MP-Perception Experiment,xx06w28,
275,training(15).mov,True,right,1,vcgpdm_dyn(20)-lvm(35)_final(7).mov,0,115,115,67,,,,,,,,16:57:14:635,16:57:15:368,16:57:18:372,left,16:57:19:039,,2018_May_30_1627,59.9593151659,MP-Perception Experiment,xx06w28,
276,vgpdm_dyn(35)-lvm(30)_final(0).mov,True,left,1,training(18).mov,0,116,116,105,,,,,,,,16:57:19:816,16:57:20:540,16:57:23:541,left,16:57:23:875,,2018_May_30_1627,59.9593151659,MP-Perception Experiment,xx06w28,
277,training(24).mov,True,right,1,vcgpdm_dyn(10)-lvm(5)_final(8).mov,0,117,117,71,,,,,,,,16:57:24:645,16:57:25:376,16:57:28:378,left,16:57:28:545,,2018_May_30_1627,59.9593151659,MP-Perception Experiment,xx06w28,
278,training(21).mov,True,right,1,vgpdm_dyn(25)-lvm(20)_final(3).mov,0,118,118,100,,,,,,,,16:57:29:326,16:57:30:046,16:57:33:034,right,16:57:33:434,,2018_May_30_1627,59.9593151659,MP-Perception Experiment,xx06w28,
279,training(35).mov,False,right,1,vcgpdm_dyn(5)-lvm(5)_final(3).mov,0,119,119,150,,,,,,,,16:57:34:217,16:57:34:935,16:57:37:939,right,16:57:38:573,,2018_May_30_1627,59.9593151659,MP-Perception Experiment,xx06w28,
280,training(5).mov,False,right,1,dmp_npsi(35)_final(3).mov,0,120,120,103,,,,,,,,16:57:39:351,16:57:40:074,16:57:43:076,left,16:57:43:744,,2018_May_30_1627,59.9593151659,MP-Perception Experiment,xx06w28,
281,vcgpdm_dyn(10)-lvm(15)_final(5).mov,False,left,1,training(20).mov,0,121,121,9,,,,,,,,16:57:45:452,16:57:45:452,16:57:48:264,right,16:57:48:881,,2018_May_30_1627,59.9593151659,MP-Perception Experiment,xx06w28,
282,training(41).mov,False,right,1,vcgpdm_dyn(20)-lvm(25)_final(9).mov,0,122,122,117,,,,,,,,16:57:49:657,16:57:50:399,16:57:53:402,right,16:57:54:036,,2018_May_30_1627,59.9593151659,MP-Perception Experiment,xx06w28,
283,vgpdm_dyn(20)-lvm(5)_final(7).mov,False,left,1,training(38).mov,0,123,123,96,,,,,,,,16:57:54:802,16:57:55:537,16:57:58:556,right,16:57:59:024,,2018_May_30_1627,59.9593151659,MP-Perception Experiment,xx06w28,
284,training(34).mov,True,right,1,vgpdm_dyn(5)-lvm(20)_final(0).mov,0,124,124,45,,,,,,,,16:57:59:793,16:58:00:525,16:58:03:527,right,16:58:04:094,,2018_May_30_1627,59.9593151659,MP-Perception Experiment,xx06w28,
285,vcgpdm_dyn(25)-lvm(30)_final(5).mov,True,left,1,training(27).mov,0,125,125,114,,,,,,,,16:58:04:865,16:58:05:612,16:58:08:598,right,16:58:09:048,,2018_May_30_1627,59.9593151659,MP-Perception Experiment,xx06w28,
286,training(0).mov,False,right,1,vgpdm_dyn(35)-lvm(25)_final(6).mov,0,126,126,36,,,,,,,,16:58:09:824,16:58:10:550,16:58:13:568,right,16:58:13:885,,2018_May_30_1627,59.9593151659,MP-Perception Experiment,xx06w28,
287,training(2).mov,False,right,1,tmp_numprim(2)_final(2).mov,0,127,127,62,,,,,,,,16:58:14:650,16:58:15:386,16:58:18:388,right,16:58:18:789,,2018_May_30_1627,59.9593151659,MP-Perception Experiment,xx06w28,
288,training(12).mov,False,right,1,vcgpdm_dyn(10)-lvm(15)_final(0).mov,0,128,128,76,,,,,,,,16:58:19:556,16:58:20:306,16:58:23:277,left,16:58:23:695,,2018_May_30_1627,59.9593151659,MP-Perception Experiment,xx06w28,
289,vcgpdm_dyn(30)-lvm(25)_final(0).mov,False,left,1,training(3).mov,0,129,129,134,,,,,,,,16:58:24:467,16:58:25:212,16:58:28:215,left,16:58:29:634,,2018_May_30_1627,59.9593151659,MP-Perception Experiment,xx06w28,
290,training(39).mov,False,right,1,vcgpdm_dyn(15)-lvm(35)_final(4).mov,0,130,130,58,,,,,,,,16:58:30:419,16:58:31:135,16:58:34:137,right,16:58:34:604,,2018_May_30_1627,59.9593151659,MP-Perception Experiment,xx06w28,
291,vgpdm_dyn(20)-lvm(15)_final(7).mov,False,left,1,training(37).mov,0,131,131,79,,,,,,,,16:58:35:375,16:58:36:106,16:58:39:125,right,16:58:39:575,,2018_May_30_1627,59.9593151659,MP-Perception Experiment,xx06w28,
292,training(5).mov,False,right,1,vgpdm_dyn(10)-lvm(20)_final(2).mov,0,132,132,66,,,,,,,,16:58:40:347,16:58:41:076,16:58:44:079,right,16:58:44:562,,2018_May_30_1627,59.9593151659,MP-Perception Experiment,xx06w28,
293,training(40).mov,False,right,1,vgpdm_dyn(20)-lvm(15)_final(2).mov,0,133,133,86,,,,,,,,16:58:45:572,16:58:46:081,16:58:49:067,right,16:58:49:501,,2018_May_30_1627,59.9593151659,MP-Perception Experiment,xx06w28,
294,vcgpdm_dyn(10)-lvm(5)_final(0).mov,False,left,1,training(36).mov,0,134,134,145,,,,,,,,16:58:50:280,16:58:51:002,16:58:54:021,right,16:58:54:404,,2018_May_30_1627,59.9593151659,MP-Perception Experiment,xx06w28,
295,vcgpdm_dyn(25)-lvm(30)_final(3).mov,True,left,1,training(15).mov,0,135,135,90,,,,,,,,16:58:55:184,16:58:55:906,16:58:58:925,right,16:58:59:425,,2018_May_30_1627,59.9593151659,MP-Perception Experiment,xx06w28,
296,vcgpdm_dyn(20)-lvm(15)_final(1).mov,True,left,1,training(13).mov,0,136,136,153,,,,,,,,16:59:00:199,16:59:00:941,16:59:03:928,left,16:59:04:262,,2018_May_30_1627,59.9593151659,MP-Perception Experiment,xx06w28,
297,dmp_npsi(20)_final(7).mov,True,left,1,training(13).mov,0,137,137,91,,,,,,,,16:59:05:040,16:59:05:763,16:59:08:765,left,16:59:09:066,,2018_May_30_1627,59.9593151659,MP-Perception Experiment,xx06w28,
298,vgpdm_dyn(15)-lvm(15)_final(5).mov,True,left,1,training(48).mov,0,138,138,34,,,,,,,,16:59:09:839,16:59:10:567,16:59:13:554,right,16:59:13:971,,2018_May_30_1627,59.9593151659,MP-Perception Experiment,xx06w28,
299,vcgpdm_dyn(10)-lvm(25)_final(0).mov,True,left,1,training(5).mov,0,139,139,111,,,,,,,,16:59:14:745,16:59:15:472,16:59:18:475,right,16:59:19:709,,2018_May_30_1627,59.9593151659,MP-Perception Experiment,xx06w28,
300,vgpdm_dyn(35)-lvm(10)_final(7).mov,False,left,1,training(20).mov,0,140,140,125,,,,,,,,16:59:20:485,16:59:21:211,16:59:24:214,left,16:59:24:814,,2018_May_30_1627,59.9593151659,MP-Perception Experiment,xx06w28,
301,vgpdm_dyn(15)-lvm(30)_final(6).mov,False,left,1,training(1).mov,0,141,141,74,,,,,,,,16:59:25:624,16:59:26:332,16:59:29:318,left,16:59:30:252,,2018_May_30_1627,59.9593151659,MP-Perception Experiment,xx06w28,
302,dmp_npsi(35)_final(6).mov,False,left,1,training(22).mov,0,142,142,10,,,,,,,,16:59:31:031,16:59:31:753,16:59:34:772,right,16:59:35:289,,2018_May_30_1627,59.9593151659,MP-Perception Experiment,xx06w28,
303,vgpdm_dyn(10)-lvm(30)_final(4).mov,False,left,1,training(33).mov,0,143,143,47,,,,,,,,16:59:36:064,16:59:36:791,16:59:39:794,left,16:59:40:395,,2018_May_30_1627,59.9593151659,MP-Perception Experiment,xx06w28,
304,training(24).mov,True,right,1,vcgpdm_dyn(5)-lvm(5)_final(0).mov,0,144,144,16,,,,,,,,16:59:41:180,16:59:41:896,16:59:44:915,left,16:59:45:699,,2018_May_30_1627,59.9593151659,MP-Perception Experiment,xx06w28,
305,training(21).mov,False,right,1,vcgpdm_dyn(25)-lvm(10)_final(3).mov,0,145,145,154,,,,,,,,16:59:46:478,16:59:47:217,16:59:50:203,right,16:59:50:686,,2018_May_30_1627,59.9593151659,MP-Perception Experiment,xx06w28,
306,training(8).mov,False,right,1,vcgpdm_dyn(10)-lvm(35)_final(5).mov,0,146,146,87,,,,,,,,16:59:51:469,16:59:52:202,16:59:55:205,right,16:59:55:789,,2018_May_30_1627,59.9593151659,MP-Perception Experiment,xx06w28,
307,vcgpdm_dyn(10)-lvm(15)_final(1).mov,True,left,1,training(16).mov,0,147,147,32,,,,,,,,16:59:56:572,16:59:57:291,17:00:00:293,right,17:00:00:677,,2018_May_30_1627,59.9593151659,MP-Perception Experiment,xx06w28,
308,training(29).mov,False,right,1,tmp_numprim(3)_final(2).mov,0,148,148,107,,,,,,,,17:00:01:467,17:00:02:178,17:00:05:182,right,17:00:05:833,,2018_May_30_1627,59.9593151659,MP-Perception Experiment,xx06w28,
309,vcgpdm_dyn(30)-lvm(30)_final(1).mov,False,left,1,training(24).mov,0,149,149,19,,,,,,,,17:00:06:617,17:00:07:351,17:00:10:336,left,17:00:11:037,,2018_May_30_1627,59.9593151659,MP-Perception Experiment,xx06w28,
310,vgpdm_dyn(10)-lvm(35)_final(5).mov,True,left,1,training(40).mov,0,150,150,131,,,,,,,,17:00:11:807,17:00:12:538,17:00:15:542,right,17:00:16:226,,2018_May_30_1627,59.9593151659,MP-Perception Experiment,xx06w28,
311,training(34).mov,False,right,1,vgpdm_dyn(15)-lvm(5)_final(6).mov,0,151,151,130,,,,,,,,17:00:17:010,17:00:17:727,17:00:20:729,right,17:00:21:263,,2018_May_30_1627,59.9593151659,MP-Perception Experiment,xx06w28,
312,training(23).mov,False,right,1,vcgpdm_dyn(25)-lvm(10)_final(8).mov,0,152,152,20,,,,,,,,17:00:22:044,17:00:22:764,17:00:25:783,right,17:00:26:267,,2018_May_30_1627,59.9593151659,MP-Perception Experiment,xx06w28,
313,training(24).mov,False,right,1,vgpdm_dyn(25)-lvm(30)_final(8).mov,0,153,153,147,,,,,,,,17:00:27:038,17:00:27:785,17:00:30:771,right,17:00:31:372,,2018_May_30_1627,59.9593151659,MP-Perception Experiment,xx06w28,
314,training(23).mov,True,right,1,vcgpdm_dyn(10)-lvm(25)_final(3).mov,0,154,154,37,,,,,,,,17:00:32:148,17:00:32:873,17:00:35:876,right,17:00:36:626,,2018_May_30_1627,59.9593151659,MP-Perception Experiment,xx06w28,
315,vgpdm_dyn(25)-lvm(30)_final(9).mov,True,left,1,training(11).mov,0,155,155,40,,,,,,,,17:00:37:424,17:00:38:127,17:00:41:128,left,17:00:41:562,,2018_May_30_1627,59.9593151659,MP-Perception Experiment,xx06w28,
316,dmp_npsi(15)_final(9).mov,True,left,1,training(29).mov,0,156,156,49,,,,,,,,17:00:42:343,17:00:43:063,17:00:46:065,left,17:00:46:349,,2018_May_30_1627,59.9593151659,MP-Perception Experiment,xx06w28,
317,training(9).mov,False,right,1,vcgpdm_dyn(10)-lvm(5)_final(9).mov,0,157,157,156,,,,,,,,17:00:47:132,17:00:47:851,17:00:50:854,right,17:00:51:187,,2018_May_30_1627,59.9593151659,MP-Perception Experiment,xx06w28,
318,vcgpdm_dyn(5)-lvm(5)_final(9).mov,True,left,1,training(33).mov,0,158,158,140,,,,,,,,17:00:51:970,17:00:52:688,17:00:55:676,left,17:00:56:060,,2018_May_30_1627,59.9593151659,MP-Perception Experiment,xx06w28,
319,vcgpdm_dyn(10)-lvm(10)_final(8).mov,False,left,2,training(2).mov,0,0,0,78,,,,,,,,17:07:04:223,17:07:04:945,17:07:07:931,right,17:07:08:565,,2018_May_30_1627,59.9593151659,MP-Perception Experiment,xx06w28,
320,training(14).mov,True,right,2,vcgpdm_dyn(35)-lvm(5)_final(8).mov,0,1,1,70,,,,,,,,17:07:09:342,17:07:10:082,17:07:13:086,right,17:07:13:753,,2018_May_30_1627,59.9593151659,MP-Perception Experiment,xx06w28,
321,training(33).mov,False,right,2,tmp_numprim(4)_final(4).mov,0,2,2,26,,,,,,,,17:07:14:526,17:07:15:254,17:07:18:257,right,17:07:18:740,,2018_May_30_1627,59.9593151659,MP-Perception Experiment,xx06w28,
322,vgpdm_dyn(5)-lvm(15)_final(7).mov,True,left,2,training(38).mov,0,3,3,37,,,,,,,,17:07:19:527,17:07:20:242,17:07:23:242,left,17:07:23:593,,2018_May_30_1627,59.9593151659,MP-Perception Experiment,xx06w28,
323,vgpdm_dyn(5)-lvm(10)_final(7).mov,False,left,2,training(28).mov,0,4,4,129,,,,,,,,17:07:24:363,17:07:25:111,17:07:28:096,left,17:07:28:430,,2018_May_30_1627,59.9593151659,MP-Perception Experiment,xx06w28,
324,tmp_numprim(5)_final(1).mov,False,left,2,training(6).mov,0,5,5,87,,,,,,,,17:07:29:210,17:07:29:932,17:07:32:920,left,17:07:33:303,,2018_May_30_1627,59.9593151659,MP-Perception Experiment,xx06w28,
325,vgpdm_dyn(30)-lvm(30)_final(8).mov,True,left,2,training(11).mov,0,6,6,106,,,,,,,,17:07:34:086,17:07:34:804,17:07:37:807,left,17:07:38:424,,2018_May_30_1627,59.9593151659,MP-Perception Experiment,xx06w28,
326,training(14).mov,False,right,2,vgpdm_dyn(30)-lvm(35)_final(2).mov,0,7,7,63,,,,,,,,17:07:39:201,17:07:39:925,17:07:42:928,left,17:07:43:445,,2018_May_30_1627,59.9593151659,MP-Perception Experiment,xx06w28,
327,vgpdm_dyn(10)-lvm(15)_final(8).mov,True,left,2,training(5).mov,0,8,8,138,,,,,,,,17:07:44:236,17:07:44:946,17:07:47:966,left,17:07:48:400,,2018_May_30_1627,59.9593151659,MP-Perception Experiment,xx06w28,
328,vgpdm_dyn(25)-lvm(35)_final(2).mov,True,left,2,training(29).mov,0,9,9,152,,,,,,,,17:07:49:163,17:07:49:901,17:07:52:903,left,17:07:53:337,,2018_May_30_1627,59.9593151659,MP-Perception Experiment,xx06w28,
329,vcgpdm_dyn(15)-lvm(5)_final(2).mov,False,left,2,training(29).mov,0,10,10,8,,,,,,,,17:07:54:103,17:07:54:838,17:07:57:841,right,17:07:58:591,,2018_May_30_1627,59.9593151659,MP-Perception Experiment,xx06w28,
330,training(32).mov,True,right,2,vcgpdm_dyn(25)-lvm(20)_final(8).mov,0,11,11,89,,,,,,,,17:07:59:365,17:08:00:092,17:08:03:112,right,17:08:03:963,,2018_May_30_1627,59.9593151659,MP-Perception Experiment,xx06w28,
331,vgpdm_dyn(35)-lvm(25)_final(6).mov,False,left,2,training(9).mov,0,12,12,77,,,,,,,,17:08:04:730,17:08:05:481,17:08:08:467,left,17:08:08:984,,2018_May_30_1627,59.9593151659,MP-Perception Experiment,xx06w28,
332,dmp_npsi(30)_final(2).mov,True,left,2,training(41).mov,0,13,13,41,,,,,,,,17:08:09:765,17:08:10:485,17:08:13:486,left,17:08:13:920,,2018_May_30_1627,59.9593151659,MP-Perception Experiment,xx06w28,
333,training(22).mov,True,right,2,vcgpdm_dyn(25)-lvm(20)_final(2).mov,0,14,14,62,,,,,,,,17:08:14:708,17:08:15:437,17:08:18:423,right,17:08:18:940,,2018_May_30_1627,59.9593151659,MP-Perception Experiment,xx06w28,
334,training(2).mov,True,right,2,vcgpdm_dyn(35)-lvm(20)_final(8).mov,0,15,15,153,,,,,,,,17:08:19:711,17:08:20:441,17:08:23:430,right,17:08:24:031,,2018_May_30_1627,59.9593151659,MP-Perception Experiment,xx06w28,
335,training(33).mov,True,right,2,dmp_npsi(40)_final(4).mov,0,16,16,14,,,,,,,,17:08:24:803,17:08:25:532,17:08:28:551,left,17:08:29:168,,2018_May_30_1627,59.9593151659,MP-Perception Experiment,xx06w28,
336,vcgpdm_dyn(25)-lvm(15)_final(6).mov,True,left,2,training(18).mov,0,17,17,157,,,,,,,,17:08:29:947,17:08:30:669,17:08:33:672,left,17:08:34:205,,2018_May_30_1627,59.9593151659,MP-Perception Experiment,xx06w28,
337,vcgpdm_dyn(25)-lvm(15)_final(1).mov,False,left,2,training(35).mov,0,18,18,66,,,,,,,,17:08:34:976,17:08:35:706,17:08:38:709,right,17:08:39:259,,2018_May_30_1627,59.9593151659,MP-Perception Experiment,xx06w28,
338,dmp_npsi(15)_final(5).mov,False,left,2,training(0).mov,0,19,19,85,,,,,,,,17:08:40:026,17:08:40:762,17:08:43:764,left,17:08:44:381,,2018_May_30_1627,59.9593151659,MP-Perception Experiment,xx06w28,
339,training(28).mov,True,right,2,vcgpdm_dyn(20)-lvm(30)_final(0).mov,0,20,20,155,,,,,,,,17:08:45:596,17:08:46:099,17:08:48:901,right,17:08:49:685,,2018_May_30_1627,59.9593151659,MP-Perception Experiment,xx06w28,
340,vcgpdm_dyn(20)-lvm(5)_final(4).mov,True,left,2,training(38).mov,0,21,21,104,,,,,,,,17:08:50:463,17:08:51:187,17:08:54:189,left,17:08:55:223,,2018_May_30_1627,59.9593151659,MP-Perception Experiment,xx06w28,
341,vcgpdm_dyn(10)-lvm(30)_final(0).mov,True,left,2,training(15).mov,0,22,22,36,,,,,,,,17:08:56:012,17:08:56:724,17:08:59:728,right,17:09:00:779,,2018_May_30_1627,59.9593151659,MP-Perception Experiment,xx06w28,
342,vcgpdm_dyn(30)-lvm(20)_final(2).mov,False,left,2,training(19).mov,0,23,23,28,,,,,,,,17:09:01:564,17:09:02:295,17:09:05:297,right,17:09:05:915,,2018_May_30_1627,59.9593151659,MP-Perception Experiment,xx06w28,
343,training(11).mov,False,right,2,vgpdm_dyn(5)-lvm(15)_final(5).mov,0,24,24,151,,,,,,,,17:09:06:699,17:09:07:416,17:09:10:418,right,17:09:11:002,,2018_May_30_1627,59.9593151659,MP-Perception Experiment,xx06w28,
344,vgpdm_dyn(5)-lvm(10)_final(0).mov,True,left,2,training(11).mov,0,25,25,30,,,,,,,,17:09:11:779,17:09:12:503,17:09:15:492,left,17:09:16:126,,2018_May_30_1627,59.9593151659,MP-Perception Experiment,xx06w28,
345,vcgpdm_dyn(5)-lvm(15)_final(6).mov,True,left,2,training(15).mov,0,26,26,94,,,,,,,,17:09:16:907,17:09:17:627,17:09:20:646,left,17:09:21:230,,2018_May_30_1627,59.9593151659,MP-Perception Experiment,xx06w28,
346,vcgpdm_dyn(10)-lvm(10)_final(3).mov,False,left,2,training(30).mov,0,27,27,54,,,,,,,,17:09:22:016,17:09:22:731,17:09:25:734,right,17:09:26:567,,2018_May_30_1627,59.9593151659,MP-Perception Experiment,xx06w28,
347,vgpdm_dyn(35)-lvm(5)_final(3).mov,True,left,2,training(30).mov,0,28,28,128,,,,,,,,17:09:27:335,17:09:28:068,17:09:31:088,right,17:09:32:673,,2018_May_30_1627,59.9593151659,MP-Perception Experiment,xx06w28,
348,training(4).mov,True,right,2,dmp_npsi(40)_final(1).mov,0,29,29,53,,,,,,,,17:09:33:447,17:09:34:174,17:09:37:177,left,17:09:37:978,,2018_May_30_1627,59.9593151659,MP-Perception Experiment,xx06w28,
349,training(7).mov,True,right,2,tmp_numprim(7)_final(0).mov,0,30,30,92,,,,,,,,17:09:38:747,17:09:39:479,17:09:42:481,right,17:09:43:048,,2018_May_30_1627,59.9593151659,MP-Perception Experiment,xx06w28,
350,training(33).mov,False,right,2,vgpdm_dyn(25)-lvm(35)_final(5).mov,0,31,31,69,,,,,,,,17:09:43:816,17:09:44:549,17:09:47:569,left,17:09:48:219,,2018_May_30_1627,59.9593151659,MP-Perception Experiment,xx06w28,
351,vgpdm_dyn(15)-lvm(35)_final(0).mov,True,left,2,training(5).mov,0,32,32,112,,,,,,,,17:09:49:006,17:09:49:720,17:09:52:722,left,17:09:53:122,,2018_May_30_1627,59.9593151659,MP-Perception Experiment,xx06w28,
352,training(1).mov,True,right,2,vgpdm_dyn(25)-lvm(35)_final(2).mov,0,33,33,131,,,,,,,,17:09:53:889,17:09:54:623,17:09:57:626,left,17:09:57:959,,2018_May_30_1627,59.9593151659,MP-Perception Experiment,xx06w28,
353,training(34).mov,True,right,2,vcgpdm_dyn(20)-lvm(10)_final(4).mov,0,34,34,93,,,,,,,,17:09:58:732,17:09:59:461,17:10:02:463,right,17:10:02:932,,2018_May_30_1627,59.9593151659,MP-Perception Experiment,xx06w28,
354,vgpdm_dyn(30)-lvm(25)_final(5).mov,True,left,2,training(6).mov,0,35,35,139,,,,,,,,17:10:03:719,17:10:04:433,17:10:07:437,left,17:10:08:004,,2018_May_30_1627,59.9593151659,MP-Perception Experiment,xx06w28,
355,training(8).mov,False,right,2,vgpdm_dyn(30)-lvm(10)_final(4).mov,0,36,36,55,,,,,,,,17:10:08:779,17:10:09:505,17:10:12:508,right,17:10:13:125,,2018_May_30_1627,59.9593151659,MP-Perception Experiment,xx06w28,
356,training(2).mov,False,right,2,tmp_numprim(8)_final(5).mov,0,37,37,115,,,,,,,,17:10:13:894,17:10:14:642,17:10:17:628,left,17:10:18:079,,2018_May_30_1627,59.9593151659,MP-Perception Experiment,xx06w28,
357,vgpdm_dyn(20)-lvm(35)_final(9).mov,True,left,2,training(5).mov,0,38,38,38,,,,,,,,17:10:18:848,17:10:19:580,17:10:22:599,left,17:10:22:983,,2018_May_30_1627,59.9593151659,MP-Perception Experiment,xx06w28,
358,vgpdm_dyn(10)-lvm(25)_final(4).mov,False,left,2,training(0).mov,0,39,39,47,,,,,,,,17:10:23:766,17:10:24:484,17:10:27:487,left,17:10:28:004,,2018_May_30_1627,59.9593151659,MP-Perception Experiment,xx06w28,
359,training(15).mov,False,right,2,vcgpdm_dyn(15)-lvm(35)_final(0).mov,0,40,40,124,,,,,,,,17:10:28:812,17:10:29:506,17:10:32:525,right,17:10:33:008,,2018_May_30_1627,59.9593151659,MP-Perception Experiment,xx06w28,
360,training(13).mov,True,right,2,tmp_numprim(3)_final(6).mov,0,41,41,135,,,,,,,,17:10:33:790,17:10:34:509,17:10:37:512,right,17:10:37:962,,2018_May_30_1627,59.9593151659,MP-Perception Experiment,xx06w28,
361,vgpdm_dyn(25)-lvm(30)_final(5).mov,False,left,2,training(28).mov,0,42,42,27,,,,,,,,17:10:38:731,17:10:39:480,17:10:42:465,right,17:10:42:866,,2018_May_30_1627,59.9593151659,MP-Perception Experiment,xx06w28,
362,training(38).mov,False,right,2,vgpdm_dyn(15)-lvm(15)_final(0).mov,0,43,43,109,,,,,,,,17:10:43:651,17:10:44:367,17:10:47:369,right,17:10:47:703,,2018_May_30_1627,59.9593151659,MP-Perception Experiment,xx06w28,
363,training(26).mov,False,right,2,dmp_npsi(25)_final(0).mov,0,44,44,57,,,,,,,,17:10:48:479,17:10:49:220,17:10:52:206,right,17:10:52:590,,2018_May_30_1627,59.9593151659,MP-Perception Experiment,xx06w28,
364,training(23).mov,False,right,2,vcgpdm_dyn(10)-lvm(35)_final(9).mov,0,45,45,133,,,,,,,,17:10:53:378,17:10:54:091,17:10:57:079,right,17:10:57:696,,2018_May_30_1627,59.9593151659,MP-Perception Experiment,xx06w28,
365,vgpdm_dyn(25)-lvm(20)_final(1).mov,True,left,2,training(17).mov,0,46,46,44,,,,,,,,17:10:58:484,17:10:59:197,17:11:02:200,left,17:11:02:968,,2018_May_30_1627,59.9593151659,MP-Perception Experiment,xx06w28,
366,training(40).mov,False,right,2,map_gpdm_final(5).mov,0,47,47,143,,,,,,,,17:11:03:735,17:11:04:469,17:11:07:471,right,17:11:08:022,,2018_May_30_1627,59.9593151659,MP-Perception Experiment,xx06w28,
367,training(15).mov,False,right,2,vcgpdm_dyn(30)-lvm(5)_final(6).mov,0,48,48,154,,,,,,,,17:11:08:786,17:11:09:540,17:11:12:542,right,17:11:13:026,,2018_May_30_1627,59.9593151659,MP-Perception Experiment,xx06w28,
368,vcgpdm_dyn(35)-lvm(25)_final(3).mov,True,left,2,training(15).mov,0,49,49,147,,,,,,,,17:11:13:795,17:11:14:527,17:11:17:530,left,17:11:18:064,,2018_May_30_1627,59.9593151659,MP-Perception Experiment,xx06w28,
369,vcgpdm_dyn(15)-lvm(10)_final(6).mov,True,left,2,training(19).mov,0,50,50,25,,,,,,,,17:11:18:833,17:11:19:565,17:11:22:568,left,17:11:23:102,,2018_May_30_1627,59.9593151659,MP-Perception Experiment,xx06w28,
370,training(48).mov,True,right,2,vcgpdm_dyn(30)-lvm(5)_final(8).mov,0,51,51,16,,,,,,,,17:11:23:886,17:11:24:603,17:11:27:622,left,17:11:28:189,,2018_May_30_1627,59.9593151659,MP-Perception Experiment,xx06w28,
371,training(37).mov,True,right,2,vgpdm_dyn(5)-lvm(30)_final(0).mov,0,52,52,113,,,,,,,,17:11:28:964,17:11:29:707,17:11:32:691,left,17:11:33:275,,2018_May_30_1627,59.9593151659,MP-Perception Experiment,xx06w28,
372,training(26).mov,False,right,2,dmp_npsi(10)_final(5)_bad.mov,0,53,53,88,,,,,,,,17:11:34:067,17:11:34:777,17:11:37:779,right,17:11:38:113,,2018_May_30_1627,59.9593151659,MP-Perception Experiment,xx06w28,
373,training(36).mov,False,right,2,vgpdm_dyn(35)-lvm(35)_final(7).mov,0,54,54,103,,,,,,,,17:11:38:892,17:11:39:631,17:11:42:619,right,17:11:42:935,,2018_May_30_1627,59.9593151659,MP-Perception Experiment,xx06w28,
374,training(31).mov,False,right,2,vgpdm_dyn(25)-lvm(5)_final(9).mov,0,55,55,11,,,,,,,,17:11:43:696,17:11:44:436,17:11:47:439,right,17:11:47:956,,2018_May_30_1627,59.9593151659,MP-Perception Experiment,xx06w28,
375,training(8).mov,False,right,2,tmp_numprim(2)_final(8).mov,0,56,56,32,,,,,,,,17:11:48:729,17:11:49:458,17:11:52:461,right,17:11:53:044,,2018_May_30_1627,59.9593151659,MP-Perception Experiment,xx06w28,
376,training(27).mov,False,right,2,vcgpdm_dyn(25)-lvm(35)_final(1).mov,0,57,57,117,,,,,,,,17:11:53:826,17:11:54:546,17:11:57:548,right,17:11:58:149,,2018_May_30_1627,59.9593151659,MP-Perception Experiment,xx06w28,
377,vgpdm_dyn(10)-lvm(15)_final(8).mov,False,left,2,training(31).mov,0,58,58,90,,,,,,,,17:11:58:919,17:11:59:650,17:12:02:653,right,17:12:03:119,,2018_May_30_1627,59.9593151659,MP-Perception Experiment,xx06w28,
378,vcgpdm_dyn(25)-lvm(5)_final(3).mov,False,left,2,training(14).mov,0,59,59,52,,,,,,,,17:12:03:893,17:12:04:620,17:12:07:623,left,17:12:08:290,,2018_May_30_1627,59.9593151659,MP-Perception Experiment,xx06w28,
379,training(40).mov,True,right,2,dmp_npsi(50)_final(4).mov,0,60,60,23,,,,,,,,17:12:09:070,17:12:09:792,17:12:12:795,left,17:12:13:379,,2018_May_30_1627,59.9593151659,MP-Perception Experiment,xx06w28,
380,vgpdm_dyn(5)-lvm(25)_final(6)_out_of_screen.mov,True,left,2,training(21).mov,0,61,61,43,,,,,,,,17:12:14:169,17:12:14:880,17:12:17:899,left,17:12:18:399,,2018_May_30_1627,59.9593151659,MP-Perception Experiment,xx06w28,
381,training(24).mov,True,right,2,vcgpdm_dyn(35)-lvm(5)_final(6).mov,0,62,62,102,,,,,,,,17:12:19:181,17:12:19:900,17:12:22:901,right,17:12:23:535,,2018_May_30_1627,59.9593151659,MP-Perception Experiment,xx06w28,
382,training(6).mov,False,right,2,dmp_npsi(35)_final(0).mov,0,63,63,123,,,,,,,,17:12:24:298,17:12:25:036,17:12:28:040,right,17:12:28:390,,2018_May_30_1627,59.9593151659,MP-Perception Experiment,xx06w28,
383,vcgpdm_dyn(35)-lvm(10)_final(3).mov,True,left,2,training(39).mov,0,64,64,108,,,,,,,,17:12:29:160,17:12:29:891,17:12:32:893,right,17:12:33:277,,2018_May_30_1627,59.9593151659,MP-Perception Experiment,xx06w28,
384,vcgpdm_dyn(10)-lvm(15)_final(8).mov,False,left,2,training(40).mov,0,65,65,137,,,,,,,,17:12:34:063,17:12:34:778,17:12:37:783,right,17:12:38:984,,2018_May_30_1627,59.9593151659,MP-Perception Experiment,xx06w28,
385,training(24).mov,True,right,2,vcgpdm_dyn(10)-lvm(5)_final(8).mov,0,66,66,0,,,,,,,,17:12:39:748,17:12:40:501,17:12:43:504,right,17:12:44:105,,2018_May_30_1627,59.9593151659,MP-Perception Experiment,xx06w28,
386,training(5).mov,True,right,2,tmp_numprim(3)_final(9).mov,0,67,67,71,,,,,,,,17:12:45:689,17:12:45:689,17:12:48:642,right,17:12:49:159,,2018_May_30_1627,59.9593151659,MP-Perception Experiment,xx06w28,
387,vcgpdm_dyn(30)-lvm(30)_final(7).mov,True,left,2,training(39).mov,0,68,68,142,,,,,,,,17:12:49:934,17:12:50:661,17:12:53:663,left,17:12:54:147,,2018_May_30_1627,59.9593151659,MP-Perception Experiment,xx06w28,
388,tmp_numprim(6)_final(6).mov,False,left,2,training(5).mov,0,69,69,140,,,,,,,,17:12:54:921,17:12:55:648,17:12:58:667,right,17:12:59:218,,2018_May_30_1627,59.9593151659,MP-Perception Experiment,xx06w28,
389,dmp_npsi(50)_final(2).mov,False,left,2,training(33).mov,0,70,70,10,,,,,,,,17:13:00:011,17:13:00:719,17:13:03:723,right,17:13:04:256,,2018_May_30_1627,59.9593151659,MP-Perception Experiment,xx06w28,
390,map_gpdm_final(0).mov,False,left,2,training(15).mov,0,71,71,150,,,,,,,,17:13:05:029,17:13:05:757,17:13:08:760,left,17:13:09:293,,2018_May_30_1627,59.9593151659,MP-Perception Experiment,xx06w28,
391,training(36).mov,False,right,2,vgpdm_dyn(10)-lvm(15)_final(4).mov,0,72,72,121,,,,,,,,17:13:10:066,17:13:10:795,17:13:13:795,left,17:13:14:162,,2018_May_30_1627,59.9593151659,MP-Perception Experiment,xx06w28,
392,vgpdm_dyn(20)-lvm(15)_final(2).mov,True,left,2,training(19).mov,0,73,73,120,,,,,,,,17:13:14:940,17:13:15:680,17:13:18:666,left,17:13:18:933,,2018_May_30_1627,59.9593151659,MP-Perception Experiment,xx06w28,
393,training(13).mov,False,right,2,vgpdm_dyn(10)-lvm(30)_final(8).mov,0,74,74,24,,,,,,,,17:13:19:711,17:13:20:435,17:13:23:439,right,17:13:24:307,,2018_May_30_1627,59.9593151659,MP-Perception Experiment,xx06w28,
394,training(3).mov,True,right,2,vgpdm_dyn(35)-lvm(10)_final(5).mov,0,75,75,79,,,,,,,,17:13:25:080,17:13:25:824,17:13:28:810,left,17:13:29:377,,2018_May_30_1627,59.9593151659,MP-Perception Experiment,xx06w28,
395,vcgpdm_dyn(5)-lvm(15)_final(1).mov,False,left,2,training(32).mov,0,76,76,134,,,,,,,,17:13:30:147,17:13:30:878,17:13:33:898,right,17:13:34:748,,2018_May_30_1627,59.9593151659,MP-Perception Experiment,xx06w28,
396,vgpdm_dyn(35)-lvm(30)_final(7).mov,True,left,2,training(5).mov,0,77,77,50,,,,,,,,17:13:35:536,17:13:36:249,17:13:39:253,left,17:13:39:570,,2018_May_30_1627,59.9593151659,MP-Perception Experiment,xx06w28,
397,training(12).mov,False,right,2,vgpdm_dyn(5)-lvm(10)_final(3).mov,0,78,78,12,,,,,,,,17:13:40:329,17:13:41:071,17:13:44:074,right,17:13:44:574,,2018_May_30_1627,59.9593151659,MP-Perception Experiment,xx06w28,
398,vgpdm_dyn(10)-lvm(20)_final(0).mov,False,left,2,training(34).mov,0,79,79,116,,,,,,,,17:13:45:569,17:13:46:092,17:13:49:078,right,17:13:49:645,,2018_May_30_1627,59.9593151659,MP-Perception Experiment,xx06w28,
399,training(7).mov,False,right,2,vcgpdm_dyn(35)-lvm(15)_final(1)_out_of_screen.mov,0,80,80,95,,,,,,,,17:13:50:413,17:13:51:146,17:13:54:148,right,17:13:54:633,,2018_May_30_1627,59.9593151659,MP-Perception Experiment,xx06w28,
400,vcgpdm_dyn(5)-lvm(20)_final(6).mov,True,left,2,training(14).mov,0,81,81,127,,,,,,,,17:13:55:421,17:13:56:134,17:13:59:137,left,17:13:59:654,,2018_May_30_1627,59.9593151659,MP-Perception Experiment,xx06w28,
401,training(48).mov,True,right,2,vcgpdm_dyn(15)-lvm(5)_final(8).mov,0,82,82,6,,,,,,,,17:14:00:436,17:14:01:170,17:14:04:155,right,17:14:04:456,,2018_May_30_1627,59.9593151659,MP-Perception Experiment,xx06w28,
402,vcgpdm_dyn(35)-lvm(30)_final(0).mov,False,left,2,training(0).mov,0,83,83,82,,,,,,,,17:14:05:257,17:14:05:957,17:14:08:959,left,17:14:09:326,,2018_May_30_1627,59.9593151659,MP-Perception Experiment,xx06w28,
403,vgpdm_dyn(5)-lvm(10)_final(9).mov,True,left,2,training(29).mov,0,84,84,156,,,,,,,,17:14:10:108,17:14:10:827,17:14:13:816,left,17:14:14:116,,2018_May_30_1627,59.9593151659,MP-Perception Experiment,xx06w28,
404,training(29).mov,False,right,2,dmp_npsi(50)_final(5).mov,0,85,85,149,,,,,,,,17:14:14:880,17:14:15:617,17:14:18:620,right,17:14:19:187,,2018_May_30_1627,59.9593151659,MP-Perception Experiment,xx06w28,
405,vcgpdm_dyn(35)-lvm(30)_final(3).mov,False,left,2,training(27).mov,0,86,86,45,,,,,,,,17:14:19:968,17:14:20:688,17:14:23:691,left,17:14:24:291,,2018_May_30_1627,59.9593151659,MP-Perception Experiment,xx06w28,
406,training(23).mov,False,right,2,vcgpdm_dyn(15)-lvm(30)_final(7).mov,0,87,87,1,,,,,,,,17:14:25:068,17:14:25:809,17:14:28:812,right,17:14:29:797,,2018_May_30_1627,59.9593151659,MP-Perception Experiment,xx06w28,
407,training(16).mov,True,right,2,map_cgpdm_final(3).mov,0,88,88,75,,,,,,,,17:14:30:589,17:14:31:298,17:14:34:300,right,17:14:34:851,,2018_May_30_1627,59.9593151659,MP-Perception Experiment,xx06w28,
408,training(22).mov,False,right,2,vgpdm_dyn(15)-lvm(35)_final(5).mov,0,89,89,13,,,,,,,,17:14:35:631,17:14:36:352,17:14:39:355,right,17:14:39:788,,2018_May_30_1627,59.9593151659,MP-Perception Experiment,xx06w28,
409,training(5).mov,True,right,2,vcgpdm_dyn(30)-lvm(25)_final(3).mov,0,90,90,40,,,,,,,,17:14:40:564,17:14:41:289,17:14:44:308,right,17:14:44:759,,2018_May_30_1627,59.9593151659,MP-Perception Experiment,xx06w28,
410,vcgpdm_dyn(5)-lvm(5)_final(1).mov,False,left,2,training(22).mov,0,91,91,83,,,,,,,,17:14:45:665,17:14:46:260,17:14:49:263,left,17:14:50:047,,2018_May_30_1627,59.9593151659,MP-Perception Experiment,xx06w28,
411,vgpdm_dyn(35)-lvm(5)_final(8).mov,False,left,2,training(17).mov,0,92,92,111,,,,,,,,17:14:50:814,17:14:51:563,17:14:54:549,right,17:14:55:083,,2018_May_30_1627,59.9593151659,MP-Perception Experiment,xx06w28,
412,vcgpdm_dyn(15)-lvm(20)_final(3).mov,True,left,2,training(7).mov,0,93,93,22,,,,,,,,17:14:55:848,17:14:56:601,17:14:59:586,left,17:14:59:904,,2018_May_30_1627,59.9593151659,MP-Perception Experiment,xx06w28,
413,vgpdm_dyn(20)-lvm(35)_final(6).mov,False,left,2,training(1).mov,0,94,94,145,,,,,,,,17:15:00:678,17:15:01:421,17:15:04:392,left,17:15:05:127,,2018_May_30_1627,59.9593151659,MP-Perception Experiment,xx06w28,
414,vgpdm_dyn(30)-lvm(25)_final(7).mov,False,left,2,training(2).mov,0,95,95,91,,,,,,,,17:15:05:894,17:15:06:629,17:15:09:631,right,17:15:10:165,,2018_May_30_1627,59.9593151659,MP-Perception Experiment,xx06w28,
415,training(28).mov,True,right,2,vcgpdm_dyn(20)-lvm(25)_final(1).mov,0,96,96,18,,,,,,,,17:15:10:928,17:15:11:666,17:15:14:668,left,17:15:15:202,,2018_May_30_1627,59.9593151659,MP-Perception Experiment,xx06w28,
416,training(39).mov,True,right,2,vcgpdm_dyn(25)-lvm(10)_final(4).mov,0,97,97,114,,,,,,,,17:15:16:016,17:15:16:703,17:15:19:706,left,17:15:20:473,,2018_May_30_1627,59.9593151659,MP-Perception Experiment,xx06w28,
417,vgpdm_dyn(30)-lvm(35)_final(5).mov,False,left,2,training(6).mov,0,98,98,5,,,,,,,,17:15:21:255,17:15:21:975,17:15:24:994,right,17:15:25:678,,2018_May_30_1627,59.9593151659,MP-Perception Experiment,xx06w28,
418,training(36).mov,False,right,2,map_cgpdm_final(1).mov,0,99,99,72,,,,,,,,17:15:26:449,17:15:27:179,17:15:30:198,right,17:15:30:715,,2018_May_30_1627,59.9593151659,MP-Perception Experiment,xx06w28,
419,training(30).mov,False,right,2,vgpdm_dyn(10)-lvm(15)_final(2).mov,0,100,100,130,,,,,,,,17:15:31:488,17:15:32:217,17:15:35:219,right,17:15:35:670,,2018_May_30_1627,59.9593151659,MP-Perception Experiment,xx06w28,
420,training(24).mov,False,right,2,vgpdm_dyn(30)-lvm(15)_final(2).mov,0,101,101,42,,,,,,,,17:15:36:440,17:15:37:171,17:15:40:191,right,17:15:40:725,,2018_May_30_1627,59.9593151659,MP-Perception Experiment,xx06w28,
421,training(20).mov,False,right,2,vgpdm_dyn(20)-lvm(5)_final(2).mov,0,102,102,59,,,,,,,,17:15:41:487,17:15:42:241,17:15:45:226,right,17:15:45:543,,2018_May_30_1627,59.9593151659,MP-Perception Experiment,xx06w28,
422,vgpdm_dyn(20)-lvm(5)_final(8).mov,False,left,2,training(27).mov,0,103,103,46,,,,,,,,17:15:46:332,17:15:47:044,17:15:50:047,left,17:15:50:431,,2018_May_30_1627,59.9593151659,MP-Perception Experiment,xx06w28,
423,training(31).mov,False,right,2,vgpdm_dyn(35)-lvm(35)_final(7).mov,0,104,104,98,,,,,,,,17:15:51:200,17:15:51:932,17:15:54:919,right,17:15:55:486,,2018_May_30_1627,59.9593151659,MP-Perception Experiment,xx06w28,
424,training(17).mov,True,right,2,vgpdm_dyn(20)-lvm(30)_final(8).mov,0,105,105,105,,,,,,,,17:15:56:267,17:15:56:988,17:15:59:991,left,17:16:00:475,,2018_May_30_1627,59.9593151659,MP-Perception Experiment,xx06w28,
425,training(5).mov,True,right,2,dmp_npsi(15)_final(6).mov,0,106,106,3,,,,,,,,17:16:01:259,17:16:01:976,17:16:04:978,right,17:16:05:462,,2018_May_30_1627,59.9593151659,MP-Perception Experiment,xx06w28,
426,vcgpdm_dyn(35)-lvm(10)_final(6).mov,False,left,2,training(34).mov,0,107,107,100,,,,,,,,17:16:06:245,17:16:06:963,17:16:09:983,left,17:16:10:600,,2018_May_30_1627,59.9593151659,MP-Perception Experiment,xx06w28,
427,training(9).mov,False,right,2,vcgpdm_dyn(30)-lvm(30)_final(6).mov,0,108,108,101,,,,,,,,17:16:11:400,17:16:12:117,17:16:15:104,right,17:16:15:672,,2018_May_30_1627,59.9593151659,MP-Perception Experiment,xx06w28,
428,tmp_numprim(3)_final(0).mov,False,left,2,training(28).mov,0,109,109,61,,,,,,,,17:16:16:465,17:16:17:172,17:16:20:192,right,17:16:21:560,,2018_May_30_1627,59.9593151659,MP-Perception Experiment,xx06w28,
429,training(26).mov,False,right,2,vgpdm_dyn(30)-lvm(35)_final(2).mov,0,110,110,86,,,,,,,,17:16:22:343,17:16:23:077,17:16:26:063,left,17:16:26:964,,2018_May_30_1627,59.9593151659,MP-Perception Experiment,xx06w28,
430,vgpdm_dyn(30)-lvm(10)_final(5).mov,False,left,2,training(32).mov,0,111,111,110,,,,,,,,17:16:27:729,17:16:28:465,17:16:31:468,right,17:16:31:968,,2018_May_30_1627,59.9593151659,MP-Perception Experiment,xx06w28,
431,vgpdm_dyn(30)-lvm(15)_final(7).mov,True,left,2,training(4).mov,0,112,112,74,,,,,,,,17:16:32:764,17:16:33:468,17:16:36:471,left,17:16:36:788,,2018_May_30_1627,59.9593151659,MP-Perception Experiment,xx06w28,
432,vcgpdm_dyn(15)-lvm(30)_final(0).mov,False,left,2,training(14).mov,0,113,113,35,,,,,,,,17:16:37:543,17:16:38:289,17:16:41:291,left,17:16:41:658,,2018_May_30_1627,59.9593151659,MP-Perception Experiment,xx06w28,
433,training(34).mov,True,right,2,vgpdm_dyn(15)-lvm(25)_final(4).mov,0,114,114,56,,,,,,,,17:16:42:438,17:16:43:161,17:16:46:164,left,17:16:46:698,,2018_May_30_1627,59.9593151659,MP-Perception Experiment,xx06w28,
434,dmp_npsi(45)_final(3).mov,False,left,2,training(0).mov,0,115,115,141,,,,,,,,17:16:47:471,17:16:48:199,17:16:51:219,right,17:16:51:769,,2018_May_30_1627,59.9593151659,MP-Perception Experiment,xx06w28,
435,vgpdm_dyn(5)-lvm(10)_final(2).mov,True,left,2,training(48).mov,0,116,116,19,,,,,,,,17:16:52:543,17:16:53:270,17:16:56:273,right,17:16:56:790,,2018_May_30_1627,59.9593151659,MP-Perception Experiment,xx06w28,
436,training(38).mov,False,right,2,vgpdm_dyn(10)-lvm(5)_final(6).mov,0,117,117,158,,,,,,,,17:16:57:577,17:16:58:291,17:17:01:310,right,17:17:01:794,,2018_May_30_1627,59.9593151659,MP-Perception Experiment,xx06w28,
437,training(29).mov,True,right,2,vcgpdm_dyn(5)-lvm(35)_final(8)_bad.mov,0,118,118,2,,,,,,,,17:17:02:575,17:17:03:312,17:17:06:298,right,17:17:06:731,,2018_May_30_1627,59.9593151659,MP-Perception Experiment,xx06w28,
438,vcgpdm_dyn(10)-lvm(30)_final(4).mov,True,left,2,training(9).mov,0,119,119,136,,,,,,,,17:17:07:519,17:17:08:233,17:17:11:236,left,17:17:11:870,,2018_May_30_1627,59.9593151659,MP-Perception Experiment,xx06w28,
439,vgpdm_dyn(30)-lvm(10)_final(4).mov,True,left,2,training(7).mov,0,120,120,148,,,,,,,,17:17:12:647,17:17:13:371,17:17:16:390,left,17:17:16:991,,2018_May_30_1627,59.9593151659,MP-Perception Experiment,xx06w28,
440,vcgpdm_dyn(15)-lvm(35)_final(5).mov,True,left,2,training(33).mov,0,121,121,97,,,,,,,,17:17:17:765,17:17:18:492,17:17:21:494,left,17:17:21:893,,2018_May_30_1627,59.9593151659,MP-Perception Experiment,xx06w28,
441,training(21).mov,False,right,2,vgpdm_dyn(5)-lvm(30)_final(6).mov,0,122,122,99,,,,,,,,17:17:22:679,17:17:23:394,17:17:26:397,right,17:17:26:681,,2018_May_30_1627,59.9593151659,MP-Perception Experiment,xx06w28,
442,training(8).mov,True,right,2,vgpdm_dyn(15)-lvm(30)_final(6).mov,0,123,123,58,,,,,,,,17:17:27:456,17:17:28:182,17:17:31:185,right,17:17:31:568,,2018_May_30_1627,59.9593151659,MP-Perception Experiment,xx06w28,
443,vcgpdm_dyn(15)-lvm(20)_final(9).mov,False,left,2,training(22).mov,0,124,124,67,,,,,,,,17:17:32:355,17:17:33:071,17:17:36:074,right,17:17:36:691,,2018_May_30_1627,59.9593151659,MP-Perception Experiment,xx06w28,
444,vcgpdm_dyn(20)-lvm(10)_final(3).mov,True,left,2,training(8).mov,0,125,125,76,,,,,,,,17:17:37:471,17:17:38:209,17:17:41:211,left,17:17:41:762,,2018_May_30_1627,59.9593151659,MP-Perception Experiment,xx06w28,
445,training(3).mov,True,right,2,vgpdm_dyn(25)-lvm(5)_final(6).mov,0,126,126,118,,,,,,,,17:17:42:540,17:17:43:264,17:17:46:266,left,17:17:46:833,,2018_May_30_1627,59.9593151659,MP-Perception Experiment,xx06w28,
446,vgpdm_dyn(25)-lvm(35)_final(5).mov,True,left,2,training(22).mov,0,127,127,21,,,,,,,,17:17:47:602,17:17:48:334,17:17:51:337,right,17:17:51:871,,2018_May_30_1627,59.9593151659,MP-Perception Experiment,xx06w28,
447,training(20).mov,True,right,2,vcgpdm_dyn(25)-lvm(25)_final(2).mov,0,128,128,64,,,,,,,,17:17:52:639,17:17:53:372,17:17:56:391,right,17:17:56:891,,2018_May_30_1627,59.9593151659,MP-Perception Experiment,xx06w28,
448,training(40).mov,True,right,2,vcgpdm_dyn(5)-lvm(15)_final(2).mov,0,129,129,20,,,,,,,,17:17:57:664,17:17:58:409,17:18:01:396,right,17:18:01:813,,2018_May_30_1627,59.9593151659,MP-Perception Experiment,xx06w28,
449,vgpdm_dyn(35)-lvm(5)_final(4).mov,True,left,2,training(14).mov,0,130,130,144,,,,,,,,17:18:02:586,17:18:03:331,17:18:06:316,left,17:18:06:784,,2018_May_30_1627,59.9593151659,MP-Perception Experiment,xx06w28,
450,vgpdm_dyn(30)-lvm(20)_final(7).mov,False,left,2,training(6).mov,0,131,131,119,,,,,,,,17:18:07:554,17:18:08:285,17:18:11:288,left,17:18:11:903,,2018_May_30_1627,59.9593151659,MP-Perception Experiment,xx06w28,
451,training(18).mov,True,right,2,vgpdm_dyn(30)-lvm(20)_final(9).mov,0,132,132,34,,,,,,,,17:18:12:671,17:18:13:421,17:18:16:406,left,17:18:16:707,,2018_May_30_1627,59.9593151659,MP-Perception Experiment,xx06w28,
452,vcgpdm_dyn(20)-lvm(15)_final(8).mov,True,left,2,training(8).mov,0,133,133,65,,,,,,,,17:18:17:478,17:18:18:209,17:18:21:211,left,17:18:21:495,,2018_May_30_1627,59.9593151659,MP-Perception Experiment,xx06w28,
453,training(13).mov,False,right,2,vgpdm_dyn(15)-lvm(5)_final(8).mov,0,134,134,49,,,,,,,,17:18:22:274,17:18:22:998,17:18:26:000,right,17:18:26:567,,2018_May_30_1627,59.9593151659,MP-Perception Experiment,xx06w28,
454,vcgpdm_dyn(30)-lvm(15)_final(5).mov,True,left,2,training(20).mov,0,135,135,29,,,,,,,,17:18:27:335,17:18:28:085,17:18:31:088,left,17:18:31:555,,2018_May_30_1627,59.9593151659,MP-Perception Experiment,xx06w28,
455,vgpdm_dyn(15)-lvm(5)_final(6).mov,True,left,2,training(36).mov,0,136,136,73,,,,,,,,17:18:32:342,17:18:33:056,17:18:36:059,left,17:18:36:593,,2018_May_30_1627,59.9593151659,MP-Perception Experiment,xx06w28,
456,training(16).mov,False,right,2,vgpdm_dyn(35)-lvm(10)_final(4).mov,0,137,137,51,,,,,,,,17:18:37:401,17:18:38:094,17:18:41:097,right,17:18:41:831,,2018_May_30_1627,59.9593151659,MP-Perception Experiment,xx06w28,
457,training(8).mov,False,right,2,vcgpdm_dyn(15)-lvm(15)_final(3).mov,0,138,138,60,,,,,,,,17:18:42:605,17:18:43:332,17:18:46:351,right,17:18:46:851,,2018_May_30_1627,59.9593151659,MP-Perception Experiment,xx06w28,
458,vgpdm_dyn(10)-lvm(10)_final(9).mov,False,left,2,training(29).mov,0,139,139,39,,,,,,,,17:18:47:632,17:18:48:353,17:18:51:355,right,17:18:51:856,,2018_May_30_1627,59.9593151659,MP-Perception Experiment,xx06w28,
459,training(10).mov,False,right,2,vgpdm_dyn(5)-lvm(35)_final(1)_bad.mov,0,140,140,80,,,,,,,,17:18:52:636,17:18:53:358,17:18:56:360,right,17:18:56:877,,2018_May_30_1627,59.9593151659,MP-Perception Experiment,xx06w28,
460,vcgpdm_dyn(15)-lvm(5)_final(3).mov,True,left,2,training(23).mov,0,141,141,17,,,,,,,,17:18:57:653,17:18:58:378,17:19:01:381,left,17:19:02:046,,2018_May_30_1627,59.9593151659,MP-Perception Experiment,xx06w28,
461,vcgpdm_dyn(15)-lvm(35)_final(2).mov,True,left,2,training(37).mov,0,142,142,7,,,,,,,,17:19:02:819,17:19:03:547,17:19:06:550,left,17:19:06:867,,2018_May_30_1627,59.9593151659,MP-Perception Experiment,xx06w28,
462,training(1).mov,False,right,2,vgpdm_dyn(10)-lvm(35)_final(0).mov,0,143,143,96,,,,,,,,17:19:07:694,17:19:08:368,17:19:11:371,right,17:19:11:705,,2018_May_30_1627,59.9593151659,MP-Perception Experiment,xx06w28,
463,training(2).mov,True,right,2,vgpdm_dyn(20)-lvm(25)_final(7).mov,0,144,144,132,,,,,,,,17:19:12:496,17:19:13:208,17:19:16:193,left,17:19:17:094,,2018_May_30_1627,59.9593151659,MP-Perception Experiment,xx06w28,
464,training(36).mov,True,right,2,vcgpdm_dyn(15)-lvm(25)_final(8).mov,0,145,145,68,,,,,,,,17:19:17:875,17:19:18:596,17:19:21:615,right,17:19:22:115,,2018_May_30_1627,59.9593151659,MP-Perception Experiment,xx06w28,
465,training(22).mov,False,right,2,vgpdm_dyn(30)-lvm(15)_final(0).mov,0,146,146,107,,,,,,,,17:19:22:896,17:19:23:633,17:19:26:636,right,17:19:27:104,,2018_May_30_1627,59.9593151659,MP-Perception Experiment,xx06w28,
466,vgpdm_dyn(20)-lvm(30)_final(7).mov,False,left,2,training(17).mov,0,147,147,31,,,,,,,,17:19:27:884,17:19:28:605,17:19:31:624,right,17:19:32:174,,2018_May_30_1627,59.9593151659,MP-Perception Experiment,xx06w28,
467,vcgpdm_dyn(5)-lvm(15)_final(6).mov,True,left,2,training(29).mov,0,148,148,15,,,,,,,,17:19:32:971,17:19:33:692,17:19:36:678,left,17:19:37:245,,2018_May_30_1627,59.9593151659,MP-Perception Experiment,xx06w28,
468,vgpdm_dyn(35)-lvm(35)_final(2).mov,False,left,2,training(23).mov,0,149,149,33,,,,,,,,17:19:38:016,17:19:38:746,17:19:41:766,left,17:19:42:833,,2018_May_30_1627,59.9593151659,MP-Perception Experiment,xx06w28,
469,training(32).mov,True,right,2,vcgpdm_dyn(25)-lvm(20)_final(4).mov,0,150,150,81,,,,,,,,17:19:43:607,17:19:44:335,17:19:47:338,right,17:19:47:955,,2018_May_30_1627,59.9593151659,MP-Perception Experiment,xx06w28,
470,training(35).mov,False,right,2,vgpdm_dyn(35)-lvm(30)_final(3).mov,0,151,151,84,,,,,,,,17:19:48:714,17:19:49:456,17:19:52:456,right,17:19:52:890,,2018_May_30_1627,59.9593151659,MP-Perception Experiment,xx06w28,
471,training(30).mov,True,right,2,tmp_numprim(8)_final(8).mov,0,152,152,122,,,,,,,,17:19:53:665,17:19:54:391,17:19:57:394,left,17:19:57:711,,2018_May_30_1627,59.9593151659,MP-Perception Experiment,xx06w28,
472,vgpdm_dyn(10)-lvm(15)_final(8).mov,False,left,2,training(27).mov,0,153,153,146,,,,,,,,17:19:58:506,17:19:59:212,17:20:02:215,left,17:20:02:582,,2018_May_30_1627,59.9593151659,MP-Perception Experiment,xx06w28,
473,training(37).mov,False,right,2,vgpdm_dyn(35)-lvm(30)_final(0).mov,0,154,154,9,,,,,,,,17:20:03:362,17:20:04:085,17:20:07:105,right,17:20:07:638,,2018_May_30_1627,59.9593151659,MP-Perception Experiment,xx06w28,
