trial_number,right,flipped,correct,block,left,trials.thisRepN,trials.thisTrialN,trials.thisN,trials.thisIndex,flipwelcome.keys,flipwelcome.corr,flipwelcome.rt,flippreparations.keys,flippreparations.rt,flipInstructions.keys,flipInstructions.rt,time_at_fixation_cross_onset,time_at_videoonset,time_at_videoend,participant_key_response,time_at_key_response,key_resp_4.keys,key_resp_4.rt,date,frameRate,expName,participant,
,,,,,,,,,,space,0,13.5801898655,,,,,,,,,,,,2018_Jun_04_0802,59.9529635661,MP-Perception Experiment,xx07m29re,
,,,,,,,,,,,,,space,14.8463255843,,,,,,,,,,2018_Jun_04_0802,59.9529635661,MP-Perception Experiment,xx07m29re,
,,,,,,,,,,,,,,,space,23.1515168125,,,,,,,,2018_Jun_04_0802,59.9529635661,MP-Perception Experiment,xx07m29re,
1,dmp_npsi(25)_final(0).mov,False,left,0,training(4).mov,0,0,0,41,,,,,,,,08:03:31:749,08:03:31:750,08:03:34:622,left,08:03:35:640,,,2018_Jun_04_0802,59.9529635661,MP-Perception Experiment,xx07m29re,
2,vgpdm_dyn(30)-lvm(25)_final(7).mov,True,left,0,training(19).mov,0,1,1,76,,,,,,,,08:03:36:447,08:03:37:157,08:03:40:145,right,08:03:41:146,,,2018_Jun_04_0802,59.9529635661,MP-Perception Experiment,xx07m29re,
3,vcgpdm_dyn(15)-lvm(20)_final(6).mov,False,left,0,training(5).mov,0,2,2,56,,,,,,,,08:03:41:931,08:03:42:647,08:03:45:649,left,08:03:46:150,,,2018_Jun_04_0802,59.9529635661,MP-Perception Experiment,xx07m29re,
4,training(7).mov,True,right,0,vcgpdm_dyn(20)-lvm(20)_final(8).mov,0,3,3,121,,,,,,,,08:03:46:931,08:03:47:651,08:03:50:654,left,08:03:51:622,,,2018_Jun_04_0802,59.9529635661,MP-Perception Experiment,xx07m29re,
5,training(21).mov,True,right,0,vgpdm_dyn(15)-lvm(15)_final(8).mov,0,4,4,57,,,,,,,,08:03:52:410,08:03:53:140,08:03:56:125,right,08:03:56:592,,,2018_Jun_04_0802,59.9529635661,MP-Perception Experiment,xx07m29re,
6,vgpdm_dyn(30)-lvm(25)_final(2).mov,False,left,0,training(17).mov,0,5,5,119,,,,,,,,08:03:57:362,08:03:58:094,08:04:01:113,right,08:04:02:397,,,2018_Jun_04_0802,59.9529635661,MP-Perception Experiment,xx07m29re,
7,training(3).mov,False,right,0,tmp_numprim(9)_final(7).mov,0,6,6,137,,,,,,,,08:04:03:175,08:04:03:898,08:04:06:901,left,08:04:07:486,,,2018_Jun_04_0802,59.9529635661,MP-Perception Experiment,xx07m29re,
8,vgpdm_dyn(30)-lvm(35)_final(8).mov,True,left,0,training(17).mov,0,7,7,12,,,,,,,,08:04:08:281,08:04:09:004,08:04:11:989,left,08:04:12:756,,,2018_Jun_04_0802,59.9529635661,MP-Perception Experiment,xx07m29re,
9,vcgpdm_dyn(15)-lvm(25)_final(2).mov,True,left,0,training(36).mov,0,8,8,158,,,,,,,,08:04:13:546,08:04:14:258,08:04:17:260,left,08:04:17:742,,,2018_Jun_04_0802,59.9529635661,MP-Perception Experiment,xx07m29re,
10,tmp_numprim(10)_final(5).mov,False,left,0,training(35).mov,0,9,9,44,,,,,,,,08:04:18:547,08:04:19:243,08:04:22:246,left,08:04:22:729,,,2018_Jun_04_0802,59.9529635661,MP-Perception Experiment,xx07m29re,
11,training(28).mov,True,right,0,vcgpdm_dyn(10)-lvm(35)_final(6).mov,0,10,10,24,,,,,,,,08:04:23:510,08:04:24:230,08:04:27:234,left,08:04:27:851,,,2018_Jun_04_0802,59.9529635661,MP-Perception Experiment,xx07m29re,
12,vcgpdm_dyn(15)-lvm(5)_final(4).mov,True,left,0,training(27).mov,0,11,11,38,,,,,,,,08:04:28:619,08:04:29:354,08:04:32:340,right,08:04:33:257,,,2018_Jun_04_0802,59.9529635661,MP-Perception Experiment,xx07m29re,
13,training(26).mov,True,right,0,vgpdm_dyn(10)-lvm(10)_final(0).mov,0,12,12,153,,,,,,,,08:04:34:081,08:04:34:758,08:04:37:761,right,08:04:38:328,,,2018_Jun_04_0802,59.9529635661,MP-Perception Experiment,xx07m29re,
14,vcgpdm_dyn(35)-lvm(25)_final(6).mov,True,left,0,training(29).mov,0,13,13,68,,,,,,,,08:04:39:105,08:04:39:829,08:04:42:849,left,08:04:43:300,,,2018_Jun_04_0802,59.9529635661,MP-Perception Experiment,xx07m29re,
15,training(37).mov,True,right,0,vgpdm_dyn(30)-lvm(20)_final(9).mov,0,14,14,90,,,,,,,,08:04:44:086,08:04:44:801,08:04:47:804,left,08:04:48:387,,,2018_Jun_04_0802,59.9529635661,MP-Perception Experiment,xx07m29re,
16,training(40).mov,False,right,0,vgpdm_dyn(10)-lvm(30)_final(5).mov,0,15,15,135,,,,,,,,08:04:49:161,08:04:49:905,08:04:52:908,right,08:04:53:591,,,2018_Jun_04_0802,59.9529635661,MP-Perception Experiment,xx07m29re,
17,vcgpdm_dyn(30)-lvm(20)_final(9).mov,False,left,0,training(0).mov,0,16,16,53,,,,,,,,08:04:54:380,08:04:55:109,08:04:58:095,right,08:04:58:696,,,2018_Jun_04_0802,59.9529635661,MP-Perception Experiment,xx07m29re,
18,vcgpdm_dyn(35)-lvm(30)_final(1).mov,False,left,0,training(27).mov,0,17,17,55,,,,,,,,08:04:59:471,08:05:00:198,08:05:03:217,right,08:05:04:218,,,2018_Jun_04_0802,59.9529635661,MP-Perception Experiment,xx07m29re,
19,training(19).mov,False,right,0,map_cgpdm_final(1).mov,0,18,18,143,,,,,,,,08:05:05:036,08:05:05:719,08:05:08:719,left,08:05:09:820,,,2018_Jun_04_0802,59.9529635661,MP-Perception Experiment,xx07m29re,
20,vcgpdm_dyn(25)-lvm(15)_final(5).mov,False,left,0,training(8).mov,0,19,19,102,,,,,,,,08:05:10:595,08:05:11:338,08:05:14:324,left,08:05:14:825,,,2018_Jun_04_0802,59.9529635661,MP-Perception Experiment,xx07m29re,
21,vgpdm_dyn(10)-lvm(15)_final(9).mov,True,left,0,training(29).mov,0,20,20,69,,,,,,,,08:05:15:612,08:05:16:326,08:05:19:329,right,08:05:20:897,,,2018_Jun_04_0802,59.9529635661,MP-Perception Experiment,xx07m29re,
22,training(36).mov,True,right,0,vgpdm_dyn(30)-lvm(20)_final(4).mov,0,21,21,154,,,,,,,,08:05:21:674,08:05:22:400,08:05:25:386,right,08:05:26:103,,,2018_Jun_04_0802,59.9529635661,MP-Perception Experiment,xx07m29re,
23,training(21).mov,False,right,0,vcgpdm_dyn(20)-lvm(35)_final(3).mov,0,22,22,91,,,,,,,,08:05:26:885,08:05:27:604,08:05:30:623,right,08:05:31:090,,,2018_Jun_04_0802,59.9529635661,MP-Perception Experiment,xx07m29re,
24,training(19).mov,False,right,0,vgpdm_dyn(10)-lvm(25)_final(0).mov,0,23,23,48,,,,,,,,08:05:31:877,08:05:32:608,08:05:35:612,left,08:05:37:631,,,2018_Jun_04_0802,59.9529635661,MP-Perception Experiment,xx07m29re,
25,vgpdm_dyn(20)-lvm(20)_final(9).mov,True,left,0,training(11).mov,0,24,24,61,,,,,,,,08:05:38:447,08:05:39:164,08:05:42:167,right,08:05:43:251,,,2018_Jun_04_0802,59.9529635661,MP-Perception Experiment,xx07m29re,
26,training(5).mov,False,right,0,dmp_npsi(30)_final(2).mov,0,25,25,47,,,,,,,,08:05:44:023,08:05:44:752,08:05:47:755,right,08:05:48:155,,,2018_Jun_04_0802,59.9529635661,MP-Perception Experiment,xx07m29re,
27,training(29).mov,False,right,0,vgpdm_dyn(10)-lvm(10)_final(4).mov,0,26,26,92,,,,,,,,08:05:48:937,08:05:49:656,08:05:52:660,right,08:05:53:711,,,2018_Jun_04_0802,59.9529635661,MP-Perception Experiment,xx07m29re,
28,training(18).mov,True,right,0,vgpdm_dyn(5)-lvm(20)_final(6).mov,0,27,27,0,,,,,,,,08:05:54:487,08:05:55:212,08:05:58:213,right,08:05:59:113,,,2018_Jun_04_0802,59.9529635661,MP-Perception Experiment,xx07m29re,
29,training(10).mov,False,right,0,vcgpdm_dyn(35)-lvm(25)_final(5).mov,0,28,28,125,,,,,,,,08:05:59:896,08:06:00:631,08:06:03:617,right,08:06:04:217,,,2018_Jun_04_0802,59.9529635661,MP-Perception Experiment,xx07m29re,
30,training(7).mov,False,right,0,vgpdm_dyn(25)-lvm(30)_final(8).mov,0,29,29,109,,,,,,,,08:06:05:005,08:06:05:735,08:06:08:721,left,08:06:09:891,,,2018_Jun_04_0802,59.9529635661,MP-Perception Experiment,xx07m29re,
31,vgpdm_dyn(20)-lvm(25)_final(2).mov,True,left,0,training(1).mov,0,30,30,151,,,,,,,,08:06:10:708,08:06:11:392,08:06:14:395,left,08:06:15:396,,,2018_Jun_04_0802,59.9529635661,MP-Perception Experiment,xx07m29re,
32,training(32).mov,True,right,0,vgpdm_dyn(35)-lvm(10)_final(2).mov,0,31,31,132,,,,,,,,08:06:16:179,08:06:16:914,08:06:19:899,left,08:06:21:384,,,2018_Jun_04_0802,59.9529635661,MP-Perception Experiment,xx07m29re,
33,vgpdm_dyn(30)-lvm(5)_final(2).mov,False,left,0,training(39).mov,0,32,32,113,,,,,,,,08:06:22:168,08:06:22:885,08:06:25:888,left,08:06:28:507,,,2018_Jun_04_0802,59.9529635661,MP-Perception Experiment,xx07m29re,
34,vcgpdm_dyn(30)-lvm(35)_final(3).mov,True,left,0,training(12).mov,0,33,33,134,,,,,,,,08:06:29:285,08:06:30:008,08:06:33:028,left,08:06:33:495,,,2018_Jun_04_0802,59.9529635661,MP-Perception Experiment,xx07m29re,
35,training(21).mov,False,right,0,vcgpdm_dyn(25)-lvm(30)_final(7).mov,0,34,34,32,,,,,,,,08:06:34:272,08:06:35:012,08:06:37:998,right,08:06:38:716,,,2018_Jun_04_0802,59.9529635661,MP-Perception Experiment,xx07m29re,
36,vgpdm_dyn(20)-lvm(35)_final(5).mov,False,left,0,training(6).mov,0,35,35,155,,,,,,,,08:06:39:479,08:06:40:217,08:06:43:236,left,08:06:44:203,,,2018_Jun_04_0802,59.9529635661,MP-Perception Experiment,xx07m29re,
37,dmp_npsi(35)_final(2).mov,False,left,0,training(21).mov,0,36,36,9,,,,,,,,08:06:44:991,08:06:45:705,08:06:48:706,left,08:06:49:240,,,2018_Jun_04_0802,59.9529635661,MP-Perception Experiment,xx07m29re,
38,training(23).mov,True,right,0,vcgpdm_dyn(25)-lvm(5)_final(1).mov,0,37,37,105,,,,,,,,08:06:50:030,08:06:50:741,08:06:53:744,left,08:06:54:327,,,2018_Jun_04_0802,59.9529635661,MP-Perception Experiment,xx07m29re,
39,vcgpdm_dyn(10)-lvm(20)_final(3).mov,True,left,0,training(21).mov,0,38,38,118,,,,,,,,08:06:55:123,08:06:55:829,08:06:58:831,left,08:06:59:233,,,2018_Jun_04_0802,59.9529635661,MP-Perception Experiment,xx07m29re,
40,training(25).mov,True,right,0,vcgpdm_dyn(15)-lvm(10)_final(0).mov,0,39,39,29,,,,,,,,08:07:00:016,08:07:00:734,08:07:03:738,left,08:07:04:672,,,2018_Jun_04_0802,59.9529635661,MP-Perception Experiment,xx07m29re,
41,vcgpdm_dyn(25)-lvm(10)_final(9).mov,False,left,0,training(31).mov,0,40,40,31,,,,,,,,08:07:05:465,08:07:06:173,08:07:09:176,left,08:07:10:877,,,2018_Jun_04_0802,59.9529635661,MP-Perception Experiment,xx07m29re,
42,vcgpdm_dyn(30)-lvm(5)_final(8).mov,False,left,0,training(26).mov,0,41,41,77,,,,,,,,08:07:11:678,08:07:12:378,08:07:15:381,left,08:07:15:998,,,2018_Jun_04_0802,59.9529635661,MP-Perception Experiment,xx07m29re,
43,vgpdm_dyn(30)-lvm(20)_final(2).mov,False,left,0,training(27).mov,0,42,42,96,,,,,,,,08:07:16:766,08:07:17:499,08:07:20:502,right,08:07:21:653,,,2018_Jun_04_0802,59.9529635661,MP-Perception Experiment,xx07m29re,
44,training(14).mov,False,right,0,vcgpdm_dyn(30)-lvm(15)_final(8).mov,0,43,43,11,,,,,,,,08:07:22:447,08:07:23:154,08:07:26:158,left,08:07:27:124,,,2018_Jun_04_0802,59.9529635661,MP-Perception Experiment,xx07m29re,
45,training(17).mov,True,right,0,vgpdm_dyn(5)-lvm(10)_final(3).mov,0,44,44,14,,,,,,,,08:07:27:901,08:07:28:642,08:07:31:628,right,08:07:32:128,,,2018_Jun_04_0802,59.9529635661,MP-Perception Experiment,xx07m29re,
46,training(11).mov,True,right,0,vcgpdm_dyn(15)-lvm(20)_final(1).mov,0,45,45,23,,,,,,,,08:07:32:909,08:07:33:646,08:07:36:632,right,08:07:37:615,,,2018_Jun_04_0802,59.9529635661,MP-Perception Experiment,xx07m29re,
47,training(29).mov,True,right,0,vcgpdm_dyn(15)-lvm(5)_final(8).mov,0,46,46,28,,,,,,,,08:07:38:392,08:07:39:117,08:07:42:119,left,08:07:43:003,,,2018_Jun_04_0802,59.9529635661,MP-Perception Experiment,xx07m29re,
48,training(14).mov,False,right,0,vcgpdm_dyn(15)-lvm(25)_final(6).mov,0,47,47,142,,,,,,,,08:07:43:802,08:07:44:504,08:07:47:507,right,08:07:47:990,,,2018_Jun_04_0802,59.9529635661,MP-Perception Experiment,xx07m29re,
49,vgpdm_dyn(35)-lvm(35)_final(2).mov,True,left,0,training(48).mov,0,48,48,4,,,,,,,,08:07:48:763,08:07:49:493,08:07:52:479,left,08:07:52:996,,,2018_Jun_04_0802,59.9529635661,MP-Perception Experiment,xx07m29re,
50,vcgpdm_dyn(25)-lvm(10)_final(9).mov,False,left,0,training(10).mov,0,49,49,33,,,,,,,,08:07:53:791,08:07:54:498,08:07:57:501,left,08:07:58:018,,,2018_Jun_04_0802,59.9529635661,MP-Perception Experiment,xx07m29re,
51,training(29).mov,True,right,0,vcgpdm_dyn(15)-lvm(30)_final(5).mov,0,50,50,20,,,,,,,,08:07:58:783,08:07:59:519,08:08:02:538,right,08:08:03:055,,,2018_Jun_04_0802,59.9529635661,MP-Perception Experiment,xx07m29re,
52,training(12).mov,True,right,0,vgpdm_dyn(20)-lvm(35)_final(3).mov,0,51,51,2,,,,,,,,08:08:03:856,08:08:04:556,08:08:07:559,right,08:08:09:210,,,2018_Jun_04_0802,59.9529635661,MP-Perception Experiment,xx07m29re,
53,training(18).mov,False,right,0,vcgpdm_dyn(35)-lvm(30)_final(6).mov,0,52,52,7,,,,,,,,08:08:09:990,08:08:10:711,08:08:13:715,right,08:08:14:199,,,2018_Jun_04_0802,59.9529635661,MP-Perception Experiment,xx07m29re,
54,map_gpdm_final(1).mov,False,left,0,training(31).mov,0,53,53,106,,,,,,,,08:08:14:978,08:08:15:700,08:08:18:702,left,08:08:19:169,,,2018_Jun_04_0802,59.9529635661,MP-Perception Experiment,xx07m29re,
55,vcgpdm_dyn(15)-lvm(10)_final(4).mov,False,left,0,training(10).mov,0,54,54,26,,,,,,,,08:08:19:957,08:08:20:687,08:08:23:673,right,08:08:24:407,,,2018_Jun_04_0802,59.9529635661,MP-Perception Experiment,xx07m29re,
56,training(38).mov,False,right,0,vgpdm_dyn(35)-lvm(5)_final(2).mov,0,55,55,18,,,,,,,,08:08:25:182,08:08:25:908,08:08:28:909,left,08:08:29:911,,,2018_Jun_04_0802,59.9529635661,MP-Perception Experiment,xx07m29re,
57,training(14).mov,True,right,0,dmp_npsi(50)_final(6).mov,0,56,56,149,,,,,,,,08:08:30:681,08:08:31:412,08:08:34:414,right,08:08:35:065,,,2018_Jun_04_0802,59.9529635661,MP-Perception Experiment,xx07m29re,
58,training(7).mov,True,right,0,vcgpdm_dyn(20)-lvm(30)_final(0).mov,0,57,57,100,,,,,,,,08:08:35:852,08:08:36:583,08:08:39:568,right,08:08:40:352,,,2018_Jun_04_0802,59.9529635661,MP-Perception Experiment,xx07m29re,
59,dmp_npsi(45)_final(0).mov,False,left,0,training(11).mov,0,58,58,139,,,,,,,,08:08:41:133,08:08:41:855,08:08:44:841,left,08:08:46:042,,,2018_Jun_04_0802,59.9529635661,MP-Perception Experiment,xx07m29re,
60,training(25).mov,False,right,0,vcgpdm_dyn(20)-lvm(35)_final(5).mov,0,59,59,93,,,,,,,,08:08:46:800,08:08:47:544,08:08:50:547,right,08:08:51:447,,,2018_Jun_04_0802,59.9529635661,MP-Perception Experiment,xx07m29re,
61,vgpdm_dyn(30)-lvm(20)_final(1).mov,True,left,0,training(40).mov,0,60,60,156,,,,,,,,08:08:52:221,08:08:52:948,08:08:55:951,left,08:08:57:285,,,2018_Jun_04_0802,59.9529635661,MP-Perception Experiment,xx07m29re,
62,training(48).mov,True,right,0,dmp_npsi(15)_final(2).mov,0,61,61,22,,,,,,,,08:08:58:071,08:08:58:803,08:09:01:790,right,08:09:02:290,,,2018_Jun_04_0802,59.9529635661,MP-Perception Experiment,xx07m29re,
63,training(27).mov,True,right,0,vgpdm_dyn(20)-lvm(35)_final(2).mov,0,62,62,131,,,,,,,,08:09:03:086,08:09:03:807,08:09:06:794,left,08:09:07:812,,,2018_Jun_04_0802,59.9529635661,MP-Perception Experiment,xx07m29re,
64,training(36).mov,False,right,0,vgpdm_dyn(5)-lvm(10)_final(7).mov,0,63,63,89,,,,,,,,08:09:08:601,08:09:09:329,08:09:12:332,right,08:09:12:682,,,2018_Jun_04_0802,59.9529635661,MP-Perception Experiment,xx07m29re,
65,training(14).mov,True,right,0,vgpdm_dyn(30)-lvm(30)_final(5).mov,0,64,64,122,,,,,,,,08:09:13:463,08:09:14:183,08:09:17:186,right,08:09:18:368,,,2018_Jun_04_0802,59.9529635661,MP-Perception Experiment,xx07m29re,
66,training(31).mov,True,right,0,vgpdm_dyn(30)-lvm(25)_final(5).mov,0,65,65,138,,,,,,,,08:09:19:145,08:09:19:869,08:09:22:874,left,08:09:23:390,,,2018_Jun_04_0802,59.9529635661,MP-Perception Experiment,xx07m29re,
67,vgpdm_dyn(10)-lvm(20)_final(2).mov,False,left,0,training(4).mov,0,66,66,98,,,,,,,,08:09:24:176,08:09:24:891,08:09:27:894,right,08:09:29:213,,,2018_Jun_04_0802,59.9529635661,MP-Perception Experiment,xx07m29re,
68,vgpdm_dyn(5)-lvm(20)_final(6).mov,False,left,0,training(15).mov,0,67,67,67,,,,,,,,08:09:29:999,08:09:30:731,08:09:33:717,left,08:09:34:368,,,2018_Jun_04_0802,59.9529635661,MP-Perception Experiment,xx07m29re,
69,training(27).mov,True,right,0,tmp_numprim(9)_final(4).mov,0,68,68,51,,,,,,,,08:09:35:147,08:09:35:869,08:09:38:888,right,08:09:40:323,,,2018_Jun_04_0802,59.9529635661,MP-Perception Experiment,xx07m29re,
70,dmp_npsi(20)_final(4).mov,False,left,0,training(7).mov,0,69,69,45,,,,,,,,08:09:41:133,08:09:41:824,08:09:44:827,left,08:09:45:361,,,2018_Jun_04_0802,59.9529635661,MP-Perception Experiment,xx07m29re,
71,training(13).mov,True,right,0,vcgpdm_dyn(35)-lvm(20)_final(9).mov,0,70,70,146,,,,,,,,08:09:46:136,08:09:46:862,08:09:49:865,left,08:09:51:916,,,2018_Jun_04_0802,59.9529635661,MP-Perception Experiment,xx07m29re,
72,vgpdm_dyn(25)-lvm(35)_final(3).mov,True,left,0,training(33).mov,0,71,71,133,,,,,,,,08:09:52:703,08:09:53:417,08:09:56:436,right,08:09:57:205,,,2018_Jun_04_0802,59.9529635661,MP-Perception Experiment,xx07m29re,
73,vgpdm_dyn(15)-lvm(15)_final(9).mov,True,left,0,training(26).mov,0,72,72,80,,,,,,,,08:09:57:970,08:09:58:706,08:10:01:708,left,08:10:02:109,,,2018_Jun_04_0802,59.9529635661,MP-Perception Experiment,xx07m29re,
74,vgpdm_dyn(15)-lvm(25)_final(2).mov,True,left,0,training(36).mov,0,73,73,58,,,,,,,,08:10:02:901,08:10:03:610,08:10:06:612,right,08:10:07:978,,,2018_Jun_04_0802,59.9529635661,MP-Perception Experiment,xx07m29re,
75,vgpdm_dyn(35)-lvm(10)_final(8).mov,False,left,0,training(20).mov,0,74,74,54,,,,,,,,08:10:09:620,08:10:09:620,08:10:12:482,right,08:10:13:068,,,2018_Jun_04_0802,59.9529635661,MP-Perception Experiment,xx07m29re,
76,vcgpdm_dyn(5)-lvm(5)_final(6).mov,False,left,0,training(11).mov,0,75,75,83,,,,,,,,08:10:13:846,08:10:14:584,08:10:17:587,left,08:10:18:055,,,2018_Jun_04_0802,59.9529635661,MP-Perception Experiment,xx07m29re,
77,training(19).mov,False,right,0,tmp_numprim(8)_final(9).mov,0,76,76,114,,,,,,,,08:10:18:844,08:10:19:573,08:10:22:576,right,08:10:23:827,,,2018_Jun_04_0802,59.9529635661,MP-Perception Experiment,xx07m29re,
78,training(38).mov,True,right,0,vcgpdm_dyn(10)-lvm(10)_final(6).mov,0,77,77,148,,,,,,,,08:10:24:603,08:10:25:328,08:10:28:331,left,08:10:28:981,,,2018_Jun_04_0802,59.9529635661,MP-Perception Experiment,xx07m29re,
79,training(33).mov,False,right,0,vcgpdm_dyn(20)-lvm(10)_final(0).mov,0,78,78,42,,,,,,,,08:10:29:759,08:10:30:482,08:10:33:486,right,08:10:34:870,,,2018_Jun_04_0802,59.9529635661,MP-Perception Experiment,xx07m29re,
80,training(39).mov,True,right,0,vcgpdm_dyn(5)-lvm(5)_final(4).mov,0,79,79,17,,,,,,,,08:10:35:644,08:10:36:371,08:10:39:374,right,08:10:40:158,,,2018_Jun_04_0802,59.9529635661,MP-Perception Experiment,xx07m29re,
81,training(18).mov,True,right,0,vgpdm_dyn(10)-lvm(15)_final(7).mov,0,80,80,49,,,,,,,,08:10:40:940,08:10:41:659,08:10:44:661,left,08:10:45:996,,,2018_Jun_04_0802,59.9529635661,MP-Perception Experiment,xx07m29re,
82,training(32).mov,False,right,0,vcgpdm_dyn(10)-lvm(35)_final(1).mov,0,81,81,112,,,,,,,,08:10:46:782,08:10:47:497,08:10:50:501,right,08:10:52:169,,,2018_Jun_04_0802,59.9529635661,MP-Perception Experiment,xx07m29re,
83,vgpdm_dyn(25)-lvm(30)_final(4).mov,False,left,0,training(17).mov,0,82,82,64,,,,,,,,08:10:52:948,08:10:53:670,08:10:56:672,left,08:10:58:305,,,2018_Jun_04_0802,59.9529635661,MP-Perception Experiment,xx07m29re,
84,vgpdm_dyn(10)-lvm(25)_final(8).mov,False,left,0,training(48).mov,0,83,83,50,,,,,,,,08:10:59:083,08:10:59:806,08:11:02:809,right,08:11:04:210,,,2018_Jun_04_0802,59.9529635661,MP-Perception Experiment,xx07m29re,
85,dmp_npsi(30)_final(0).mov,False,left,0,training(12).mov,0,84,84,72,,,,,,,,08:11:04:999,08:11:05:711,08:11:08:715,left,08:11:09:083,,,2018_Jun_04_0802,59.9529635661,MP-Perception Experiment,xx07m29re,
86,vcgpdm_dyn(30)-lvm(30)_final(2).mov,False,left,0,training(15).mov,0,85,85,157,,,,,,,,08:11:09:854,08:11:10:601,08:11:13:603,left,08:11:14:071,,,2018_Jun_04_0802,59.9529635661,MP-Perception Experiment,xx07m29re,
87,vgpdm_dyn(30)-lvm(5)_final(3).mov,True,left,0,training(7).mov,0,86,86,65,,,,,,,,08:11:14:836,08:11:15:572,08:11:18:575,left,08:11:19:125,,,2018_Jun_04_0802,59.9529635661,MP-Perception Experiment,xx07m29re,
88,dmp_npsi(15)_final(1).mov,False,left,0,training(5).mov,0,87,87,126,,,,,,,,08:11:19:932,08:11:20:626,08:11:23:628,left,08:11:24:213,,,2018_Jun_04_0802,59.9529635661,MP-Perception Experiment,xx07m29re,
89,vcgpdm_dyn(15)-lvm(10)_final(3).mov,False,left,0,training(41).mov,0,88,88,152,,,,,,,,08:11:24:999,08:11:25:731,08:11:28:717,right,08:11:29:784,,,2018_Jun_04_0802,59.9529635661,MP-Perception Experiment,xx07m29re,
90,vgpdm_dyn(15)-lvm(30)_final(1).mov,True,left,0,training(35).mov,0,89,89,25,,,,,,,,08:11:30:558,08:11:31:285,08:11:34:304,left,08:11:34:805,,,2018_Jun_04_0802,59.9529635661,MP-Perception Experiment,xx07m29re,
91,vgpdm_dyn(10)-lvm(20)_final(0).mov,True,left,0,training(8).mov,0,90,90,95,,,,,,,,08:11:35:602,08:11:36:306,08:11:39:309,left,08:11:39:976,,,2018_Jun_04_0802,59.9529635661,MP-Perception Experiment,xx07m29re,
92,vgpdm_dyn(10)-lvm(15)_final(8).mov,False,left,0,training(37).mov,0,91,91,107,,,,,,,,08:11:40:748,08:11:41:477,08:11:44:481,left,08:11:45:565,,,2018_Jun_04_0802,59.9529635661,MP-Perception Experiment,xx07m29re,
93,training(18).mov,True,right,0,vgpdm_dyn(10)-lvm(30)_final(8).mov,0,92,92,147,,,,,,,,08:11:46:347,08:11:47:066,08:11:50:067,right,08:11:50:767,,,2018_Jun_04_0802,59.9529635661,MP-Perception Experiment,xx07m29re,
94,training(7).mov,True,right,0,vcgpdm_dyn(20)-lvm(25)_final(6).mov,0,93,93,39,,,,,,,,08:11:51:565,08:11:52:268,08:11:55:271,right,08:11:56:121,,,2018_Jun_04_0802,59.9529635661,MP-Perception Experiment,xx07m29re,
95,training(41).mov,False,right,0,tmp_numprim(10)_final(1).mov,0,94,94,87,,,,,,,,08:11:56:902,08:11:57:623,08:12:00:626,left,08:12:01:093,,,2018_Jun_04_0802,59.9529635661,MP-Perception Experiment,xx07m29re,
96,training(5).mov,False,right,0,dmp_npsi(30)_final(7).mov,0,95,95,35,,,,,,,,08:12:01:864,08:12:02:596,08:12:05:600,right,08:12:06:166,,,2018_Jun_04_0802,59.9529635661,MP-Perception Experiment,xx07m29re,
97,tmp_numprim(2)_final(3).mov,True,left,0,training(14).mov,0,96,96,110,,,,,,,,08:12:06:949,08:12:07:667,08:12:10:669,left,08:12:11:253,,,2018_Jun_04_0802,59.9529635661,MP-Perception Experiment,xx07m29re,
98,vcgpdm_dyn(15)-lvm(35)_final(5).mov,True,left,0,training(9).mov,0,97,97,30,,,,,,,,08:12:12:057,08:12:12:754,08:12:15:773,left,08:12:17:126,,,2018_Jun_04_0802,59.9529635661,MP-Perception Experiment,xx07m29re,
99,training(34).mov,True,right,0,vgpdm_dyn(15)-lvm(35)_final(7).mov,0,98,98,82,,,,,,,,08:12:17:909,08:12:18:627,08:12:21:629,left,08:12:22:530,,,2018_Jun_04_0802,59.9529635661,MP-Perception Experiment,xx07m29re,
100,training(20).mov,True,right,0,vcgpdm_dyn(30)-lvm(35)_final(0).mov,0,99,99,101,,,,,,,,08:12:23:327,08:12:24:048,08:12:27:033,left,08:12:28:601,,,2018_Jun_04_0802,59.9529635661,MP-Perception Experiment,xx07m29re,
101,vcgpdm_dyn(10)-lvm(5)_final(5).mov,True,left,0,training(13).mov,0,100,100,129,,,,,,,,08:12:29:374,08:12:30:103,08:12:33:105,left,08:12:33:822,,,2018_Jun_04_0802,59.9529635661,MP-Perception Experiment,xx07m29re,
102,dmp_npsi(15)_final(7).mov,True,left,0,training(9).mov,0,101,101,78,,,,,,,,08:12:34:587,08:12:35:324,08:12:38:325,left,08:12:38:742,,,2018_Jun_04_0802,59.9529635661,MP-Perception Experiment,xx07m29re,
103,training(23).mov,False,right,0,tmp_numprim(4)_final(3).mov,0,102,102,111,,,,,,,,08:12:39:517,08:12:40:243,08:12:43:246,right,08:12:43:746,,,2018_Jun_04_0802,59.9529635661,MP-Perception Experiment,xx07m29re,
104,training(12).mov,False,right,0,vcgpdm_dyn(15)-lvm(5)_final(7).mov,0,103,103,46,,,,,,,,08:12:44:536,08:12:45:247,08:12:48:250,right,08:12:48:850,,,2018_Jun_04_0802,59.9529635661,MP-Perception Experiment,xx07m29re,
105,vgpdm_dyn(30)-lvm(35)_final(3).mov,False,left,0,training(6).mov,0,104,104,5,,,,,,,,08:12:49:631,08:12:50:351,08:12:53:340,right,08:12:55:358,,,2018_Jun_04_0802,59.9529635661,MP-Perception Experiment,xx07m29re,
106,training(16).mov,False,right,0,vgpdm_dyn(10)-lvm(35)_final(0).mov,0,105,105,15,,,,,,,,08:12:56:145,08:12:56:859,08:12:59:862,right,08:13:00:613,,,2018_Jun_04_0802,59.9529635661,MP-Perception Experiment,xx07m29re,
107,training(40).mov,False,right,0,vgpdm_dyn(30)-lvm(10)_final(1).mov,0,106,106,123,,,,,,,,08:13:01:408,08:13:02:114,08:13:05:116,right,08:13:05:733,,,2018_Jun_04_0802,59.9529635661,MP-Perception Experiment,xx07m29re,
108,vgpdm_dyn(20)-lvm(20)_final(8).mov,False,left,0,training(38).mov,0,107,107,1,,,,,,,,08:13:06:512,08:13:07:235,08:13:10:255,left,08:13:11:773,,,2018_Jun_04_0802,59.9529635661,MP-Perception Experiment,xx07m29re,
109,vcgpdm_dyn(20)-lvm(5)_final(8).mov,True,left,0,training(28).mov,0,108,108,6,,,,,,,,08:13:12:577,08:13:13:274,08:13:16:276,left,08:13:16:994,,,2018_Jun_04_0802,59.9529635661,MP-Perception Experiment,xx07m29re,
110,vcgpdm_dyn(5)-lvm(10)_final(7).mov,False,left,0,training(12).mov,0,109,109,3,,,,,,,,08:13:17:784,08:13:18:495,08:13:21:497,right,08:13:22:932,,,2018_Jun_04_0802,59.9529635661,MP-Perception Experiment,xx07m29re,
111,training(12).mov,True,right,0,vgpdm_dyn(5)-lvm(20)_final(8).mov,0,110,110,84,,,,,,,,08:13:23:707,08:13:24:433,08:13:27:453,right,08:13:28:519,,,2018_Jun_04_0802,59.9529635661,MP-Perception Experiment,xx07m29re,
112,vcgpdm_dyn(25)-lvm(20)_final(4).mov,False,left,0,training(10).mov,0,111,111,88,,,,,,,,08:13:29:298,08:13:30:020,08:13:33:022,right,08:13:33:623,,,2018_Jun_04_0802,59.9529635661,MP-Perception Experiment,xx07m29re,
113,vcgpdm_dyn(35)-lvm(30)_final(1).mov,False,left,0,training(17).mov,0,112,112,144,,,,,,,,08:13:34:411,08:13:35:124,08:13:38:126,left,08:13:38:594,,,2018_Jun_04_0802,59.9529635661,MP-Perception Experiment,xx07m29re,
114,training(22).mov,False,right,0,vcgpdm_dyn(10)-lvm(30)_final(2).mov,0,113,113,13,,,,,,,,08:13:39:383,08:13:40:096,08:13:43:115,right,08:13:43:566,,,2018_Jun_04_0802,59.9529635661,MP-Perception Experiment,xx07m29re,
115,training(38).mov,False,right,0,vgpdm_dyn(15)-lvm(35)_final(3).mov,0,114,114,117,,,,,,,,08:13:44:361,08:13:45:085,08:13:48:071,right,08:13:48:938,,,2018_Jun_04_0802,59.9529635661,MP-Perception Experiment,xx07m29re,
116,vcgpdm_dyn(30)-lvm(15)_final(9).mov,False,left,0,training(31).mov,0,115,115,130,,,,,,,,08:13:49:721,08:13:50:439,08:13:53:458,right,08:13:55:644,,,2018_Jun_04_0802,59.9529635661,MP-Perception Experiment,xx07m29re,
117,training(39).mov,False,right,0,vcgpdm_dyn(5)-lvm(10)_final(6).mov,0,116,116,21,,,,,,,,08:13:56:417,08:13:57:144,08:14:00:147,right,08:14:00:597,,,2018_Jun_04_0802,59.9529635661,MP-Perception Experiment,xx07m29re,
118,training(14).mov,True,right,0,vgpdm_dyn(5)-lvm(35)_final(4)_bad.mov,0,117,117,116,,,,,,,,08:14:01:381,08:14:02:116,08:14:05:119,right,08:14:05:552,,,2018_Jun_04_0802,59.9529635661,MP-Perception Experiment,xx07m29re,
119,training(11).mov,False,right,0,vcgpdm_dyn(15)-lvm(30)_final(9).mov,0,118,118,124,,,,,,,,08:14:06:345,08:14:07:053,08:14:10:056,right,08:14:10:656,,,2018_Jun_04_0802,59.9529635661,MP-Perception Experiment,xx07m29re,
120,training(29).mov,False,right,0,vcgpdm_dyn(20)-lvm(25)_final(3).mov,0,119,119,150,,,,,,,,08:14:11:433,08:14:12:158,08:14:15:177,right,08:14:15:627,,,2018_Jun_04_0802,59.9529635661,MP-Perception Experiment,xx07m29re,
121,training(7).mov,True,right,0,vcgpdm_dyn(30)-lvm(25)_final(7).mov,0,120,120,140,,,,,,,,08:14:16:436,08:14:17:145,08:14:20:130,right,08:14:20:497,,,2018_Jun_04_0802,59.9529635661,MP-Perception Experiment,xx07m29re,
122,training(34).mov,False,right,0,vcgpdm_dyn(15)-lvm(25)_final(2).mov,0,121,121,62,,,,,,,,08:14:21:281,08:14:21:998,08:14:25:001,right,08:14:25:318,,,2018_Jun_04_0802,59.9529635661,MP-Perception Experiment,xx07m29re,
123,vcgpdm_dyn(25)-lvm(20)_final(9).mov,True,left,0,training(20).mov,0,122,122,115,,,,,,,,08:14:26:097,08:14:26:819,08:14:29:806,left,08:14:30:507,,,2018_Jun_04_0802,59.9529635661,MP-Perception Experiment,xx07m29re,
124,vcgpdm_dyn(25)-lvm(15)_final(3).mov,False,left,0,training(23).mov,0,123,123,141,,,,,,,,08:14:31:282,08:14:32:025,08:14:35:011,left,08:14:35:761,,,2018_Jun_04_0802,59.9529635661,MP-Perception Experiment,xx07m29re,
125,vcgpdm_dyn(15)-lvm(15)_final(3).mov,False,left,0,training(18).mov,0,124,124,71,,,,,,,,08:14:36:539,08:14:37:280,08:14:40:266,left,08:14:40:916,,,2018_Jun_04_0802,59.9529635661,MP-Perception Experiment,xx07m29re,
126,training(36).mov,True,right,0,tmp_numprim(3)_final(5).mov,0,125,125,120,,,,,,,,08:14:41:700,08:14:42:417,08:14:45:436,right,08:14:45:954,,,2018_Jun_04_0802,59.9529635661,MP-Perception Experiment,xx07m29re,
127,training(40).mov,True,right,0,vgpdm_dyn(30)-lvm(5)_final(5).mov,0,126,126,81,,,,,,,,08:14:46:739,08:14:47:455,08:14:50:474,right,08:14:52:225,,,2018_Jun_04_0802,59.9529635661,MP-Perception Experiment,xx07m29re,
128,training(33).mov,False,right,0,vgpdm_dyn(10)-lvm(10)_final(3).mov,0,127,127,79,,,,,,,,08:14:53:011,08:14:53:726,08:14:56:731,left,08:14:58:115,,,2018_Jun_04_0802,59.9529635661,MP-Perception Experiment,xx07m29re,
129,training(1).mov,False,right,0,tmp_numprim(7)_final(0).mov,0,128,128,108,,,,,,,,08:14:58:924,08:14:59:616,08:15:02:618,right,08:15:03:486,,,2018_Jun_04_0802,59.9529635661,MP-Perception Experiment,xx07m29re,
130,training(5).mov,True,right,0,dmp_npsi(40)_final(9).mov,0,129,129,16,,,,,,,,08:15:04:258,08:15:04:986,08:15:07:987,right,08:15:08:671,,,2018_Jun_04_0802,59.9529635661,MP-Perception Experiment,xx07m29re,
131,training(32).mov,False,right,0,tmp_numprim(8)_final(4).mov,0,130,130,40,,,,,,,,08:15:09:814,08:15:10:322,08:15:13:176,right,08:15:13:693,,,2018_Jun_04_0802,59.9529635661,MP-Perception Experiment,xx07m29re,
132,vcgpdm_dyn(30)-lvm(10)_final(1).mov,False,left,0,training(2).mov,0,131,131,104,,,,,,,,08:15:14:487,08:15:15:194,08:15:18:196,right,08:15:18:614,,,2018_Jun_04_0802,59.9529635661,MP-Perception Experiment,xx07m29re,
133,training(8).mov,False,right,0,tmp_numprim(8)_final(9).mov,0,132,132,59,,,,,,,,08:15:19:389,08:15:20:115,08:15:23:119,right,08:15:24:136,,,2018_Jun_04_0802,59.9529635661,MP-Perception Experiment,xx07m29re,
134,vgpdm_dyn(5)-lvm(15)_final(5).mov,False,left,0,training(10).mov,0,133,133,94,,,,,,,,08:15:24:917,08:15:25:638,08:15:28:657,left,08:15:29:175,,,2018_Jun_04_0802,59.9529635661,MP-Perception Experiment,xx07m29re,
135,tmp_numprim(10)_final(3).mov,False,left,0,training(31).mov,0,134,134,63,,,,,,,,08:15:29:962,08:15:30:676,08:15:33:678,right,08:15:34:429,,,2018_Jun_04_0802,59.9529635661,MP-Perception Experiment,xx07m29re,
136,training(29).mov,True,right,0,vgpdm_dyn(15)-lvm(20)_final(7)_out_of_screen.mov,0,135,135,66,,,,,,,,08:15:35:204,08:15:35:930,08:15:38:949,right,08:15:39:467,,,2018_Jun_04_0802,59.9529635661,MP-Perception Experiment,xx07m29re,
137,training(25).mov,True,right,0,vcgpdm_dyn(30)-lvm(30)_final(4).mov,0,136,136,27,,,,,,,,08:15:40:275,08:15:40:968,08:15:43:970,right,08:15:44:437,,,2018_Jun_04_0802,59.9529635661,MP-Perception Experiment,xx07m29re,
138,dmp_npsi(50)_final(9).mov,False,left,0,training(23).mov,0,137,137,34,,,,,,,,08:15:45:246,08:15:45:938,08:15:48:942,right,08:15:50:343,,,2018_Jun_04_0802,59.9529635661,MP-Perception Experiment,xx07m29re,
139,vgpdm_dyn(15)-lvm(10)_final(0)_out_of_screen.mov,True,left,0,training(30).mov,0,138,138,99,,,,,,,,08:15:51:123,08:15:51:844,08:15:54:847,left,08:15:55:647,,,2018_Jun_04_0802,59.9529635661,MP-Perception Experiment,xx07m29re,
140,vcgpdm_dyn(10)-lvm(25)_final(5).mov,False,left,0,training(27).mov,0,139,139,97,,,,,,,,08:15:56:431,08:15:57:148,08:16:00:149,left,08:16:00:950,,,2018_Jun_04_0802,59.9529635661,MP-Perception Experiment,xx07m29re,
141,training(48).mov,True,right,0,vgpdm_dyn(20)-lvm(20)_final(5).mov,0,140,140,70,,,,,,,,08:16:01:715,08:16:02:451,08:16:05:454,left,08:16:06:238,,,2018_Jun_04_0802,59.9529635661,MP-Perception Experiment,xx07m29re,
142,training(40).mov,False,right,0,dmp_npsi(5)_final(6)_bad.mov,0,141,141,37,,,,,,,,08:16:07:007,08:16:07:739,08:16:10:727,right,08:16:11:061,,,2018_Jun_04_0802,59.9529635661,MP-Perception Experiment,xx07m29re,
143,vcgpdm_dyn(5)-lvm(25)_final(5).mov,False,left,0,training(15).mov,0,142,142,128,,,,,,,,08:16:11:876,08:16:12:578,08:16:15:581,left,08:16:16:148,,,2018_Jun_04_0802,59.9529635661,MP-Perception Experiment,xx07m29re,
144,vcgpdm_dyn(30)-lvm(10)_final(5).mov,True,left,0,training(0).mov,0,143,143,75,,,,,,,,08:16:16:928,08:16:17:649,08:16:20:652,left,08:16:21:236,,,2018_Jun_04_0802,59.9529635661,MP-Perception Experiment,xx07m29re,
145,vgpdm_dyn(20)-lvm(30)_final(4).mov,False,left,0,training(41).mov,0,144,144,10,,,,,,,,08:16:22:033,08:16:22:738,08:16:25:741,right,08:16:27:175,,,2018_Jun_04_0802,59.9529635661,MP-Perception Experiment,xx07m29re,
146,vgpdm_dyn(30)-lvm(15)_final(0).mov,False,left,0,training(36).mov,0,145,145,60,,,,,,,,08:16:27:956,08:16:28:676,08:16:31:679,left,08:16:32:579,,,2018_Jun_04_0802,59.9529635661,MP-Perception Experiment,xx07m29re,
147,training(40).mov,False,right,0,vgpdm_dyn(10)-lvm(5)_final(3).mov,0,146,146,43,,,,,,,,08:16:33:368,08:16:34:080,08:16:37:099,right,08:16:37:833,,,2018_Jun_04_0802,59.9529635661,MP-Perception Experiment,xx07m29re,
148,map_cgpdm_final(5).mov,False,left,0,training(15).mov,0,147,147,103,,,,,,,,08:16:38:606,08:16:39:352,08:16:42:338,left,08:16:42:905,,,2018_Jun_04_0802,59.9529635661,MP-Perception Experiment,xx07m29re,
149,training(4).mov,True,right,0,vgpdm_dyn(15)-lvm(5)_final(7).mov,0,148,148,74,,,,,,,,08:16:43:683,08:16:44:423,08:16:47:409,right,08:16:48:141,,,2018_Jun_04_0802,59.9529635661,MP-Perception Experiment,xx07m29re,
150,training(39).mov,True,right,0,vcgpdm_dyn(10)-lvm(15)_final(2).mov,0,149,149,36,,,,,,,,08:16:48:921,08:16:49:642,08:16:52:644,left,08:16:53:012,,,2018_Jun_04_0802,59.9529635661,MP-Perception Experiment,xx07m29re,
151,training(11).mov,True,right,0,vgpdm_dyn(35)-lvm(5)_final(6).mov,0,150,150,127,,,,,,,,08:16:53:790,08:16:54:512,08:16:57:516,left,08:16:57:983,,,2018_Jun_04_0802,59.9529635661,MP-Perception Experiment,xx07m29re,
152,tmp_numprim(5)_final(7).mov,False,left,0,training(14).mov,0,151,151,136,,,,,,,,08:16:58:754,08:16:59:486,08:17:02:472,left,08:17:03:239,,,2018_Jun_04_0802,59.9529635661,MP-Perception Experiment,xx07m29re,
153,vgpdm_dyn(25)-lvm(20)_final(1).mov,True,left,0,training(5).mov,0,152,152,19,,,,,,,,08:17:04:030,08:17:04:740,08:17:07:759,left,08:17:08:193,,,2018_Jun_04_0802,59.9529635661,MP-Perception Experiment,xx07m29re,
154,training(37).mov,False,right,0,vcgpdm_dyn(35)-lvm(20)_final(5).mov,0,153,153,8,,,,,,,,08:17:09:736,08:17:09:736,08:17:12:697,left,08:17:14:316,,,2018_Jun_04_0802,59.9529635661,MP-Perception Experiment,xx07m29re,
155,training(37).mov,False,right,0,vgpdm_dyn(5)-lvm(15)_final(0).mov,0,154,154,85,,,,,,,,08:17:15:090,08:17:15:817,08:17:18:819,right,08:17:19:253,,,2018_Jun_04_0802,59.9529635661,MP-Perception Experiment,xx07m29re,
156,vcgpdm_dyn(20)-lvm(25)_final(4).mov,True,left,0,training(1).mov,0,155,155,145,,,,,,,,08:17:20:042,08:17:20:771,08:17:23:773,left,08:17:24:241,,,2018_Jun_04_0802,59.9529635661,MP-Perception Experiment,xx07m29re,
157,map_cgpdm_final(6).mov,False,left,0,training(33).mov,0,156,156,52,,,,,,,,08:17:25:025,08:17:25:742,08:17:28:744,left,08:17:29:294,,,2018_Jun_04_0802,59.9529635661,MP-Perception Experiment,xx07m29re,
158,training(36).mov,True,right,0,vgpdm_dyn(30)-lvm(25)_final(9).mov,0,157,157,73,,,,,,,,08:17:30:083,08:17:30:796,08:17:33:799,right,08:17:34:967,,,2018_Jun_04_0802,59.9529635661,MP-Perception Experiment,xx07m29re,
159,vcgpdm_dyn(20)-lvm(15)_final(7).mov,False,left,0,training(21).mov,0,158,158,86,,,,,,,,08:17:35:735,08:17:36:468,08:17:39:469,right,08:17:40:586,,,2018_Jun_04_0802,59.9529635661,MP-Perception Experiment,xx07m29re,
160,vgpdm_dyn(30)-lvm(30)_final(1).mov,False,left,1,training(7).mov,0,0,0,156,,,,,,,,08:21:08:228,08:21:08:966,08:21:11:954,right,08:21:12:988,,,2018_Jun_04_0802,59.9529635661,MP-Perception Experiment,xx07m29re,
161,vcgpdm_dyn(25)-lvm(35)_final(4).mov,True,left,1,training(29).mov,0,1,1,131,,,,,,,,08:21:13:767,08:21:14:506,08:21:17:492,right,08:21:18:911,,,2018_Jun_04_0802,59.9529635661,MP-Perception Experiment,xx07m29re,
162,training(35).mov,True,right,1,vcgpdm_dyn(30)-lvm(5)_final(8).mov,0,2,2,113,,,,,,,,08:21:19:689,08:21:20:412,08:21:23:414,right,08:21:24:332,,,2018_Jun_04_0802,59.9529635661,MP-Perception Experiment,xx07m29re,
163,vcgpdm_dyn(15)-lvm(15)_final(8).mov,False,left,1,training(19).mov,0,3,3,108,,,,,,,,08:21:25:117,08:21:25:849,08:21:28:835,left,08:21:29:953,,,2018_Jun_04_0802,59.9529635661,MP-Perception Experiment,xx07m29re,
164,vcgpdm_dyn(15)-lvm(35)_final(7).mov,True,left,1,training(8).mov,0,4,4,33,,,,,,,,08:21:30:729,08:21:31:454,08:21:34:456,left,08:21:34:790,,,2018_Jun_04_0802,59.9529635661,MP-Perception Experiment,xx07m29re,
165,vcgpdm_dyn(25)-lvm(15)_final(2).mov,True,left,1,training(0).mov,0,5,5,55,,,,,,,,08:21:35:581,08:21:36:292,08:21:39:295,left,08:21:39:728,,,2018_Jun_04_0802,59.9529635661,MP-Perception Experiment,xx07m29re,
166,dmp_npsi(25)_final(7).mov,True,left,1,training(4).mov,0,6,6,37,,,,,,,,08:21:40:511,08:21:41:229,08:21:44:249,left,08:21:44:716,,,2018_Jun_04_0802,59.9529635661,MP-Perception Experiment,xx07m29re,
167,training(23).mov,False,right,1,vgpdm_dyn(5)-lvm(5)_final(2)_out_of_screen.mov,0,7,7,87,,,,,,,,08:21:45:497,08:21:46:233,08:21:49:217,right,08:21:49:701,,,2018_Jun_04_0802,59.9529635661,MP-Perception Experiment,xx07m29re,
168,vcgpdm_dyn(35)-lvm(5)_final(1).mov,True,left,1,training(18).mov,0,8,8,34,,,,,,,,08:21:50:484,08:21:51:202,08:21:54:206,left,08:21:55:490,,,2018_Jun_04_0802,59.9529635661,MP-Perception Experiment,xx07m29re,
169,vgpdm_dyn(10)-lvm(30)_final(6).mov,True,left,1,training(27).mov,0,9,9,96,,,,,,,,08:21:56:262,08:21:56:991,08:21:59:996,left,08:22:00:463,,,2018_Jun_04_0802,59.9529635661,MP-Perception Experiment,xx07m29re,
170,vcgpdm_dyn(20)-lvm(5)_final(2).mov,False,left,1,training(33).mov,0,10,10,84,,,,,,,,08:22:01:239,08:22:01:964,08:22:04:983,right,08:22:05:917,,,2018_Jun_04_0802,59.9529635661,MP-Perception Experiment,xx07m29re,
171,training(40).mov,True,right,1,vcgpdm_dyn(15)-lvm(20)_final(8).mov,0,11,11,66,,,,,,,,08:22:06:689,08:22:07:435,08:22:10:421,right,08:22:11:222,,,2018_Jun_04_0802,59.9529635661,MP-Perception Experiment,xx07m29re,
172,vcgpdm_dyn(5)-lvm(20)_final(2).mov,True,left,1,training(34).mov,0,12,12,72,,,,,,,,08:22:12:023,08:22:12:724,08:22:15:726,left,08:22:16:176,,,2018_Jun_04_0802,59.9529635661,MP-Perception Experiment,xx07m29re,
173,vcgpdm_dyn(30)-lvm(5)_final(1).mov,True,left,1,training(1).mov,0,13,13,93,,,,,,,,08:22:16:950,08:22:17:678,08:22:20:680,left,08:22:21:714,,,2018_Jun_04_0802,59.9529635661,MP-Perception Experiment,xx07m29re,
174,training(21).mov,False,right,1,vgpdm_dyn(25)-lvm(5)_final(7).mov,0,14,14,78,,,,,,,,08:22:22:496,08:22:23:215,08:22:26:235,left,08:22:27:152,,,2018_Jun_04_0802,59.9529635661,MP-Perception Experiment,xx07m29re,
175,training(13).mov,False,right,1,vcgpdm_dyn(30)-lvm(25)_final(2).mov,0,15,15,26,,,,,,,,08:22:27:929,08:22:28:671,08:22:31:657,right,08:22:32:541,,,2018_Jun_04_0802,59.9529635661,MP-Perception Experiment,xx07m29re,
176,vcgpdm_dyn(5)-lvm(15)_final(2).mov,False,left,1,training(13).mov,0,16,16,42,,,,,,,,08:22:33:339,08:22:34:058,08:22:37:061,right,08:22:37:478,,,2018_Jun_04_0802,59.9529635661,MP-Perception Experiment,xx07m29re,
177,training(25).mov,True,right,1,vgpdm_dyn(15)-lvm(15)_final(0).mov,0,17,17,148,,,,,,,,08:22:38:270,08:22:38:994,08:22:41:996,right,08:22:43:181,,,2018_Jun_04_0802,59.9529635661,MP-Perception Experiment,xx07m29re,
178,vgpdm_dyn(20)-lvm(15)_final(7).mov,True,left,1,training(3).mov,0,18,18,101,,,,,,,,08:22:43:960,08:22:44:682,08:22:47:686,left,08:22:48:353,,,2018_Jun_04_0802,59.9529635661,MP-Perception Experiment,xx07m29re,
179,training(38).mov,False,right,1,vcgpdm_dyn(10)-lvm(30)_final(6).mov,0,19,19,8,,,,,,,,08:22:49:150,08:22:49:856,08:22:52:841,right,08:22:53:442,,,2018_Jun_04_0802,59.9529635661,MP-Perception Experiment,xx07m29re,
180,vgpdm_dyn(15)-lvm(15)_final(0).mov,False,left,1,training(37).mov,0,20,20,138,,,,,,,,08:22:54:214,08:22:54:943,08:22:57:946,right,08:23:00:448,,,2018_Jun_04_0802,59.9529635661,MP-Perception Experiment,xx07m29re,
181,training(16).mov,False,right,1,vcgpdm_dyn(15)-lvm(15)_final(3).mov,0,21,21,92,,,,,,,,08:23:01:217,08:23:01:965,08:23:04:952,right,08:23:05:519,,,2018_Jun_04_0802,59.9529635661,MP-Perception Experiment,xx07m29re,
182,training(20).mov,False,right,1,vgpdm_dyn(15)-lvm(35)_final(8).mov,0,22,22,0,,,,,,,,08:23:06:300,08:23:07:037,08:23:10:023,right,08:23:11:043,,,2018_Jun_04_0802,59.9529635661,MP-Perception Experiment,xx07m29re,
183,vcgpdm_dyn(10)-lvm(35)_final(4).mov,True,left,1,training(22).mov,0,23,23,18,,,,,,,,08:23:11:852,08:23:12:575,08:23:15:561,left,08:23:18:897,,,2018_Jun_04_0802,59.9529635661,MP-Perception Experiment,xx07m29re,
184,training(34).mov,True,right,1,vcgpdm_dyn(5)-lvm(25)_final(9).mov,0,24,24,59,,,,,,,,08:23:19:674,08:23:20:398,08:23:23:401,right,08:23:24:069,,,2018_Jun_04_0802,59.9529635661,MP-Perception Experiment,xx07m29re,
185,training(19).mov,False,right,1,vgpdm_dyn(20)-lvm(5)_final(6).mov,0,25,25,133,,,,,,,,08:23:24:843,08:23:25:570,08:23:28:571,right,08:23:29:772,,,2018_Jun_04_0802,59.9529635661,MP-Perception Experiment,xx07m29re,
186,training(8).mov,True,right,1,vgpdm_dyn(20)-lvm(20)_final(5).mov,0,26,26,123,,,,,,,,08:23:30:545,08:23:31:273,08:23:34:275,left,08:23:35:560,,,2018_Jun_04_0802,59.9529635661,MP-Perception Experiment,xx07m29re,
187,vgpdm_dyn(10)-lvm(35)_final(2).mov,True,left,1,training(12).mov,0,27,27,70,,,,,,,,08:23:36:337,08:23:37:061,08:23:40:049,left,08:23:40:450,,,2018_Jun_04_0802,59.9529635661,MP-Perception Experiment,xx07m29re,
188,vgpdm_dyn(5)-lvm(30)_final(0).mov,True,left,1,training(1).mov,0,28,28,120,,,,,,,,08:23:41:245,08:23:41:951,08:23:44:953,left,08:23:45:504,,,2018_Jun_04_0802,59.9529635661,MP-Perception Experiment,xx07m29re,
189,training(7).mov,False,right,1,vcgpdm_dyn(20)-lvm(30)_final(2).mov,0,29,29,82,,,,,,,,08:23:46:277,08:23:47:005,08:23:50:007,right,08:23:50:575,,,2018_Jun_04_0802,59.9529635661,MP-Perception Experiment,xx07m29re,
190,vcgpdm_dyn(30)-lvm(35)_final(2).mov,False,left,1,training(25).mov,0,30,30,136,,,,,,,,08:23:51:353,08:23:52:092,08:23:55:095,left,08:23:55:812,,,2018_Jun_04_0802,59.9529635661,MP-Perception Experiment,xx07m29re,
191,training(38).mov,False,right,1,vcgpdm_dyn(10)-lvm(15)_final(3).mov,0,31,31,29,,,,,,,,08:23:56:586,08:23:57:314,08:24:00:334,left,08:24:00:800,,,2018_Jun_04_0802,59.9529635661,MP-Perception Experiment,xx07m29re,
192,training(27).mov,True,right,1,vcgpdm_dyn(35)-lvm(10)_final(8).mov,0,32,32,153,,,,,,,,08:24:01:595,08:24:02:301,08:24:05:304,right,08:24:06:538,,,2018_Jun_04_0802,59.9529635661,MP-Perception Experiment,xx07m29re,
193,vcgpdm_dyn(10)-lvm(20)_final(9).mov,False,left,1,training(18).mov,0,33,33,54,,,,,,,,08:24:07:314,08:24:08:056,08:24:11:042,left,08:24:11:743,,,2018_Jun_04_0802,59.9529635661,MP-Perception Experiment,xx07m29re,
194,training(27).mov,True,right,1,vcgpdm_dyn(20)-lvm(5)_final(5).mov,0,34,34,150,,,,,,,,08:24:12:514,08:24:13:244,08:24:16:264,left,08:24:18:213,,,2018_Jun_04_0802,59.9529635661,MP-Perception Experiment,xx07m29re,
195,vcgpdm_dyn(10)-lvm(5)_final(9).mov,False,left,1,training(23).mov,0,35,35,45,,,,,,,,08:24:19:006,08:24:19:715,08:24:22:734,right,08:24:23:935,,,2018_Jun_04_0802,59.9529635661,MP-Perception Experiment,xx07m29re,
196,training(11).mov,True,right,1,vgpdm_dyn(25)-lvm(30)_final(3).mov,0,36,36,14,,,,,,,,08:24:24:706,08:24:25:436,08:24:28:438,right,08:24:29:124,,,2018_Jun_04_0802,59.9529635661,MP-Perception Experiment,xx07m29re,
197,training(37).mov,False,right,1,vcgpdm_dyn(10)-lvm(20)_final(2).mov,0,37,37,39,,,,,,,,08:24:29:936,08:24:30:625,08:24:33:629,right,08:24:34:296,,,2018_Jun_04_0802,59.9529635661,MP-Perception Experiment,xx07m29re,
198,vgpdm_dyn(10)-lvm(25)_final(6).mov,False,left,1,training(48).mov,0,38,38,112,,,,,,,,08:24:35:070,08:24:35:797,08:24:38:799,left,08:24:39:584,,,2018_Jun_04_0802,59.9529635661,MP-Perception Experiment,xx07m29re,
199,training(22).mov,True,right,1,vgpdm_dyn(30)-lvm(30)_final(9).mov,0,39,39,137,,,,,,,,08:24:40:357,08:24:41:101,08:24:44:104,left,08:24:45:188,,,2018_Jun_04_0802,59.9529635661,MP-Perception Experiment,xx07m29re,
200,training(1).mov,False,right,1,vcgpdm_dyn(30)-lvm(35)_final(5).mov,0,40,40,60,,,,,,,,08:24:45:964,08:24:46:689,08:24:49:693,right,08:24:50:227,,,2018_Jun_04_0802,59.9529635661,MP-Perception Experiment,xx07m29re,
201,training(16).mov,False,right,1,vgpdm_dyn(15)-lvm(30)_final(0).mov,0,41,41,145,,,,,,,,08:24:51:009,08:24:51:728,08:24:54:730,right,08:24:55:247,,,2018_Jun_04_0802,59.9529635661,MP-Perception Experiment,xx07m29re,
202,vcgpdm_dyn(15)-lvm(5)_final(8).mov,False,left,1,training(13).mov,0,42,42,128,,,,,,,,08:24:56:018,08:24:56:748,08:24:59:768,left,08:25:00:185,,,2018_Jun_04_0802,59.9529635661,MP-Perception Experiment,xx07m29re,
203,training(3).mov,True,right,1,vcgpdm_dyn(20)-lvm(15)_final(5).mov,0,43,43,25,,,,,,,,08:25:00:966,08:25:01:686,08:25:04:688,left,08:25:05:189,,,2018_Jun_04_0802,59.9529635661,MP-Perception Experiment,xx07m29re,
204,training(20).mov,True,right,1,vgpdm_dyn(35)-lvm(25)_final(9).mov,0,44,44,105,,,,,,,,08:25:05:959,08:25:06:691,08:25:09:691,right,08:25:10:593,,,2018_Jun_04_0802,59.9529635661,MP-Perception Experiment,xx07m29re,
205,tmp_numprim(4)_final(1).mov,False,left,1,training(10).mov,0,45,45,36,,,,,,,,08:25:11:746,08:25:12:260,08:25:15:096,left,08:25:15:529,,,2018_Jun_04_0802,59.9529635661,MP-Perception Experiment,xx07m29re,
206,vgpdm_dyn(15)-lvm(15)_final(0).mov,True,left,1,training(31).mov,0,46,46,86,,,,,,,,08:25:16:325,08:25:17:031,08:25:20:018,right,08:25:21:603,,,2018_Jun_04_0802,59.9529635661,MP-Perception Experiment,xx07m29re,
207,vcgpdm_dyn(10)-lvm(15)_final(3).mov,True,left,1,training(37).mov,0,47,47,56,,,,,,,,08:25:22:369,08:25:23:104,08:25:26:108,right,08:25:26:775,,,2018_Jun_04_0802,59.9529635661,MP-Perception Experiment,xx07m29re,
208,dmp_npsi(20)_final(8).mov,True,left,1,training(27).mov,0,48,48,22,,,,,,,,08:25:27:551,08:25:28:292,08:25:31:278,left,08:25:58:099,,,2018_Jun_04_0802,59.9529635661,MP-Perception Experiment,xx07m29re,
209,training(9).mov,False,right,1,vgpdm_dyn(10)-lvm(10)_final(6).mov,0,49,49,15,,,,,,,,08:25:58:883,08:25:59:618,08:26:02:621,right,08:26:03:454,,,2018_Jun_04_0802,59.9529635661,MP-Perception Experiment,xx07m29re,
210,vcgpdm_dyn(20)-lvm(5)_final(1).mov,False,left,1,training(39).mov,0,50,50,154,,,,,,,,08:26:04:230,08:26:04:956,08:26:07:958,left,08:26:08:592,,,2018_Jun_04_0802,59.9529635661,MP-Perception Experiment,xx07m29re,
211,dmp_npsi(45)_final(2).mov,True,left,1,training(35).mov,0,51,51,43,,,,,,,,08:26:09:429,08:26:10:095,08:26:13:097,right,08:26:34:917,,,2018_Jun_04_0802,59.9529635661,MP-Perception Experiment,xx07m29re,
212,vcgpdm_dyn(15)-lvm(30)_final(7).mov,False,left,1,training(13).mov,0,52,52,31,,,,,,,,08:26:35:686,08:26:36:418,08:26:39:421,right,08:26:40:355,,,2018_Jun_04_0802,59.9529635661,MP-Perception Experiment,xx07m29re,
213,training(11).mov,False,right,1,vcgpdm_dyn(5)-lvm(10)_final(2).mov,0,53,53,110,,,,,,,,08:26:41:130,08:26:41:856,08:26:44:858,left,08:26:45:709,,,2018_Jun_04_0802,59.9529635661,MP-Perception Experiment,xx07m29re,
214,training(9).mov,False,right,1,vgpdm_dyn(10)-lvm(15)_final(2).mov,0,54,54,79,,,,,,,,08:26:46:510,08:26:47:227,08:26:50:211,right,08:26:51:063,,,2018_Jun_04_0802,59.9529635661,MP-Perception Experiment,xx07m29re,
215,training(1).mov,True,right,1,vcgpdm_dyn(5)-lvm(20)_final(6).mov,0,55,55,116,,,,,,,,08:26:51:838,08:26:52:564,08:26:55:566,right,08:26:56:200,,,2018_Jun_04_0802,59.9529635661,MP-Perception Experiment,xx07m29re,
216,vcgpdm_dyn(5)-lvm(10)_final(4).mov,False,left,1,training(27).mov,0,56,56,89,,,,,,,,08:26:56:985,08:26:57:701,08:27:00:704,right,08:27:01:121,,,2018_Jun_04_0802,59.9529635661,MP-Perception Experiment,xx07m29re,
217,training(29).mov,True,right,1,vcgpdm_dyn(30)-lvm(30)_final(6).mov,0,57,57,139,,,,,,,,08:27:01:902,08:27:02:624,08:27:05:609,right,08:27:06:210,,,2018_Jun_04_0802,59.9529635661,MP-Perception Experiment,xx07m29re,
218,vgpdm_dyn(35)-lvm(25)_final(2).mov,False,left,1,training(12).mov,0,58,58,125,,,,,,,,08:27:06:981,08:27:07:711,08:27:10:731,right,08:27:12:500,,,2018_Jun_04_0802,59.9529635661,MP-Perception Experiment,xx07m29re,
219,training(48).mov,True,right,1,vcgpdm_dyn(25)-lvm(20)_final(2).mov,0,59,59,3,,,,,,,,08:27:13:280,08:27:14:017,08:27:17:003,left,08:27:17:487,,,2018_Jun_04_0802,59.9529635661,MP-Perception Experiment,xx07m29re,
220,dmp_npsi(45)_final(5).mov,False,left,1,training(31).mov,0,60,60,1,,,,,,,,08:27:18:274,08:27:18:988,08:27:21:990,left,08:27:23:558,,,2018_Jun_04_0802,59.9529635661,MP-Perception Experiment,xx07m29re,
221,training(16).mov,False,right,1,vcgpdm_dyn(25)-lvm(35)_final(9).mov,0,61,61,2,,,,,,,,08:27:24:342,08:27:25:059,08:27:28:063,right,08:27:28:647,,,2018_Jun_04_0802,59.9529635661,MP-Perception Experiment,xx07m29re,
222,training(36).mov,True,right,1,tmp_numprim(9)_final(8).mov,0,62,62,49,,,,,,,,08:27:29:430,08:27:30:164,08:27:33:150,left,08:27:34:518,,,2018_Jun_04_0802,59.9529635661,MP-Perception Experiment,xx07m29re,
223,tmp_numprim(5)_final(2).mov,True,left,1,training(3).mov,0,63,63,46,,,,,,,,08:27:35:297,08:27:36:036,08:27:39:020,right,08:27:40:154,,,2018_Jun_04_0802,59.9529635661,MP-Perception Experiment,xx07m29re,
224,vcgpdm_dyn(30)-lvm(20)_final(2).mov,False,left,1,training(3).mov,0,64,64,38,,,,,,,,08:27:40:945,08:27:41:655,08:27:44:659,left,08:27:46:344,,,2018_Jun_04_0802,59.9529635661,MP-Perception Experiment,xx07m29re,
225,training(24).mov,True,right,1,dmp_npsi(25)_final(3).mov,0,65,65,91,,,,,,,,08:27:47:124,08:27:47:845,08:27:50:832,right,08:27:51:166,,,2018_Jun_04_0802,59.9529635661,MP-Perception Experiment,xx07m29re,
226,training(11).mov,False,right,1,vgpdm_dyn(20)-lvm(15)_final(0).mov,0,66,66,28,,,,,,,,08:27:51:967,08:27:52:667,08:27:55:670,right,08:27:56:804,,,2018_Jun_04_0802,59.9529635661,MP-Perception Experiment,xx07m29re,
227,dmp_npsi(50)_final(4).mov,True,left,1,training(23).mov,0,67,67,155,,,,,,,,08:27:57:581,08:27:58:305,08:28:01:308,right,08:28:02:393,,,2018_Jun_04_0802,59.9529635661,MP-Perception Experiment,xx07m29re,
228,training(31).mov,False,right,1,tmp_numprim(7)_final(3).mov,0,68,68,98,,,,,,,,08:28:03:174,08:28:03:894,08:28:06:896,right,08:28:07:564,,,2018_Jun_04_0802,59.9529635661,MP-Perception Experiment,xx07m29re,
229,vcgpdm_dyn(20)-lvm(20)_final(6).mov,False,left,1,training(18).mov,0,69,69,75,,,,,,,,08:28:08:350,08:28:09:065,08:28:12:084,right,08:28:13:201,,,2018_Jun_04_0802,59.9529635661,MP-Perception Experiment,xx07m29re,
230,dmp_npsi(35)_final(8).mov,False,left,1,training(12).mov,0,70,70,143,,,,,,,,08:28:13:999,08:28:14:703,08:28:17:722,left,08:28:19:074,,,2018_Jun_04_0802,59.9529635661,MP-Perception Experiment,xx07m29re,
231,vcgpdm_dyn(30)-lvm(5)_final(2).mov,True,left,1,training(30).mov,0,71,71,115,,,,,,,,08:28:19:875,08:28:20:575,08:28:23:578,left,08:28:24:411,,,2018_Jun_04_0802,59.9529635661,MP-Perception Experiment,xx07m29re,
232,training(27).mov,False,right,1,vcgpdm_dyn(25)-lvm(35)_final(1).mov,0,72,72,74,,,,,,,,08:28:25:187,08:28:25:913,08:28:28:913,right,08:28:30:031,,,2018_Jun_04_0802,59.9529635661,MP-Perception Experiment,xx07m29re,
233,training(39).mov,True,right,1,vgpdm_dyn(25)-lvm(35)_final(2).mov,0,73,73,124,,,,,,,,08:28:30:812,08:28:31:532,08:28:34:534,left,08:28:34:885,,,2018_Jun_04_0802,59.9529635661,MP-Perception Experiment,xx07m29re,
234,vcgpdm_dyn(35)-lvm(5)_final(4).mov,False,left,1,training(20).mov,0,74,74,119,,,,,,,,08:28:35:655,08:28:36:387,08:28:39:389,left,08:28:40:125,,,2018_Jun_04_0802,59.9529635661,MP-Perception Experiment,xx07m29re,
235,training(29).mov,False,right,1,vcgpdm_dyn(15)-lvm(35)_final(0).mov,0,75,75,141,,,,,,,,08:28:40:907,08:28:41:627,08:28:44:645,right,08:28:45:196,,,2018_Jun_04_0802,59.9529635661,MP-Perception Experiment,xx07m29re,
236,vcgpdm_dyn(20)-lvm(30)_final(1).mov,False,left,1,training(20).mov,0,76,76,16,,,,,,,,08:28:45:978,08:28:46:697,08:28:49:716,right,08:28:51:218,,,2018_Jun_04_0802,59.9529635661,MP-Perception Experiment,xx07m29re,
237,training(6).mov,False,right,1,dmp_npsi(35)_final(3).mov,0,77,77,140,,,,,,,,08:28:51:989,08:28:52:719,08:28:55:722,right,08:28:56:273,,,2018_Jun_04_0802,59.9529635661,MP-Perception Experiment,xx07m29re,
238,dmp_npsi(35)_final(2).mov,True,left,1,training(15).mov,0,78,78,41,,,,,,,,08:28:57:070,08:28:57:773,08:29:00:793,left,08:29:01:343,,,2018_Jun_04_0802,59.9529635661,MP-Perception Experiment,xx07m29re,
239,vcgpdm_dyn(20)-lvm(10)_final(0).mov,True,left,1,training(24).mov,0,79,79,111,,,,,,,,08:29:02:127,08:29:02:861,08:29:05:864,left,08:29:06:664,,,2018_Jun_04_0802,59.9529635661,MP-Perception Experiment,xx07m29re,
240,vcgpdm_dyn(25)-lvm(25)_final(3).mov,True,left,1,training(1).mov,0,80,80,94,,,,,,,,08:29:07:459,08:29:08:182,08:29:11:169,right,08:29:11:903,,,2018_Jun_04_0802,59.9529635661,MP-Perception Experiment,xx07m29re,
241,training(25).mov,True,right,1,vcgpdm_dyn(25)-lvm(25)_final(6).mov,0,81,81,64,,,,,,,,08:29:12:678,08:29:13:404,08:29:16:406,left,08:29:16:940,,,2018_Jun_04_0802,59.9529635661,MP-Perception Experiment,xx07m29re,
242,vgpdm_dyn(25)-lvm(25)_final(5)_bad.mov,True,left,1,training(39).mov,0,82,82,118,,,,,,,,08:29:17:719,08:29:18:456,08:29:21:442,left,08:29:21:725,,,2018_Jun_04_0802,59.9529635661,MP-Perception Experiment,xx07m29re,
243,vgpdm_dyn(35)-lvm(25)_final(5).mov,False,left,1,training(28).mov,0,83,83,157,,,,,,,,08:29:22:502,08:29:23:244,08:29:26:229,left,08:29:26:597,,,2018_Jun_04_0802,59.9529635661,MP-Perception Experiment,xx07m29re,
244,vcgpdm_dyn(15)-lvm(25)_final(0).mov,False,left,1,training(41).mov,0,84,84,7,,,,,,,,08:29:27:377,08:29:28:114,08:29:31:103,right,08:29:32:804,,,2018_Jun_04_0802,59.9529635661,MP-Perception Experiment,xx07m29re,
245,training(25).mov,False,right,1,vcgpdm_dyn(10)-lvm(20)_final(4).mov,0,85,85,53,,,,,,,,08:29:33:579,08:29:34:305,08:29:37:308,right,08:29:38:108,,,2018_Jun_04_0802,59.9529635661,MP-Perception Experiment,xx07m29re,
246,training(11).mov,True,right,1,vcgpdm_dyn(15)-lvm(15)_final(0).mov,0,86,86,5,,,,,,,,08:29:38:891,08:29:39:609,08:29:42:612,right,08:29:45:615,,,2018_Jun_04_0802,59.9529635661,MP-Perception Experiment,xx07m29re,
247,training(14).mov,True,right,1,vgpdm_dyn(15)-lvm(25)_final(7).mov,0,87,87,109,,,,,,,,08:29:46:397,08:29:47:117,08:29:50:119,left,08:29:51:020,,,2018_Jun_04_0802,59.9529635661,MP-Perception Experiment,xx07m29re,
248,training(36).mov,False,right,1,vgpdm_dyn(10)-lvm(35)_final(2).mov,0,88,88,20,,,,,,,,08:29:51:801,08:29:52:521,08:29:55:523,right,08:29:55:824,,,2018_Jun_04_0802,59.9529635661,MP-Perception Experiment,xx07m29re,
249,vgpdm_dyn(25)-lvm(5)_final(4).mov,True,left,1,training(25).mov,0,89,89,47,,,,,,,,08:29:56:601,08:29:57:341,08:30:00:327,left,08:30:00:694,,,2018_Jun_04_0802,59.9529635661,MP-Perception Experiment,xx07m29re,
250,vgpdm_dyn(25)-lvm(30)_final(3).mov,False,left,1,training(23).mov,0,90,90,52,,,,,,,,08:30:01:482,08:30:02:212,08:30:05:199,left,08:30:05:549,,,2018_Jun_04_0802,59.9529635661,MP-Perception Experiment,xx07m29re,
251,vcgpdm_dyn(10)-lvm(35)_final(4).mov,True,left,1,training(18).mov,0,91,91,61,,,,,,,,08:30:06:332,08:30:07:050,08:30:10:051,left,08:30:10:434,,,2018_Jun_04_0802,59.9529635661,MP-Perception Experiment,xx07m29re,
252,vgpdm_dyn(5)-lvm(30)_final(6).mov,False,left,1,training(17).mov,0,92,92,27,,,,,,,,08:30:11:176,08:30:11:952,08:30:14:938,left,08:30:15:405,,,2018_Jun_04_0802,59.9529635661,MP-Perception Experiment,xx07m29re,
253,vgpdm_dyn(35)-lvm(30)_final(3).mov,True,left,1,training(17).mov,0,93,93,97,,,,,,,,08:30:16:173,08:30:16:906,08:30:19:909,left,08:30:20:194,,,2018_Jun_04_0802,59.9529635661,MP-Perception Experiment,xx07m29re,
254,vgpdm_dyn(20)-lvm(25)_final(8).mov,False,left,1,training(31).mov,0,94,94,106,,,,,,,,08:30:20:994,08:30:21:696,08:30:24:716,left,08:30:25:366,,,2018_Jun_04_0802,59.9529635661,MP-Perception Experiment,xx07m29re,
255,training(14).mov,False,right,1,vcgpdm_dyn(25)-lvm(25)_final(5).mov,0,95,95,158,,,,,,,,08:30:26:137,08:30:26:867,08:30:29:870,right,08:30:30:687,,,2018_Jun_04_0802,59.9529635661,MP-Perception Experiment,xx07m29re,
256,vcgpdm_dyn(35)-lvm(30)_final(0).mov,False,left,1,training(27).mov,0,96,96,152,,,,,,,,08:30:31:476,08:30:32:188,08:30:35:207,right,08:30:35:608,,,2018_Jun_04_0802,59.9529635661,MP-Perception Experiment,xx07m29re,
257,vgpdm_dyn(15)-lvm(35)_final(7).mov,False,left,1,training(19).mov,0,97,97,50,,,,,,,,08:30:36:377,08:30:37:125,08:30:40:112,left,08:30:41:163,,,2018_Jun_04_0802,59.9529635661,MP-Perception Experiment,xx07m29re,
258,vgpdm_dyn(35)-lvm(10)_final(5).mov,False,left,1,training(40).mov,0,98,98,147,,,,,,,,08:30:41:951,08:30:42:664,08:30:45:684,left,08:30:46:551,,,2018_Jun_04_0802,59.9529635661,MP-Perception Experiment,xx07m29re,
259,vcgpdm_dyn(5)-lvm(20)_final(1).mov,True,left,1,training(41).mov,0,99,99,80,,,,,,,,08:30:47:327,08:30:48:052,08:30:51:055,left,08:30:51:455,,,2018_Jun_04_0802,59.9529635661,MP-Perception Experiment,xx07m29re,
260,dmp_npsi(45)_final(7).mov,True,left,1,training(34).mov,0,100,100,12,,,,,,,,08:30:52:224,08:30:52:956,08:30:55:960,left,08:30:56:427,,,2018_Jun_04_0802,59.9529635661,MP-Perception Experiment,xx07m29re,
261,training(35).mov,False,right,1,map_gpdm_final(6).mov,0,101,101,48,,,,,,,,08:30:57:210,08:30:57:944,08:31:00:928,right,08:31:01:479,,,2018_Jun_04_0802,59.9529635661,MP-Perception Experiment,xx07m29re,
262,training(25).mov,False,right,1,map_gpdm_final(4).mov,0,102,102,149,,,,,,,,08:31:02:259,08:31:02:980,08:31:05:982,right,08:31:06:516,,,2018_Jun_04_0802,59.9529635661,MP-Perception Experiment,xx07m29re,
263,training(48).mov,True,right,1,vgpdm_dyn(20)-lvm(15)_final(0).mov,0,103,103,11,,,,,,,,08:31:07:291,08:31:08:017,08:31:11:020,right,08:31:11:370,,,2018_Jun_04_0802,59.9529635661,MP-Perception Experiment,xx07m29re,
264,dmp_npsi(40)_final(6).mov,False,left,1,training(10).mov,0,104,104,13,,,,,,,,08:31:12:137,08:31:12:873,08:31:15:876,left,08:31:16:877,,,2018_Jun_04_0802,59.9529635661,MP-Perception Experiment,xx07m29re,
265,training(7).mov,False,right,1,vgpdm_dyn(10)-lvm(5)_final(3).mov,0,105,105,57,,,,,,,,08:31:17:675,08:31:18:379,08:31:21:381,right,08:31:21:948,,,2018_Jun_04_0802,59.9529635661,MP-Perception Experiment,xx07m29re,
266,training(11).mov,True,right,1,vcgpdm_dyn(25)-lvm(25)_final(9).mov,0,106,106,134,,,,,,,,08:31:22:724,08:31:23:449,08:31:26:452,left,08:31:27:970,,,2018_Jun_04_0802,59.9529635661,MP-Perception Experiment,xx07m29re,
267,training(15).mov,False,right,1,vcgpdm_dyn(35)-lvm(5)_final(5).mov,0,107,107,130,,,,,,,,08:31:28:755,08:31:29:471,08:31:32:474,right,08:31:33:091,,,2018_Jun_04_0802,59.9529635661,MP-Perception Experiment,xx07m29re,
268,vcgpdm_dyn(10)-lvm(10)_final(2).mov,True,left,1,training(26).mov,0,108,108,67,,,,,,,,08:31:33:873,08:31:34:593,08:31:37:612,left,08:31:38:212,,,2018_Jun_04_0802,59.9529635661,MP-Perception Experiment,xx07m29re,
269,vcgpdm_dyn(20)-lvm(35)_final(9).mov,False,left,1,training(3).mov,0,109,109,135,,,,,,,,08:31:38:999,08:31:39:713,08:31:42:732,left,08:31:43:250,,,2018_Jun_04_0802,59.9529635661,MP-Perception Experiment,xx07m29re,
270,training(21).mov,True,right,1,vcgpdm_dyn(5)-lvm(35)_final(1)_bad.mov,0,110,110,129,,,,,,,,08:31:44:032,08:31:44:751,08:31:47:753,right,08:31:48:188,,,2018_Jun_04_0802,59.9529635661,MP-Perception Experiment,xx07m29re,
271,vgpdm_dyn(30)-lvm(35)_final(5).mov,False,left,1,training(19).mov,0,111,111,44,,,,,,,,08:31:48:989,08:31:49:704,08:31:52:706,right,08:31:53:023,,,2018_Jun_04_0802,59.9529635661,MP-Perception Experiment,xx07m29re,
272,training(26).mov,False,right,1,vcgpdm_dyn(15)-lvm(25)_final(7).mov,0,112,112,88,,,,,,,,08:31:53:813,08:31:54:541,08:31:57:527,right,08:31:58:211,,,2018_Jun_04_0802,59.9529635661,MP-Perception Experiment,xx07m29re,
273,training(15).mov,False,right,1,vcgpdm_dyn(15)-lvm(35)_final(7).mov,0,113,113,95,,,,,,,,08:31:58:992,08:31:59:712,08:32:02:700,right,08:32:03:517,,,2018_Jun_04_0802,59.9529635661,MP-Perception Experiment,xx07m29re,
274,training(36).mov,True,right,1,vcgpdm_dyn(20)-lvm(30)_final(1).mov,0,114,114,132,,,,,,,,08:32:04:322,08:32:05:018,08:32:08:022,right,08:32:09:022,,,2018_Jun_04_0802,59.9529635661,MP-Perception Experiment,xx07m29re,
275,training(20).mov,False,right,1,vcgpdm_dyn(30)-lvm(15)_final(8).mov,0,115,115,85,,,,,,,,08:32:09:811,08:32:10:524,08:32:13:526,right,08:32:14:477,,,2018_Jun_04_0802,59.9529635661,MP-Perception Experiment,xx07m29re,
276,training(29).mov,True,right,1,vcgpdm_dyn(20)-lvm(15)_final(6).mov,0,116,116,71,,,,,,,,08:32:15:277,08:32:15:978,08:32:18:980,left,08:32:19:748,,,2018_Jun_04_0802,59.9529635661,MP-Perception Experiment,xx07m29re,
277,vgpdm_dyn(35)-lvm(35)_final(7).mov,True,left,1,training(19).mov,0,117,117,127,,,,,,,,08:32:20:525,08:32:21:266,08:32:24:252,right,08:32:25:420,,,2018_Jun_04_0802,59.9529635661,MP-Perception Experiment,xx07m29re,
278,vcgpdm_dyn(10)-lvm(5)_final(5).mov,True,left,1,training(37).mov,0,118,118,122,,,,,,,,08:32:26:184,08:32:26:921,08:32:29:924,left,08:32:32:192,,,2018_Jun_04_0802,59.9529635661,MP-Perception Experiment,xx07m29re,
279,vgpdm_dyn(5)-lvm(20)_final(9).mov,False,left,1,training(26).mov,0,119,119,81,,,,,,,,08:32:32:975,08:32:33:693,08:32:36:712,left,08:32:37:780,,,2018_Jun_04_0802,59.9529635661,MP-Perception Experiment,xx07m29re,
280,training(34).mov,False,right,1,vgpdm_dyn(35)-lvm(30)_final(4).mov,0,120,120,103,,,,,,,,08:32:38:567,08:32:39:296,08:32:42:299,right,08:32:42:983,,,2018_Jun_04_0802,59.9529635661,MP-Perception Experiment,xx07m29re,
281,training(9).mov,True,right,1,vgpdm_dyn(35)-lvm(25)_final(4).mov,0,121,121,51,,,,,,,,08:32:43:751,08:32:44:485,08:32:47:504,left,08:32:48:572,,,2018_Jun_04_0802,59.9529635661,MP-Perception Experiment,xx07m29re,
282,vcgpdm_dyn(5)-lvm(25)_final(9).mov,True,left,1,training(10).mov,0,122,122,40,,,,,,,,08:32:49:367,08:32:50:074,08:32:53:060,left,08:32:53:627,,,2018_Jun_04_0802,59.9529635661,MP-Perception Experiment,xx07m29re,
283,vcgpdm_dyn(30)-lvm(10)_final(7).mov,False,left,1,training(31).mov,0,123,123,121,,,,,,,,08:32:54:403,08:32:55:145,08:32:58:148,left,08:32:58:699,,,2018_Jun_04_0802,59.9529635661,MP-Perception Experiment,xx07m29re,
284,training(2).mov,False,right,1,vcgpdm_dyn(35)-lvm(20)_final(9).mov,0,124,124,126,,,,,,,,08:32:59:466,08:33:00:217,08:33:03:219,right,08:33:03:803,,,2018_Jun_04_0802,59.9529635661,MP-Perception Experiment,xx07m29re,
285,vcgpdm_dyn(30)-lvm(35)_final(0).mov,False,left,1,training(3).mov,0,125,125,30,,,,,,,,08:33:04:574,08:33:05:304,08:33:08:307,right,08:33:09:307,,,2018_Jun_04_0802,59.9529635661,MP-Perception Experiment,xx07m29re,
286,vgpdm_dyn(30)-lvm(10)_final(8).mov,True,left,1,training(17).mov,0,126,126,73,,,,,,,,08:33:10:106,08:33:10:809,08:33:13:811,left,08:33:14:378,,,2018_Jun_04_0802,59.9529635661,MP-Perception Experiment,xx07m29re,
287,tmp_numprim(2)_final(6).mov,True,left,1,training(34).mov,0,127,127,144,,,,,,,,08:33:15:151,08:33:15:897,08:33:18:900,left,08:33:19:250,,,2018_Jun_04_0802,59.9529635661,MP-Perception Experiment,xx07m29re,
288,training(29).mov,True,right,1,vgpdm_dyn(5)-lvm(15)_final(4).mov,0,128,128,69,,,,,,,,08:33:20:029,08:33:20:751,08:33:23:753,right,08:33:24:371,,,2018_Jun_04_0802,59.9529635661,MP-Perception Experiment,xx07m29re,
289,dmp_npsi(50)_final(7).mov,True,left,1,training(40).mov,0,129,129,99,,,,,,,,08:33:25:148,08:33:25:872,08:33:28:872,left,08:33:29:823,,,2018_Jun_04_0802,59.9529635661,MP-Perception Experiment,xx07m29re,
290,vgpdm_dyn(20)-lvm(5)_final(3).mov,True,left,1,training(0).mov,0,130,130,114,,,,,,,,08:33:30:608,08:33:31:324,08:33:34:328,right,08:33:34:845,,,2018_Jun_04_0802,59.9529635661,MP-Perception Experiment,xx07m29re,
291,dmp_npsi(35)_final(7).mov,False,left,1,training(29).mov,0,131,131,4,,,,,,,,08:33:35:644,08:33:36:363,08:33:39:349,left,08:33:39:632,,,2018_Jun_04_0802,59.9529635661,MP-Perception Experiment,xx07m29re,
292,training(24).mov,True,right,1,vgpdm_dyn(35)-lvm(30)_final(1).mov,0,132,132,142,,,,,,,,08:33:40:423,08:33:41:135,08:33:44:137,right,08:33:44:538,,,2018_Jun_04_0802,59.9529635661,MP-Perception Experiment,xx07m29re,
293,training(34).mov,False,right,1,vgpdm_dyn(20)-lvm(30)_final(2).mov,0,133,133,6,,,,,,,,08:33:45:315,08:33:46:039,08:33:49:042,left,08:33:49:725,,,2018_Jun_04_0802,59.9529635661,MP-Perception Experiment,xx07m29re,
294,vcgpdm_dyn(20)-lvm(20)_final(1).mov,False,left,1,training(32).mov,0,134,134,151,,,,,,,,08:33:50:504,08:33:51:228,08:33:54:247,right,08:33:55:465,,,2018_Jun_04_0802,59.9529635661,MP-Perception Experiment,xx07m29re,
295,training(22).mov,False,right,1,vgpdm_dyn(10)-lvm(20)_final(0).mov,0,135,135,24,,,,,,,,08:33:56:246,08:33:56:982,08:33:59:985,left,08:34:00:935,,,2018_Jun_04_0802,59.9529635661,MP-Perception Experiment,xx07m29re,
296,vcgpdm_dyn(15)-lvm(35)_final(8).mov,True,left,1,training(31).mov,0,136,136,100,,,,,,,,08:34:01:716,08:34:02:437,08:34:05:439,left,08:34:05:739,,,2018_Jun_04_0802,59.9529635661,MP-Perception Experiment,xx07m29re,
297,vcgpdm_dyn(5)-lvm(15)_final(0).mov,False,left,1,training(6).mov,0,137,137,117,,,,,,,,08:34:06:511,08:34:07:240,08:34:10:244,left,08:34:10:561,,,2018_Jun_04_0802,59.9529635661,MP-Perception Experiment,xx07m29re,
298,vgpdm_dyn(30)-lvm(15)_final(0).mov,False,left,1,training(16).mov,0,138,138,17,,,,,,,,08:34:11:325,08:34:12:062,08:34:15:081,left,08:34:15:982,,,2018_Jun_04_0802,59.9529635661,MP-Perception Experiment,xx07m29re,
299,vcgpdm_dyn(30)-lvm(15)_final(8).mov,False,left,1,training(36).mov,0,139,139,32,,,,,,,,08:34:16:754,08:34:17:500,08:34:20:484,right,08:34:21:701,,,2018_Jun_04_0802,59.9529635661,MP-Perception Experiment,xx07m29re,
300,vgpdm_dyn(25)-lvm(5)_final(5).mov,False,left,1,training(6).mov,0,140,140,35,,,,,,,,08:34:22:467,08:34:23:203,08:34:26:206,right,08:34:26:857,,,2018_Jun_04_0802,59.9529635661,MP-Perception Experiment,xx07m29re,
301,training(12).mov,False,right,1,vgpdm_dyn(5)-lvm(10)_final(0).mov,0,141,141,63,,,,,,,,08:34:27:634,08:34:28:358,08:34:31:360,right,08:34:31:761,,,2018_Jun_04_0802,59.9529635661,MP-Perception Experiment,xx07m29re,
302,training(7).mov,True,right,1,dmp_npsi(25)_final(0).mov,0,142,142,104,,,,,,,,08:34:32:535,08:34:33:263,08:34:36:266,right,08:34:36:766,,,2018_Jun_04_0802,59.9529635661,MP-Perception Experiment,xx07m29re,
303,vcgpdm_dyn(20)-lvm(5)_final(0).mov,False,left,1,training(17).mov,0,143,143,9,,,,,,,,08:34:37:558,08:34:38:267,08:34:41:270,left,08:34:43:290,,,2018_Jun_04_0802,59.9529635661,MP-Perception Experiment,xx07m29re,
304,tmp_numprim(3)_final(4).mov,True,left,1,training(33).mov,0,144,144,19,,,,,,,,08:34:44:070,08:34:44:790,08:34:47:793,left,08:34:48:327,,,2018_Jun_04_0802,59.9529635661,MP-Perception Experiment,xx07m29re,
305,vgpdm_dyn(35)-lvm(5)_final(0).mov,True,left,1,training(15).mov,0,145,145,102,,,,,,,,08:34:49:114,08:34:49:844,08:34:52:830,left,08:34:53:748,,,2018_Jun_04_0802,59.9529635661,MP-Perception Experiment,xx07m29re,
306,vcgpdm_dyn(10)-lvm(10)_final(8).mov,False,left,1,training(21).mov,0,146,146,10,,,,,,,,08:34:54:523,08:34:55:249,08:34:58:251,left,08:34:58:618,,,2018_Jun_04_0802,59.9529635661,MP-Perception Experiment,xx07m29re,
307,dmp_npsi(30)_final(6).mov,False,left,1,training(21).mov,0,147,147,90,,,,,,,,08:34:59:413,08:35:00:119,08:35:03:140,left,08:35:03:957,,,2018_Jun_04_0802,59.9529635661,MP-Perception Experiment,xx07m29re,
308,vcgpdm_dyn(10)-lvm(35)_final(8).mov,True,left,1,training(20).mov,0,148,148,76,,,,,,,,08:35:04:740,08:35:05:475,08:35:08:459,left,08:35:09:043,,,2018_Jun_04_0802,59.9529635661,MP-Perception Experiment,xx07m29re,
309,vgpdm_dyn(25)-lvm(5)_final(4).mov,True,left,1,training(17).mov,0,149,149,58,,,,,,,,08:35:09:808,08:35:10:544,08:35:13:546,left,08:35:14:947,,,2018_Jun_04_0802,59.9529635661,MP-Perception Experiment,xx07m29re,
310,training(12).mov,True,right,1,vcgpdm_dyn(10)-lvm(25)_final(4).mov,0,150,150,77,,,,,,,,08:35:15:756,08:35:16:448,08:35:19:452,right,08:35:19:769,,,2018_Jun_04_0802,59.9529635661,MP-Perception Experiment,xx07m29re,
311,vcgpdm_dyn(25)-lvm(30)_final(4).mov,False,left,1,training(10).mov,0,151,151,62,,,,,,,,08:35:20:558,08:35:21:272,08:35:24:291,right,08:35:24:842,,,2018_Jun_04_0802,59.9529635661,MP-Perception Experiment,xx07m29re,
312,training(25).mov,True,right,1,vgpdm_dyn(10)-lvm(30)_final(9).mov,0,152,152,68,,,,,,,,08:35:25:627,08:35:26:343,08:35:29:345,right,08:35:29:679,,,2018_Jun_04_0802,59.9529635661,MP-Perception Experiment,xx07m29re,
313,training(16).mov,False,right,1,vcgpdm_dyn(35)-lvm(10)_final(8).mov,0,153,153,23,,,,,,,,08:35:30:470,08:35:31:180,08:35:34:199,left,08:35:34:866,,,2018_Jun_04_0802,59.9529635661,MP-Perception Experiment,xx07m29re,
314,vgpdm_dyn(30)-lvm(10)_final(8).mov,False,left,1,training(25).mov,0,154,154,83,,,,,,,,08:35:35:643,08:35:36:368,08:35:39:371,left,08:35:39:838,,,2018_Jun_04_0802,59.9529635661,MP-Perception Experiment,xx07m29re,
315,training(38).mov,True,right,1,vcgpdm_dyn(30)-lvm(15)_final(8).mov,0,155,155,65,,,,,,,,08:35:40:620,08:35:41:356,08:35:44:342,right,08:35:45:442,,,2018_Jun_04_0802,59.9529635661,MP-Perception Experiment,xx07m29re,
316,training(3).mov,False,right,1,vcgpdm_dyn(25)-lvm(5)_final(0).mov,0,156,156,146,,,,,,,,08:35:46:218,08:35:46:944,08:35:49:946,right,08:35:50:563,,,2018_Jun_04_0802,59.9529635661,MP-Perception Experiment,xx07m29re,
317,vcgpdm_dyn(25)-lvm(5)_final(1).mov,False,left,1,training(7).mov,0,157,157,107,,,,,,,,08:35:51:337,08:35:52:081,08:35:55:068,right,08:35:55:668,,,2018_Jun_04_0802,59.9529635661,MP-Perception Experiment,xx07m29re,
318,vcgpdm_dyn(10)-lvm(5)_final(4).mov,True,left,1,training(14).mov,0,158,158,21,,,,,,,,08:35:56:466,08:35:57:186,08:36:00:170,left,08:36:00:321,,,2018_Jun_04_0802,59.9529635661,MP-Perception Experiment,xx07m29re,
319,training(1).mov,True,right,2,tmp_numprim(8)_final(0).mov,0,0,0,132,,,,,,,,08:39:23:676,08:39:24:397,08:39:27:383,right,08:39:27:700,,,2018_Jun_04_0802,59.9529635661,MP-Perception Experiment,xx07m29re,
320,vgpdm_dyn(15)-lvm(5)_final(7).mov,True,left,2,training(15).mov,0,1,1,8,,,,,,,,08:39:28:490,08:39:29:218,08:39:32:205,left,08:39:32:689,,,2018_Jun_04_0802,59.9529635661,MP-Perception Experiment,xx07m29re,
321,training(5).mov,False,right,2,vcgpdm_dyn(5)-lvm(10)_final(3).mov,0,2,2,125,,,,,,,,08:39:33:476,08:39:34:190,08:39:37:193,right,08:39:37:860,,,2018_Jun_04_0802,59.9529635661,MP-Perception Experiment,xx07m29re,
322,vcgpdm_dyn(30)-lvm(30)_final(2).mov,False,left,2,training(8).mov,0,3,3,130,,,,,,,,08:39:38:641,08:39:39:361,08:39:42:381,left,08:39:43:565,,,2018_Jun_04_0802,59.9529635661,MP-Perception Experiment,xx07m29re,
323,vcgpdm_dyn(35)-lvm(25)_final(0).mov,True,left,2,training(33).mov,0,4,4,44,,,,,,,,08:39:44:359,08:39:45:066,08:39:48:086,left,08:39:48:586,,,2018_Jun_04_0802,59.9529635661,MP-Perception Experiment,xx07m29re,
324,training(29).mov,True,right,2,vgpdm_dyn(25)-lvm(15)_final(0)_out_of_screen.mov,0,5,5,93,,,,,,,,08:39:49:350,08:39:50:088,08:39:53:090,right,08:39:53:557,,,2018_Jun_04_0802,59.9529635661,MP-Perception Experiment,xx07m29re,
325,vgpdm_dyn(10)-lvm(10)_final(3).mov,True,left,2,training(40).mov,0,6,6,18,,,,,,,,08:39:54:336,08:39:55:058,08:39:58:061,left,08:39:59:963,,,2018_Jun_04_0802,59.9529635661,MP-Perception Experiment,xx07m29re,
326,training(20).mov,False,right,2,vcgpdm_dyn(5)-lvm(20)_final(7).mov,0,7,7,51,,,,,,,,08:40:00:743,08:40:01:464,08:40:04:483,right,08:40:05:101,,,2018_Jun_04_0802,59.9529635661,MP-Perception Experiment,xx07m29re,
327,tmp_numprim(9)_final(4).mov,True,left,2,training(27).mov,0,8,8,52,,,,,,,,08:40:05:858,08:40:06:618,08:40:09:619,left,08:40:10:120,,,2018_Jun_04_0802,59.9529635661,MP-Perception Experiment,xx07m29re,
328,training(20).mov,False,right,2,vcgpdm_dyn(10)-lvm(25)_final(2).mov,0,9,9,129,,,,,,,,08:40:10:914,08:40:11:637,08:40:14:623,right,08:40:14:773,,,2018_Jun_04_0802,59.9529635661,MP-Perception Experiment,xx07m29re,
329,training(26).mov,False,right,2,vcgpdm_dyn(20)-lvm(20)_final(5).mov,0,10,10,107,,,,,,,,08:40:15:548,08:40:16:275,08:40:19:278,right,08:40:19:862,,,2018_Jun_04_0802,59.9529635661,MP-Perception Experiment,xx07m29re,
330,training(6).mov,True,right,2,vgpdm_dyn(20)-lvm(35)_final(7).mov,0,11,11,59,,,,,,,,08:40:20:644,08:40:21:363,08:40:24:350,right,08:40:25:301,,,2018_Jun_04_0802,59.9529635661,MP-Perception Experiment,xx07m29re,
331,tmp_numprim(7)_final(2).mov,True,left,2,training(41).mov,0,12,12,14,,,,,,,,08:40:26:082,08:40:26:802,08:40:29:821,left,08:40:30:789,,,2018_Jun_04_0802,59.9529635661,MP-Perception Experiment,xx07m29re,
332,vgpdm_dyn(20)-lvm(5)_final(2).mov,False,left,2,training(19).mov,0,13,13,9,,,,,,,,08:40:31:567,08:40:32:307,08:40:35:293,left,08:40:38:229,,,2018_Jun_04_0802,59.9529635661,MP-Perception Experiment,xx07m29re,
333,training(18).mov,True,right,2,vcgpdm_dyn(15)-lvm(20)_final(5).mov,0,14,14,136,,,,,,,,08:40:39:015,08:40:39:747,08:40:42:733,right,08:40:44:234,,,2018_Jun_04_0802,59.9529635661,MP-Perception Experiment,xx07m29re,
334,vcgpdm_dyn(5)-lvm(5)_final(3).mov,True,left,2,training(10).mov,0,15,15,31,,,,,,,,08:40:45:014,08:40:45:735,08:40:48:738,left,08:40:49:238,,,2018_Jun_04_0802,59.9529635661,MP-Perception Experiment,xx07m29re,
335,tmp_numprim(8)_final(9).mov,True,left,2,training(22).mov,0,16,16,148,,,,,,,,08:40:50:019,08:40:50:740,08:40:53:759,right,08:40:54:293,,,2018_Jun_04_0802,59.9529635661,MP-Perception Experiment,xx07m29re,
336,vcgpdm_dyn(25)-lvm(5)_final(9).mov,True,left,2,training(19).mov,0,17,17,110,,,,,,,,08:40:55:070,08:40:55:794,08:40:58:797,left,08:41:00:013,,,2018_Jun_04_0802,59.9529635661,MP-Perception Experiment,xx07m29re,
337,training(5).mov,True,right,2,vcgpdm_dyn(15)-lvm(20)_final(1).mov,0,18,18,28,,,,,,,,08:41:00:779,08:41:01:530,08:41:04:516,right,08:41:04:700,,,2018_Jun_04_0802,59.9529635661,MP-Perception Experiment,xx07m29re,
338,training(10).mov,False,right,2,tmp_numprim(6)_final(5).mov,0,19,19,152,,,,,,,,08:41:05:495,08:41:06:201,08:41:09:204,left,08:41:10:089,,,2018_Jun_04_0802,59.9529635661,MP-Perception Experiment,xx07m29re,
339,dmp_npsi(30)_final(0).mov,True,left,2,training(21).mov,0,20,20,2,,,,,,,,08:41:10:879,08:41:11:606,08:41:14:610,left,08:41:15:228,,,2018_Jun_04_0802,59.9529635661,MP-Perception Experiment,xx07m29re,
340,training(23).mov,False,right,2,vgpdm_dyn(5)-lvm(30)_final(5).mov,0,21,21,124,,,,,,,,08:41:16:010,08:41:16:729,08:41:19:731,right,08:41:20:265,,,2018_Jun_04_0802,59.9529635661,MP-Perception Experiment,xx07m29re,
341,training(15).mov,True,right,2,vcgpdm_dyn(30)-lvm(5)_final(7).mov,0,22,22,57,,,,,,,,08:41:21:090,08:41:21:766,08:41:24:769,right,08:41:25:671,,,2018_Jun_04_0802,59.9529635661,MP-Perception Experiment,xx07m29re,
342,vcgpdm_dyn(10)-lvm(15)_final(1).mov,True,left,2,training(39).mov,0,23,23,135,,,,,,,,08:41:26:459,08:41:27:188,08:41:30:174,left,08:41:30:925,,,2018_Jun_04_0802,59.9529635661,MP-Perception Experiment,xx07m29re,
343,vcgpdm_dyn(35)-lvm(30)_final(3).mov,False,left,2,training(13).mov,0,24,24,38,,,,,,,,08:41:31:698,08:41:32:426,08:41:35:428,left,08:41:35:812,,,2018_Jun_04_0802,59.9529635661,MP-Perception Experiment,xx07m29re,
344,training(48).mov,True,right,2,vcgpdm_dyn(15)-lvm(10)_final(6).mov,0,25,25,36,,,,,,,,08:41:36:602,08:41:37:313,08:41:40:316,right,08:41:40:966,,,2018_Jun_04_0802,59.9529635661,MP-Perception Experiment,xx07m29re,
345,tmp_numprim(6)_final(3).mov,False,left,2,training(28).mov,0,26,26,150,,,,,,,,08:41:41:751,08:41:42:468,08:41:45:471,left,08:41:46:021,,,2018_Jun_04_0802,59.9529635661,MP-Perception Experiment,xx07m29re,
346,vcgpdm_dyn(25)-lvm(15)_final(2).mov,False,left,2,training(30).mov,0,27,27,147,,,,,,,,08:41:46:810,08:41:47:522,08:41:50:523,right,08:41:51:591,,,2018_Jun_04_0802,59.9529635661,MP-Perception Experiment,xx07m29re,
347,vgpdm_dyn(5)-lvm(20)_final(0).mov,False,left,2,training(40).mov,0,28,28,96,,,,,,,,08:41:52:368,08:41:53:092,08:41:56:094,left,08:41:56:561,,,2018_Jun_04_0802,59.9529635661,MP-Perception Experiment,xx07m29re,
348,training(33).mov,True,right,2,vcgpdm_dyn(25)-lvm(25)_final(0).mov,0,29,29,114,,,,,,,,08:41:57:329,08:41:58:062,08:42:01:051,right,08:42:01:702,,,2018_Jun_04_0802,59.9529635661,MP-Perception Experiment,xx07m29re,
349,vgpdm_dyn(25)-lvm(35)_final(3).mov,True,left,2,training(40).mov,0,30,30,56,,,,,,,,08:42:02:490,08:42:03:203,08:42:06:222,right,08:42:07:090,,,2018_Jun_04_0802,59.9529635661,MP-Perception Experiment,xx07m29re,
350,training(23).mov,True,right,2,vgpdm_dyn(5)-lvm(30)_final(1).mov,0,31,31,105,,,,,,,,08:42:07:877,08:42:08:590,08:42:11:593,right,08:42:12:127,,,2018_Jun_04_0802,59.9529635661,MP-Perception Experiment,xx07m29re,
351,training(6).mov,False,right,2,vcgpdm_dyn(10)-lvm(25)_final(5).mov,0,32,32,153,,,,,,,,08:42:12:897,08:42:13:628,08:42:16:630,right,08:42:17:147,,,2018_Jun_04_0802,59.9529635661,MP-Perception Experiment,xx07m29re,
352,training(9).mov,False,right,2,vgpdm_dyn(25)-lvm(5)_final(9).mov,0,33,33,120,,,,,,,,08:42:17:932,08:42:18:650,08:42:21:652,right,08:42:22:252,,,2018_Jun_04_0802,59.9529635661,MP-Perception Experiment,xx07m29re,
353,training(26).mov,True,right,2,vcgpdm_dyn(15)-lvm(20)_final(5).mov,0,34,34,106,,,,,,,,08:42:23:026,08:42:23:754,08:42:26:773,right,08:42:27:473,,,2018_Jun_04_0802,59.9529635661,MP-Perception Experiment,xx07m29re,
354,training(15).mov,False,right,2,vgpdm_dyn(20)-lvm(15)_final(7).mov,0,35,35,100,,,,,,,,08:42:28:232,08:42:28:974,08:42:31:977,left,08:42:32:795,,,2018_Jun_04_0802,59.9529635661,MP-Perception Experiment,xx07m29re,
355,training(41).mov,False,right,2,vcgpdm_dyn(35)-lvm(20)_final(9).mov,0,36,36,39,,,,,,,,08:42:33:569,08:42:34:312,08:42:37:299,right,08:42:40:416,,,2018_Jun_04_0802,59.9529635661,MP-Perception Experiment,xx07m29re,
356,training(35).mov,False,right,2,vgpdm_dyn(10)-lvm(35)_final(9).mov,0,37,37,49,,,,,,,,08:42:41:191,08:42:41:934,08:42:44:920,right,08:42:45:337,,,2018_Jun_04_0802,59.9529635661,MP-Perception Experiment,xx07m29re,
357,training(41).mov,False,right,2,vgpdm_dyn(35)-lvm(10)_final(7).mov,0,38,38,80,,,,,,,,08:42:46:121,08:42:46:838,08:42:49:841,right,08:42:50:326,,,2018_Jun_04_0802,59.9529635661,MP-Perception Experiment,xx07m29re,
358,training(23).mov,False,right,2,vgpdm_dyn(35)-lvm(5)_final(6).mov,0,39,39,0,,,,,,,,08:42:51:100,08:42:51:827,08:42:54:831,right,08:42:55:498,,,2018_Jun_04_0802,59.9529635661,MP-Perception Experiment,xx07m29re,
359,training(30).mov,True,right,2,vgpdm_dyn(30)-lvm(30)_final(4).mov,0,40,40,95,,,,,,,,08:42:56:278,08:42:56:999,08:43:00:002,right,08:43:00:502,,,2018_Jun_04_0802,59.9529635661,MP-Perception Experiment,xx07m29re,
360,tmp_numprim(3)_final(4).mov,True,left,2,training(41).mov,0,41,41,146,,,,,,,,08:43:01:310,08:43:02:020,08:43:05:005,left,08:43:05:440,,,2018_Jun_04_0802,59.9529635661,MP-Perception Experiment,xx07m29re,
361,training(11).mov,False,right,2,vcgpdm_dyn(30)-lvm(35)_final(1).mov,0,42,42,67,,,,,,,,08:43:06:217,08:43:06:941,08:43:09:961,right,08:43:10:411,,,2018_Jun_04_0802,59.9529635661,MP-Perception Experiment,xx07m29re,
362,map_cgpdm_final(3).mov,False,left,2,training(30).mov,0,43,43,27,,,,,,,,08:43:11:186,08:43:11:912,08:43:14:931,left,08:43:15:516,,,2018_Jun_04_0802,59.9529635661,MP-Perception Experiment,xx07m29re,
363,training(35).mov,True,right,2,map_cgpdm_final(8).mov,0,44,44,137,,,,,,,,08:43:16:300,08:43:17:016,08:43:20:035,right,08:43:20:486,,,2018_Jun_04_0802,59.9529635661,MP-Perception Experiment,xx07m29re,
364,training(32).mov,True,right,2,vgpdm_dyn(30)-lvm(15)_final(0).mov,0,45,45,3,,,,,,,,08:43:21:272,08:43:22:004,08:43:25:006,left,08:43:26:524,,,2018_Jun_04_0802,59.9529635661,MP-Perception Experiment,xx07m29re,
365,vgpdm_dyn(20)-lvm(30)_final(4).mov,False,left,2,training(0).mov,0,46,46,53,,,,,,,,08:43:27:312,08:43:28:026,08:43:31:027,left,08:43:32:045,,,2018_Jun_04_0802,59.9529635661,MP-Perception Experiment,xx07m29re,
366,vcgpdm_dyn(25)-lvm(30)_final(3).mov,False,left,2,training(12).mov,0,47,47,98,,,,,,,,08:43:32:821,08:43:33:545,08:43:36:548,left,08:43:36:865,,,2018_Jun_04_0802,59.9529635661,MP-Perception Experiment,xx07m29re,
367,training(19).mov,True,right,2,vcgpdm_dyn(20)-lvm(25)_final(5).mov,0,48,48,102,,,,,,,,08:43:37:648,08:43:38:366,08:43:41:370,right,08:43:41:821,,,2018_Jun_04_0802,59.9529635661,MP-Perception Experiment,xx07m29re,
368,training(39).mov,False,right,2,vgpdm_dyn(35)-lvm(30)_final(8).mov,0,49,49,103,,,,,,,,08:43:42:592,08:43:43:322,08:43:46:325,right,08:43:48:160,,,2018_Jun_04_0802,59.9529635661,MP-Perception Experiment,xx07m29re,
369,vgpdm_dyn(35)-lvm(30)_final(2).mov,False,left,2,training(22).mov,0,50,50,17,,,,,,,,08:43:48:938,08:43:49:661,08:43:52:664,left,08:43:54:282,,,2018_Jun_04_0802,59.9529635661,MP-Perception Experiment,xx07m29re,
370,training(33).mov,True,right,2,vcgpdm_dyn(20)-lvm(5)_final(1).mov,0,51,51,25,,,,,,,,08:43:55:074,08:43:55:800,08:43:58:802,right,08:44:00:187,,,2018_Jun_04_0802,59.9529635661,MP-Perception Experiment,xx07m29re,
371,training(6).mov,True,right,2,vgpdm_dyn(10)-lvm(25)_final(7).mov,0,52,52,139,,,,,,,,08:44:00:955,08:44:01:688,08:44:04:708,left,08:44:05:108,,,2018_Jun_04_0802,59.9529635661,MP-Perception Experiment,xx07m29re,
372,map_gpdm_final(0).mov,True,left,2,training(30).mov,0,53,53,13,,,,,,,,08:44:05:912,08:44:06:609,08:44:09:612,left,08:44:10:079,,,2018_Jun_04_0802,59.9529635661,MP-Perception Experiment,xx07m29re,
373,vcgpdm_dyn(20)-lvm(15)_final(2).mov,True,left,2,training(22).mov,0,54,54,113,,,,,,,,08:44:11:018,08:44:11:580,08:44:14:583,left,08:44:15:467,,,2018_Jun_04_0802,59.9529635661,MP-Perception Experiment,xx07m29re,
374,training(13).mov,False,right,2,dmp_npsi(40)_final(1).mov,0,55,55,16,,,,,,,,08:44:16:241,08:44:16:968,08:44:19:969,left,08:44:21:037,,,2018_Jun_04_0802,59.9529635661,MP-Perception Experiment,xx07m29re,
375,training(3).mov,True,right,2,vcgpdm_dyn(10)-lvm(10)_final(4).mov,0,56,56,92,,,,,,,,08:44:21:817,08:44:22:538,08:44:25:541,left,08:44:26:224,,,2018_Jun_04_0802,59.9529635661,MP-Perception Experiment,xx07m29re,
376,vcgpdm_dyn(35)-lvm(5)_final(8).mov,False,left,2,training(38).mov,0,57,57,48,,,,,,,,08:44:26:997,08:44:27:726,08:44:30:728,right,08:44:31:245,,,2018_Jun_04_0802,59.9529635661,MP-Perception Experiment,xx07m29re,
377,vgpdm_dyn(25)-lvm(20)_final(4).mov,False,left,2,training(26).mov,0,58,58,104,,,,,,,,08:44:32:015,08:44:32:748,08:44:35:751,left,08:44:36:268,,,2018_Jun_04_0802,59.9529635661,MP-Perception Experiment,xx07m29re,
378,vgpdm_dyn(30)-lvm(25)_final(8).mov,True,left,2,training(9).mov,0,59,59,117,,,,,,,,08:44:37:069,08:44:37:786,08:44:40:772,left,08:44:41:606,,,2018_Jun_04_0802,59.9529635661,MP-Perception Experiment,xx07m29re,
379,training(29).mov,False,right,2,vcgpdm_dyn(30)-lvm(5)_final(7).mov,0,60,60,121,,,,,,,,08:44:42:388,08:44:43:108,08:44:46:110,left,08:44:46:911,,,2018_Jun_04_0802,59.9529635661,MP-Perception Experiment,xx07m29re,
380,training(35).mov,True,right,2,vgpdm_dyn(20)-lvm(10)_final(9)_out_of_screen.mov,0,61,61,144,,,,,,,,08:44:47:701,08:44:48:412,08:44:51:431,right,08:44:52:115,,,2018_Jun_04_0802,59.9529635661,MP-Perception Experiment,xx07m29re,
381,vgpdm_dyn(15)-lvm(30)_final(9).mov,True,left,2,training(26).mov,0,62,62,70,,,,,,,,08:44:52:919,08:44:53:633,08:44:56:619,left,08:44:57:104,,,2018_Jun_04_0802,59.9529635661,MP-Perception Experiment,xx07m29re,
382,tmp_numprim(5)_final(0).mov,True,left,2,training(33).mov,0,63,63,73,,,,,,,,08:44:57:887,08:44:58:604,08:45:01:607,left,08:45:02:157,,,2018_Jun_04_0802,59.9529635661,MP-Perception Experiment,xx07m29re,
383,map_cgpdm_final(7).mov,False,left,2,training(7).mov,0,64,64,62,,,,,,,,08:45:02:941,08:45:03:658,08:45:06:677,left,08:45:07:195,,,2018_Jun_04_0802,59.9529635661,MP-Perception Experiment,xx07m29re,
384,vcgpdm_dyn(10)-lvm(30)_final(4).mov,False,left,2,training(14).mov,0,65,65,109,,,,,,,,08:45:07:974,08:45:08:711,08:45:11:696,left,08:45:11:948,,,2018_Jun_04_0802,59.9529635661,MP-Perception Experiment,xx07m29re,
385,training(40).mov,False,right,2,vgpdm_dyn(30)-lvm(10)_final(6).mov,0,66,66,47,,,,,,,,08:45:12:752,08:45:13:465,08:45:16:468,right,08:45:16:718,,,2018_Jun_04_0802,59.9529635661,MP-Perception Experiment,xx07m29re,
386,vgpdm_dyn(30)-lvm(30)_final(0).mov,True,left,2,training(37).mov,0,67,67,157,,,,,,,,08:45:17:506,08:45:18:220,08:45:21:207,right,08:45:22:191,,,2018_Jun_04_0802,59.9529635661,MP-Perception Experiment,xx07m29re,
387,training(18).mov,True,right,2,vgpdm_dyn(20)-lvm(20)_final(3).mov,0,68,68,46,,,,,,,,08:45:22:980,08:45:23:709,08:45:26:695,left,08:45:27:279,,,2018_Jun_04_0802,59.9529635661,MP-Perception Experiment,xx07m29re,
388,training(22).mov,False,right,2,tmp_numprim(7)_final(1).mov,0,69,69,68,,,,,,,,08:45:28:053,08:45:28:780,08:45:31:783,right,08:45:33:651,,,2018_Jun_04_0802,59.9529635661,MP-Perception Experiment,xx07m29re,
389,training(11).mov,False,right,2,vcgpdm_dyn(30)-lvm(25)_final(1).mov,0,70,70,143,,,,,,,,08:45:34:444,08:45:35:152,08:45:38:155,right,08:45:38:605,,,2018_Jun_04_0802,59.9529635661,MP-Perception Experiment,xx07m29re,
390,tmp_numprim(9)_final(4).mov,True,left,2,training(9).mov,0,71,71,32,,,,,,,,08:45:39:377,08:45:40:106,08:45:43:109,left,08:45:44:060,,,2018_Jun_04_0802,59.9529635661,MP-Perception Experiment,xx07m29re,
391,vgpdm_dyn(35)-lvm(10)_final(7).mov,False,left,2,training(16).mov,0,72,72,42,,,,,,,,08:45:44:825,08:45:45:577,08:45:48:564,right,08:45:49:182,,,2018_Jun_04_0802,59.9529635661,MP-Perception Experiment,xx07m29re,
392,vcgpdm_dyn(20)-lvm(25)_final(4).mov,False,left,2,training(31).mov,0,73,73,119,,,,,,,,08:45:49:967,08:45:50:683,08:45:53:702,left,08:45:54:403,,,2018_Jun_04_0802,59.9529635661,MP-Perception Experiment,xx07m29re,
393,training(1).mov,False,right,2,vgpdm_dyn(30)-lvm(25)_final(2).mov,0,74,74,151,,,,,,,,08:45:55:167,08:45:55:903,08:45:58:904,right,08:45:59:588,,,2018_Jun_04_0802,59.9529635661,MP-Perception Experiment,xx07m29re,
394,training(25).mov,True,right,2,vgpdm_dyn(30)-lvm(5)_final(8).mov,0,75,75,156,,,,,,,,08:46:00:372,08:46:01:106,08:46:04:092,left,08:46:05:411,,,2018_Jun_04_0802,59.9529635661,MP-Perception Experiment,xx07m29re,
395,vgpdm_dyn(25)-lvm(30)_final(5).mov,True,left,2,training(38).mov,0,76,76,60,,,,,,,,08:46:06:188,08:46:06:928,08:46:09:914,right,08:46:10:732,,,2018_Jun_04_0802,59.9529635661,MP-Perception Experiment,xx07m29re,
396,training(41).mov,False,right,2,dmp_npsi(25)_final(8).mov,0,77,77,69,,,,,,,,08:46:11:506,08:46:12:233,08:46:15:237,right,08:46:15:621,,,2018_Jun_04_0802,59.9529635661,MP-Perception Experiment,xx07m29re,
397,vcgpdm_dyn(30)-lvm(10)_final(1).mov,False,left,2,training(32).mov,0,78,78,66,,,,,,,,08:46:16:402,08:46:17:122,08:46:20:141,right,08:46:20:825,,,2018_Jun_04_0802,59.9529635661,MP-Perception Experiment,xx07m29re,
398,training(7).mov,False,right,2,vcgpdm_dyn(5)-lvm(5)_final(0).mov,0,79,79,34,,,,,,,,08:46:21:608,08:46:22:327,08:46:25:347,right,08:46:26:330,,,2018_Jun_04_0802,59.9529635661,MP-Perception Experiment,xx07m29re,
399,training(38).mov,False,right,2,vcgpdm_dyn(25)-lvm(20)_final(7).mov,0,80,80,134,,,,,,,,08:46:27:118,08:46:27:831,08:46:30:834,right,08:46:31:651,,,2018_Jun_04_0802,59.9529635661,MP-Perception Experiment,xx07m29re,
400,training(16).mov,True,right,2,vgpdm_dyn(35)-lvm(35)_final(7).mov,0,81,81,76,,,,,,,,08:46:32:443,08:46:33:169,08:46:36:172,left,08:46:36:822,,,2018_Jun_04_0802,59.9529635661,MP-Perception Experiment,xx07m29re,
401,training(33).mov,True,right,2,vgpdm_dyn(30)-lvm(35)_final(0).mov,0,82,82,122,,,,,,,,08:46:37:603,08:46:38:323,08:46:41:326,left,08:46:43:545,,,2018_Jun_04_0802,59.9529635661,MP-Perception Experiment,xx07m29re,
402,training(34).mov,False,right,2,tmp_numprim(3)_final(6).mov,0,83,83,35,,,,,,,,08:46:44:331,08:46:45:046,08:46:48:049,right,08:46:48:597,,,2018_Jun_04_0802,59.9529635661,MP-Perception Experiment,xx07m29re,
403,vgpdm_dyn(10)-lvm(35)_final(0).mov,True,left,2,training(24).mov,0,84,84,75,,,,,,,,08:46:49:376,08:46:50:099,08:46:53:101,left,08:46:53:501,,,2018_Jun_04_0802,59.9529635661,MP-Perception Experiment,xx07m29re,
404,training(25).mov,True,right,2,vgpdm_dyn(30)-lvm(20)_final(2).mov,0,85,85,101,,,,,,,,08:46:54:279,08:46:55:002,08:46:58:006,right,08:46:58:373,,,2018_Jun_04_0802,59.9529635661,MP-Perception Experiment,xx07m29re,
405,vgpdm_dyn(25)-lvm(5)_final(4).mov,True,left,2,training(2).mov,0,86,86,149,,,,,,,,08:46:59:160,08:46:59:874,08:47:02:878,left,08:47:03:512,,,2018_Jun_04_0802,59.9529635661,MP-Perception Experiment,xx07m29re,
406,training(19).mov,False,right,2,dmp_npsi(15)_final(3).mov,0,87,87,116,,,,,,,,08:47:04:286,08:47:05:013,08:47:08:016,right,08:47:08:683,,,2018_Jun_04_0802,59.9529635661,MP-Perception Experiment,xx07m29re,
407,training(29).mov,True,right,2,vgpdm_dyn(25)-lvm(30)_final(7).mov,0,88,88,155,,,,,,,,08:47:09:703,08:47:10:217,08:47:13:187,left,08:47:13:787,,,2018_Jun_04_0802,59.9529635661,MP-Perception Experiment,xx07m29re,
408,vgpdm_dyn(15)-lvm(30)_final(7).mov,False,left,2,training(10).mov,0,89,89,127,,,,,,,,08:47:14:575,08:47:15:289,08:47:18:308,left,08:47:18:976,,,2018_Jun_04_0802,59.9529635661,MP-Perception Experiment,xx07m29re,
409,vcgpdm_dyn(30)-lvm(20)_final(9).mov,True,left,2,training(28).mov,0,90,90,61,,,,,,,,08:47:19:755,08:47:20:477,08:47:23:496,left,08:47:24:113,,,2018_Jun_04_0802,59.9529635661,MP-Perception Experiment,xx07m29re,
410,training(22).mov,False,right,2,vcgpdm_dyn(20)-lvm(15)_final(0).mov,0,91,91,23,,,,,,,,08:47:24:898,08:47:25:614,08:47:28:617,left,08:47:29:201,,,2018_Jun_04_0802,59.9529635661,MP-Perception Experiment,xx07m29re,
411,vgpdm_dyn(35)-lvm(25)_final(2).mov,True,left,2,training(36).mov,0,92,92,10,,,,,,,,08:47:30:001,08:47:30:702,08:47:33:723,right,08:47:34:390,,,2018_Jun_04_0802,59.9529635661,MP-Perception Experiment,xx07m29re,
412,vgpdm_dyn(10)-lvm(20)_final(0).mov,True,left,2,training(14).mov,0,93,93,33,,,,,,,,08:47:35:172,08:47:35:890,08:47:38:891,left,08:47:39:658,,,2018_Jun_04_0802,59.9529635661,MP-Perception Experiment,xx07m29re,
413,vgpdm_dyn(20)-lvm(15)_final(7).mov,False,left,2,training(38).mov,0,94,94,41,,,,,,,,08:47:40:441,08:47:41:160,08:47:44:162,left,08:47:44:612,,,2018_Jun_04_0802,59.9529635661,MP-Perception Experiment,xx07m29re,
414,training(28).mov,False,right,2,vgpdm_dyn(30)-lvm(10)_final(5).mov,0,95,95,45,,,,,,,,08:47:45:399,08:47:46:113,08:47:49:116,right,08:47:50:286,,,2018_Jun_04_0802,59.9529635661,MP-Perception Experiment,xx07m29re,
415,vgpdm_dyn(10)-lvm(5)_final(1).mov,True,left,2,training(32).mov,0,96,96,77,,,,,,,,08:47:51:060,08:47:51:804,08:47:54:790,left,08:47:55:274,,,2018_Jun_04_0802,59.9529635661,MP-Perception Experiment,xx07m29re,
416,vcgpdm_dyn(35)-lvm(10)_final(5).mov,False,left,2,training(0).mov,0,97,97,108,,,,,,,,08:47:56:081,08:47:56:775,08:47:59:777,right,08:48:00:461,,,2018_Jun_04_0802,59.9529635661,MP-Perception Experiment,xx07m29re,
417,vgpdm_dyn(30)-lvm(15)_final(0).mov,False,left,2,training(0).mov,0,98,98,142,,,,,,,,08:48:01:250,08:48:01:979,08:48:04:965,right,08:48:05:599,,,2018_Jun_04_0802,59.9529635661,MP-Perception Experiment,xx07m29re,
418,training(14).mov,False,right,2,vgpdm_dyn(10)-lvm(25)_final(6).mov,0,99,99,141,,,,,,,,08:48:06:370,08:48:07:117,08:48:10:120,right,08:48:10:788,,,2018_Jun_04_0802,59.9529635661,MP-Perception Experiment,xx07m29re,
419,training(6).mov,True,right,2,vgpdm_dyn(30)-lvm(15)_final(7).mov,0,100,100,131,,,,,,,,08:48:11:567,08:48:12:288,08:48:15:291,right,08:48:16:258,,,2018_Jun_04_0802,59.9529635661,MP-Perception Experiment,xx07m29re,
420,training(5).mov,False,right,2,vcgpdm_dyn(20)-lvm(30)_final(8).mov,0,101,101,7,,,,,,,,08:48:17:037,08:48:17:759,08:48:20:778,right,08:48:21:296,,,2018_Jun_04_0802,59.9529635661,MP-Perception Experiment,xx07m29re,
421,vcgpdm_dyn(15)-lvm(10)_final(5).mov,True,left,2,training(36).mov,0,102,102,6,,,,,,,,08:48:22:067,08:48:22:813,08:48:25:817,left,08:48:28:286,,,2018_Jun_04_0802,59.9529635661,MP-Perception Experiment,xx07m29re,
422,training(1).mov,True,right,2,vcgpdm_dyn(20)-lvm(35)_final(2).mov,0,103,103,55,,,,,,,,08:48:29:081,08:48:29:818,08:48:32:804,right,08:48:33:221,,,2018_Jun_04_0802,59.9529635661,MP-Perception Experiment,xx07m29re,
423,training(38).mov,True,right,2,vgpdm_dyn(20)-lvm(35)_final(1).mov,0,104,104,24,,,,,,,,08:48:34:003,08:48:34:722,08:48:37:725,right,08:48:38:142,,,2018_Jun_04_0802,59.9529635661,MP-Perception Experiment,xx07m29re,
424,training(7).mov,True,right,2,vcgpdm_dyn(30)-lvm(20)_final(4).mov,0,105,105,88,,,,,,,,08:48:38:943,08:48:39:643,08:48:42:648,right,08:48:43:449,,,2018_Jun_04_0802,59.9529635661,MP-Perception Experiment,xx07m29re,
425,training(41).mov,True,right,2,vgpdm_dyn(15)-lvm(25)_final(9).mov,0,106,106,54,,,,,,,,08:48:44:227,08:48:44:950,08:48:47:969,left,08:48:49:787,,,2018_Jun_04_0802,59.9529635661,MP-Perception Experiment,xx07m29re,
426,training(38).mov,False,right,2,vgpdm_dyn(30)-lvm(30)_final(1).mov,0,107,107,43,,,,,,,,08:48:50:566,08:48:51:305,08:48:54:291,right,08:48:55:926,,,2018_Jun_04_0802,59.9529635661,MP-Perception Experiment,xx07m29re,
427,training(48).mov,True,right,2,dmp_npsi(40)_final(0).mov,0,108,108,145,,,,,,,,08:48:56:703,08:48:57:427,08:49:00:430,right,08:49:01:047,,,2018_Jun_04_0802,59.9529635661,MP-Perception Experiment,xx07m29re,
428,training(1).mov,False,right,2,vgpdm_dyn(30)-lvm(20)_final(5).mov,0,109,109,4,,,,,,,,08:49:01:829,08:49:02:549,08:49:05:568,right,08:49:07:369,,,2018_Jun_04_0802,59.9529635661,MP-Perception Experiment,xx07m29re,
429,training(3).mov,False,right,2,vgpdm_dyn(10)-lvm(35)_final(7).mov,0,110,110,111,,,,,,,,08:49:08:155,08:49:08:870,08:49:11:873,right,08:49:12:423,,,2018_Jun_04_0802,59.9529635661,MP-Perception Experiment,xx07m29re,
430,training(9).mov,True,right,2,vcgpdm_dyn(5)-lvm(20)_final(8).mov,0,111,111,1,,,,,,,,08:49:13:210,08:49:13:941,08:49:16:927,right,08:49:17:779,,,2018_Jun_04_0802,59.9529635661,MP-Perception Experiment,xx07m29re,
431,vgpdm_dyn(25)-lvm(20)_final(9).mov,True,left,2,training(41).mov,0,112,112,128,,,,,,,,08:49:18:577,08:49:19:295,08:49:22:280,right,08:49:22:814,,,2018_Jun_04_0802,59.9529635661,MP-Perception Experiment,xx07m29re,
432,vgpdm_dyn(15)-lvm(35)_final(6).mov,False,left,2,training(23).mov,0,113,113,91,,,,,,,,08:49:23:598,08:49:24:332,08:49:27:318,right,08:49:27:752,,,2018_Jun_04_0802,59.9529635661,MP-Perception Experiment,xx07m29re,
433,training(13).mov,True,right,2,vgpdm_dyn(25)-lvm(20)_final(0).mov,0,114,114,30,,,,,,,,08:49:28:527,08:49:29:253,08:49:32:240,left,08:49:32:657,,,2018_Jun_04_0802,59.9529635661,MP-Perception Experiment,xx07m29re,
434,training(19).mov,True,right,2,tmp_numprim(2)_final(7).mov,0,115,115,71,,,,,,,,08:49:33:456,08:49:34:158,08:49:37:162,right,08:49:37:696,,,2018_Jun_04_0802,59.9529635661,MP-Perception Experiment,xx07m29re,
435,training(9).mov,True,right,2,dmp_npsi(20)_final(6).mov,0,116,116,15,,,,,,,,08:49:38:482,08:49:39:197,08:49:42:199,right,08:49:42:750,,,2018_Jun_04_0802,59.9529635661,MP-Perception Experiment,xx07m29re,
436,vcgpdm_dyn(25)-lvm(10)_final(8).mov,False,left,2,training(34).mov,0,117,117,50,,,,,,,,08:49:43:569,08:49:44:268,08:49:47:270,right,08:49:47:871,,,2018_Jun_04_0802,59.9529635661,MP-Perception Experiment,xx07m29re,
437,training(15).mov,False,right,2,tmp_numprim(3)_final(8).mov,0,118,118,126,,,,,,,,08:49:48:658,08:49:49:372,08:49:52:375,right,08:49:52:909,,,2018_Jun_04_0802,59.9529635661,MP-Perception Experiment,xx07m29re,
438,training(37).mov,False,right,2,vcgpdm_dyn(25)-lvm(10)_final(9).mov,0,119,119,37,,,,,,,,08:49:53:707,08:49:54:410,08:49:57:430,right,08:49:57:930,,,2018_Jun_04_0802,59.9529635661,MP-Perception Experiment,xx07m29re,
439,vcgpdm_dyn(30)-lvm(25)_final(9).mov,True,left,2,training(4).mov,0,120,120,97,,,,,,,,08:49:58:704,08:49:59:431,08:50:02:433,left,08:50:04:502,,,2018_Jun_04_0802,59.9529635661,MP-Perception Experiment,xx07m29re,
440,dmp_npsi(15)_final(3).mov,True,left,2,training(14).mov,0,121,121,11,,,,,,,,08:50:05:274,08:50:06:003,08:50:09:003,left,08:50:09:939,,,2018_Jun_04_0802,59.9529635661,MP-Perception Experiment,xx07m29re,
441,tmp_numprim(6)_final(3).mov,False,left,2,training(13).mov,0,122,122,133,,,,,,,,08:50:10:717,08:50:11:440,08:50:14:442,right,08:50:15:543,,,2018_Jun_04_0802,59.9529635661,MP-Perception Experiment,xx07m29re,
442,training(2).mov,True,right,2,dmp_npsi(50)_final(4).mov,0,123,123,99,,,,,,,,08:50:16:355,08:50:17:044,08:50:20:047,left,08:50:20:432,,,2018_Jun_04_0802,59.9529635661,MP-Perception Experiment,xx07m29re,
443,vcgpdm_dyn(10)-lvm(30)_final(2).mov,False,left,2,training(36).mov,0,124,124,19,,,,,,,,08:50:21:233,08:50:21:950,08:50:24:936,left,08:50:25:436,,,2018_Jun_04_0802,59.9529635661,MP-Perception Experiment,xx07m29re,
444,vcgpdm_dyn(35)-lvm(5)_final(7).mov,True,left,2,training(22).mov,0,125,125,22,,,,,,,,08:50:26:222,08:50:26:937,08:50:29:958,left,08:50:31:277,,,2018_Jun_04_0802,59.9529635661,MP-Perception Experiment,xx07m29re,
445,training(8).mov,False,right,2,vgpdm_dyn(10)-lvm(20)_final(7).mov,0,126,126,78,,,,,,,,08:50:32:067,08:50:32:810,08:50:35:812,right,08:50:36:496,,,2018_Jun_04_0802,59.9529635661,MP-Perception Experiment,xx07m29re,
446,tmp_numprim(2)_final(2).mov,False,left,2,training(29).mov,0,127,127,89,,,,,,,,08:50:37:270,08:50:37:997,08:50:41:000,left,08:50:41:550,,,2018_Jun_04_0802,59.9529635661,MP-Perception Experiment,xx07m29re,
447,training(40).mov,False,right,2,vcgpdm_dyn(5)-lvm(25)_final(7).mov,0,128,128,58,,,,,,,,08:50:42:342,08:50:43:051,08:50:46:055,right,08:50:46:522,,,2018_Jun_04_0802,59.9529635661,MP-Perception Experiment,xx07m29re,
448,tmp_numprim(2)_final(6).mov,False,left,2,training(20).mov,0,129,129,138,,,,,,,,08:50:47:303,08:50:48:023,08:50:51:042,left,08:50:51:426,,,2018_Jun_04_0802,59.9529635661,MP-Perception Experiment,xx07m29re,
449,training(40).mov,True,right,2,vgpdm_dyn(15)-lvm(25)_final(4).mov,0,130,130,123,,,,,,,,08:50:52:208,08:50:52:944,08:50:55:929,right,08:50:56:763,,,2018_Jun_04_0802,59.9529635661,MP-Perception Experiment,xx07m29re,
450,vcgpdm_dyn(5)-lvm(10)_final(9).mov,True,left,2,training(18).mov,0,131,131,115,,,,,,,,08:50:57:548,08:50:58:265,08:51:01:265,left,08:51:01:632,,,2018_Jun_04_0802,59.9529635661,MP-Perception Experiment,xx07m29re,
451,vgpdm_dyn(5)-lvm(20)_final(5).mov,True,left,2,training(40).mov,0,132,132,64,,,,,,,,08:51:02:415,08:51:03:134,08:51:06:137,left,08:51:06:404,,,2018_Jun_04_0802,59.9529635661,MP-Perception Experiment,xx07m29re,
452,training(15).mov,True,right,2,vgpdm_dyn(20)-lvm(5)_final(1).mov,0,133,133,94,,,,,,,,08:51:07:195,08:51:07:905,08:51:10:907,right,08:51:11:291,,,2018_Jun_04_0802,59.9529635661,MP-Perception Experiment,xx07m29re,
453,training(34).mov,True,right,2,vcgpdm_dyn(10)-lvm(10)_final(7).mov,0,134,134,40,,,,,,,,08:51:12:069,08:51:12:809,08:51:15:780,right,08:51:16:347,,,2018_Jun_04_0802,59.9529635661,MP-Perception Experiment,xx07m29re,
454,training(28).mov,True,right,2,vcgpdm_dyn(10)-lvm(30)_final(0).mov,0,135,135,72,,,,,,,,08:51:17:120,08:51:17:848,08:51:20:852,right,08:51:21:335,,,2018_Jun_04_0802,59.9529635661,MP-Perception Experiment,xx07m29re,
455,vcgpdm_dyn(20)-lvm(10)_final(0).mov,False,left,2,training(29).mov,0,136,136,118,,,,,,,,08:51:22:133,08:51:22:853,08:51:25:839,left,08:51:26:339,,,2018_Jun_04_0802,59.9529635661,MP-Perception Experiment,xx07m29re,
456,dmp_npsi(10)_final(3)_bad.mov,True,left,2,training(0).mov,0,137,137,12,,,,,,,,08:51:27:117,08:51:27:840,08:51:30:843,left,08:51:31:310,,,2018_Jun_04_0802,59.9529635661,MP-Perception Experiment,xx07m29re,
457,vcgpdm_dyn(5)-lvm(15)_final(9).mov,True,left,2,training(22).mov,0,138,138,20,,,,,,,,08:51:32:087,08:51:32:811,08:51:35:813,right,08:51:37:833,,,2018_Jun_04_0802,59.9529635661,MP-Perception Experiment,xx07m29re,
458,vcgpdm_dyn(30)-lvm(20)_final(1).mov,True,left,2,training(18).mov,0,139,139,65,,,,,,,,08:51:38:613,08:51:39:334,08:51:42:337,left,08:51:42:770,,,2018_Jun_04_0802,59.9529635661,MP-Perception Experiment,xx07m29re,
459,vcgpdm_dyn(35)-lvm(15)_final(8)_out_of_screen.mov,False,left,2,training(39).mov,0,140,140,112,,,,,,,,08:51:43:571,08:51:44:271,08:51:47:274,left,08:51:48:492,,,2018_Jun_04_0802,59.9529635661,MP-Perception Experiment,xx07m29re,
460,training(7).mov,True,right,2,tmp_numprim(4)_final(8).mov,0,141,141,26,,,,,,,,08:51:49:289,08:51:50:008,08:51:53:010,right,08:51:53:244,,,2018_Jun_04_0802,59.9529635661,MP-Perception Experiment,xx07m29re,
461,training(30).mov,True,right,2,vcgpdm_dyn(10)-lvm(30)_final(8).mov,0,142,142,82,,,,,,,,08:51:54:025,08:51:54:762,08:51:57:748,right,08:51:58:199,,,2018_Jun_04_0802,59.9529635661,MP-Perception Experiment,xx07m29re,
462,vcgpdm_dyn(35)-lvm(5)_final(6).mov,True,left,2,training(34).mov,0,143,143,85,,,,,,,,08:51:58:984,08:51:59:700,08:52:02:704,left,08:52:03:271,,,2018_Jun_04_0802,59.9529635661,MP-Perception Experiment,xx07m29re,
463,training(34).mov,True,right,2,vcgpdm_dyn(35)-lvm(20)_final(5).mov,0,144,144,158,,,,,,,,08:52:04:458,08:52:04:972,08:52:07:792,right,08:52:08:359,,,2018_Jun_04_0802,59.9529635661,MP-Perception Experiment,xx07m29re,
464,tmp_numprim(9)_final(4).mov,False,left,2,training(4).mov,0,145,145,87,,,,,,,,08:52:09:702,08:52:10:210,08:52:12:863,left,08:52:14:698,,,2018_Jun_04_0802,59.9529635661,MP-Perception Experiment,xx07m29re,
465,tmp_numprim(3)_final(6).mov,True,left,2,training(7).mov,0,146,146,90,,,,,,,,08:52:15:479,08:52:16:199,08:52:19:218,left,08:52:19:902,,,2018_Jun_04_0802,59.9529635661,MP-Perception Experiment,xx07m29re,
466,training(23).mov,True,right,2,vcgpdm_dyn(25)-lvm(10)_final(3).mov,0,147,147,79,,,,,,,,08:52:20:676,08:52:21:403,08:52:24:423,right,08:52:25:140,,,2018_Jun_04_0802,59.9529635661,MP-Perception Experiment,xx07m29re,
