trial_number,right,flipped,correct,block,left,trials.thisRepN,trials.thisTrialN,trials.thisN,trials.thisIndex,flipwelcome.keys,flipwelcome.corr,flipwelcome.rt,flippreparations.keys,flippreparations.rt,flipInstructions.keys,flipInstructions.rt,time_at_fixation_cross_onset,time_at_videoonset,time_at_videoend,participant_key_response,time_at_key_response,key_resp_4.keys,key_resp_4.rt,date,frameRate,expName,participant,
,,,,,,,,,,space,0,93.1646395215,,,,,,,,,,,,2018_Jun_04_1330,60.0008493197,MP-Perception Experiment,xx08m28,
,,,,,,,,,,,,,space,8.82307563267,,,,,,,,,,2018_Jun_04_1330,60.0008493197,MP-Perception Experiment,xx08m28,
,,,,,,,,,,,,,,,space,10.5442033086,,,,,,,,2018_Jun_04_1330,60.0008493197,MP-Perception Experiment,xx08m28,
1,vgpdm_dyn(5)-lvm(15)_final(2).mov,False,left,0,training(12).mov,0,0,0,110,,,,,,,,13:32:44:769,13:32:44:769,13:32:47:616,left,13:32:49:317,,,2018_Jun_04_1330,60.0008493197,MP-Perception Experiment,xx08m28,
2,training(24).mov,True,right,0,vcgpdm_dyn(30)-lvm(20)_final(8).mov,0,1,1,147,,,,,,,,13:32:50:069,13:32:50:836,13:32:53:822,right,13:32:54:906,,,2018_Jun_04_1330,60.0008493197,MP-Perception Experiment,xx08m28,
3,vgpdm_dyn(15)-lvm(30)_final(9).mov,False,left,0,training(31).mov,0,2,2,129,,,,,,,,13:32:55:671,13:32:56:407,13:32:59:410,left,13:33:00:010,,,2018_Jun_04_1330,60.0008493197,MP-Perception Experiment,xx08m28,
4,training(35).mov,False,right,0,vcgpdm_dyn(35)-lvm(20)_final(2).mov,0,3,3,49,,,,,,,,13:33:00:767,13:33:01:511,13:33:04:514,left,13:33:05:682,,,2018_Jun_04_1330,60.0008493197,MP-Perception Experiment,xx08m28,
5,training(37).mov,False,right,0,vgpdm_dyn(20)-lvm(25)_final(0).mov,0,4,4,79,,,,,,,,13:33:06:441,13:33:07:182,13:33:10:186,right,13:33:11:087,,,2018_Jun_04_1330,60.0008493197,MP-Perception Experiment,xx08m28,
6,training(32).mov,False,right,0,vcgpdm_dyn(30)-lvm(35)_final(0).mov,0,5,5,124,,,,,,,,13:33:11:862,13:33:12:588,13:33:15:607,right,13:33:16:358,,,2018_Jun_04_1330,60.0008493197,MP-Perception Experiment,xx08m28,
7,dmp_npsi(20)_final(9).mov,True,left,0,training(48).mov,0,6,6,90,,,,,,,,13:33:17:113,13:33:17:859,13:33:20:859,left,13:33:21:277,,,2018_Jun_04_1330,60.0008493197,MP-Perception Experiment,xx08m28,
8,vgpdm_dyn(20)-lvm(15)_final(0).mov,True,left,0,training(18).mov,0,7,7,9,,,,,,,,13:33:22:036,13:33:22:778,13:33:25:781,left,13:33:26:265,,,2018_Jun_04_1330,60.0008493197,MP-Perception Experiment,xx08m28,
9,training(35).mov,True,right,0,vcgpdm_dyn(5)-lvm(20)_final(5).mov,0,8,8,95,,,,,,,,13:33:27:063,13:33:27:783,13:33:30:768,right,13:33:31:252,,,2018_Jun_04_1330,60.0008493197,MP-Perception Experiment,xx08m28,
10,map_gpdm_final(3).mov,False,left,0,training(39).mov,0,9,9,104,,,,,,,,13:33:32:006,13:33:32:753,13:33:35:758,left,13:33:36:358,,,2018_Jun_04_1330,60.0008493197,MP-Perception Experiment,xx08m28,
11,training(31).mov,True,right,0,vcgpdm_dyn(5)-lvm(35)_final(8)_bad.mov,0,10,10,145,,,,,,,,13:33:37:106,13:33:37:859,13:33:40:878,right,13:33:41:496,,,2018_Jun_04_1330,60.0008493197,MP-Perception Experiment,xx08m28,
12,training(32).mov,False,right,0,vcgpdm_dyn(15)-lvm(25)_final(9).mov,0,11,11,28,,,,,,,,13:33:42:248,13:33:42:998,13:33:46:001,right,13:33:46:501,,,2018_Jun_04_1330,60.0008493197,MP-Perception Experiment,xx08m28,
13,training(24).mov,False,right,0,vcgpdm_dyn(15)-lvm(20)_final(8).mov,0,12,12,18,,,,,,,,13:33:47:281,13:33:48:002,13:33:51:004,right,13:33:51:505,,,2018_Jun_04_1330,60.0008493197,MP-Perception Experiment,xx08m28,
14,training(4).mov,True,right,0,vcgpdm_dyn(35)-lvm(10)_final(0).mov,0,13,13,40,,,,,,,,13:33:52:273,13:33:53:006,13:33:56:008,right,13:33:56:942,,,2018_Jun_04_1330,60.0008493197,MP-Perception Experiment,xx08m28,
15,training(40).mov,False,right,0,vcgpdm_dyn(30)-lvm(5)_final(2).mov,0,14,14,47,,,,,,,,13:33:57:702,13:33:58:444,13:34:01:447,right,13:34:01:898,,,2018_Jun_04_1330,60.0008493197,MP-Perception Experiment,xx08m28,
16,vgpdm_dyn(20)-lvm(25)_final(9).mov,False,left,0,training(15).mov,0,15,15,114,,,,,,,,13:34:02:655,13:34:03:399,13:34:06:418,left,13:34:06:918,,,2018_Jun_04_1330,60.0008493197,MP-Perception Experiment,xx08m28,
17,vcgpdm_dyn(25)-lvm(25)_final(2).mov,False,left,0,training(39).mov,0,16,16,105,,,,,,,,13:34:07:672,13:34:08:419,13:34:11:437,left,13:34:11:920,,,2018_Jun_04_1330,60.0008493197,MP-Perception Experiment,xx08m28,
18,dmp_npsi(45)_final(5).mov,False,left,0,training(11).mov,0,17,17,46,,,,,,,,13:34:12:686,13:34:13:422,13:34:16:424,left,13:34:16:791,,,2018_Jun_04_1330,60.0008493197,MP-Perception Experiment,xx08m28,
19,vgpdm_dyn(10)-lvm(30)_final(5).mov,False,left,0,training(2).mov,0,18,18,32,,,,,,,,13:34:17:589,13:34:18:310,13:34:21:281,left,13:34:21:781,,,2018_Jun_04_1330,60.0008493197,MP-Perception Experiment,xx08m28,
20,training(33).mov,True,right,0,vgpdm_dyn(30)-lvm(20)_final(4).mov,0,19,19,29,,,,,,,,13:34:22:532,13:34:23:282,13:34:26:285,left,13:34:26:785,,,2018_Jun_04_1330,60.0008493197,MP-Perception Experiment,xx08m28,
21,training(34).mov,True,right,0,vcgpdm_dyn(35)-lvm(20)_final(2).mov,0,20,20,85,,,,,,,,13:34:27:659,13:34:28:303,13:34:31:289,right,13:34:31:789,,,2018_Jun_04_1330,60.0008493197,MP-Perception Experiment,xx08m28,
22,training(39).mov,False,right,0,map_gpdm_final(4).mov,0,21,21,21,,,,,,,,13:34:32:549,13:34:33:290,13:34:36:294,right,13:34:36:628,,,2018_Jun_04_1330,60.0008493197,MP-Perception Experiment,xx08m28,
23,vcgpdm_dyn(20)-lvm(20)_final(9).mov,False,left,0,training(27).mov,0,22,22,158,,,,,,,,13:34:37:379,13:34:38:129,13:34:41:131,right,13:34:42:616,,,2018_Jun_04_1330,60.0008493197,MP-Perception Experiment,xx08m28,
24,training(35).mov,False,right,0,tmp_numprim(4)_final(1).mov,0,23,23,15,,,,,,,,13:34:43:380,13:34:44:117,13:34:47:119,right,13:34:47:587,,,2018_Jun_04_1330,60.0008493197,MP-Perception Experiment,xx08m28,
25,training(26).mov,True,right,0,tmp_numprim(10)_final(1).mov,0,24,24,37,,,,,,,,13:34:48:351,13:34:49:104,13:34:52:090,left,13:34:52:591,,,2018_Jun_04_1330,60.0008493197,MP-Perception Experiment,xx08m28,
26,training(36).mov,True,right,0,tmp_numprim(9)_final(3).mov,0,25,25,131,,,,,,,,13:34:53:370,13:34:54:092,13:34:57:111,right,13:34:57:612,,,2018_Jun_04_1330,60.0008493197,MP-Perception Experiment,xx08m28,
27,training(2).mov,False,right,0,dmp_npsi(15)_final(7).mov,0,26,26,30,,,,,,,,13:34:58:366,13:34:59:113,13:35:02:114,right,13:35:02:531,,,2018_Jun_04_1330,60.0008493197,MP-Perception Experiment,xx08m28,
28,vcgpdm_dyn(25)-lvm(30)_final(3).mov,True,left,0,training(7).mov,0,27,27,152,,,,,,,,13:35:03:304,13:35:04:032,13:35:07:034,left,13:35:07:368,,,2018_Jun_04_1330,60.0008493197,MP-Perception Experiment,xx08m28,
29,training(35).mov,False,right,0,vgpdm_dyn(30)-lvm(30)_final(2).mov,0,28,28,68,,,,,,,,13:35:08:125,13:35:08:869,13:35:11:858,left,13:35:12:342,,,2018_Jun_04_1330,60.0008493197,MP-Perception Experiment,xx08m28,
30,vcgpdm_dyn(15)-lvm(35)_final(0).mov,True,left,0,training(0).mov,0,29,29,74,,,,,,,,13:35:13:099,13:35:13:843,13:35:16:845,right,13:35:17:346,,,2018_Jun_04_1330,60.0008493197,MP-Perception Experiment,xx08m28,
31,vcgpdm_dyn(30)-lvm(35)_final(7).mov,False,left,0,training(30).mov,0,30,30,69,,,,,,,,13:35:18:114,13:35:18:847,13:35:21:866,left,13:35:22:267,,,2018_Jun_04_1330,60.0008493197,MP-Perception Experiment,xx08m28,
32,vgpdm_dyn(30)-lvm(25)_final(8).mov,True,left,0,training(7).mov,0,31,31,83,,,,,,,,13:35:23:037,13:35:23:784,13:35:26:803,left,13:35:27:237,,,2018_Jun_04_1330,60.0008493197,MP-Perception Experiment,xx08m28,
33,vcgpdm_dyn(25)-lvm(15)_final(5).mov,False,left,0,training(34).mov,0,32,32,61,,,,,,,,13:35:27:997,13:35:28:739,13:35:31:741,left,13:35:32:059,,,2018_Jun_04_1330,60.0008493197,MP-Perception Experiment,xx08m28,
34,vcgpdm_dyn(5)-lvm(10)_final(0).mov,True,left,0,training(2).mov,0,33,33,64,,,,,,,,13:35:32:810,13:35:33:560,13:35:36:562,left,13:35:36:996,,,2018_Jun_04_1330,60.0008493197,MP-Perception Experiment,xx08m28,
35,vgpdm_dyn(25)-lvm(5)_final(4).mov,True,left,0,training(25).mov,0,34,34,153,,,,,,,,13:35:37:772,13:35:38:497,13:35:41:499,left,13:35:41:967,,,2018_Jun_04_1330,60.0008493197,MP-Perception Experiment,xx08m28,
36,training(11).mov,False,right,0,vcgpdm_dyn(30)-lvm(10)_final(8).mov,0,35,35,0,,,,,,,,13:35:42:717,13:35:43:484,13:35:46:488,right,13:35:47:289,,,2018_Jun_04_1330,60.0008493197,MP-Perception Experiment,xx08m28,
37,training(26).mov,True,right,0,vgpdm_dyn(20)-lvm(15)_final(0).mov,0,36,36,67,,,,,,,,13:35:48:049,13:35:48:790,13:35:51:790,right,13:35:52:458,,,2018_Jun_04_1330,60.0008493197,MP-Perception Experiment,xx08m28,
38,vgpdm_dyn(35)-lvm(30)_final(7).mov,True,left,0,training(36).mov,0,37,37,13,,,,,,,,13:35:53:212,13:35:53:959,13:35:56:961,left,13:35:57:228,,,2018_Jun_04_1330,60.0008493197,MP-Perception Experiment,xx08m28,
39,training(6).mov,False,right,0,vcgpdm_dyn(30)-lvm(30)_final(3).mov,0,38,38,26,,,,,,,,13:35:58:004,13:35:58:729,13:36:01:717,right,13:36:02:050,,,2018_Jun_04_1330,60.0008493197,MP-Perception Experiment,xx08m28,
40,training(8).mov,True,right,0,vcgpdm_dyn(10)-lvm(10)_final(6).mov,0,39,39,82,,,,,,,,13:36:02:810,13:36:03:569,13:36:06:555,right,13:36:07:039,,,2018_Jun_04_1330,60.0008493197,MP-Perception Experiment,xx08m28,
41,training(12).mov,False,right,0,vgpdm_dyn(35)-lvm(30)_final(8).mov,0,40,40,23,,,,,,,,13:36:07:797,13:36:08:540,13:36:11:542,left,13:36:12:076,,,2018_Jun_04_1330,60.0008493197,MP-Perception Experiment,xx08m28,
42,training(34).mov,False,right,0,vcgpdm_dyn(35)-lvm(5)_final(0).mov,0,41,41,103,,,,,,,,13:36:12:830,13:36:13:577,13:36:16:580,right,13:36:17:597,,,2018_Jun_04_1330,60.0008493197,MP-Perception Experiment,xx08m28,
43,training(22).mov,False,right,0,vgpdm_dyn(30)-lvm(15)_final(2).mov,0,42,42,121,,,,,,,,13:36:18:361,13:36:19:098,13:36:22:102,left,13:36:23:803,,,2018_Jun_04_1330,60.0008493197,MP-Perception Experiment,xx08m28,
44,training(38).mov,True,right,0,vcgpdm_dyn(30)-lvm(20)_final(0).mov,0,43,43,102,,,,,,,,13:36:24:545,13:36:25:304,13:36:28:307,right,13:36:28:974,,,2018_Jun_04_1330,60.0008493197,MP-Perception Experiment,xx08m28,
45,vgpdm_dyn(30)-lvm(35)_final(4).mov,False,left,0,training(31).mov,0,44,44,54,,,,,,,,13:36:29:729,13:36:30:475,13:36:33:494,left,13:36:33:978,,,2018_Jun_04_1330,60.0008493197,MP-Perception Experiment,xx08m28,
46,training(36).mov,True,right,0,tmp_numprim(8)_final(4).mov,0,45,45,120,,,,,,,,13:36:34:742,13:36:35:479,13:36:38:483,left,13:36:38:900,,,2018_Jun_04_1330,60.0008493197,MP-Perception Experiment,xx08m28,
47,vgpdm_dyn(35)-lvm(5)_final(8).mov,False,left,0,training(36).mov,0,46,46,80,,,,,,,,13:36:39:652,13:36:40:416,13:36:43:402,left,13:36:43:769,,,2018_Jun_04_1330,60.0008493197,MP-Perception Experiment,xx08m28,
48,training(33).mov,False,right,0,tmp_numprim(10)_final(3).mov,0,47,47,17,,,,,,,,13:36:44:520,13:36:45:286,13:36:48:273,right,13:36:48:556,,,2018_Jun_04_1330,60.0008493197,MP-Perception Experiment,xx08m28,
49,training(6).mov,False,right,0,vcgpdm_dyn(20)-lvm(35)_final(4).mov,0,48,48,11,,,,,,,,13:36:49:309,13:36:50:057,13:36:53:045,right,13:36:53:728,,,2018_Jun_04_1330,60.0008493197,MP-Perception Experiment,xx08m28,
50,training(12).mov,True,right,0,tmp_numprim(7)_final(3).mov,0,49,49,81,,,,,,,,13:36:54:478,13:36:55:231,13:36:58:233,left,13:36:58:700,,,2018_Jun_04_1330,60.0008493197,MP-Perception Experiment,xx08m28,
51,vgpdm_dyn(20)-lvm(35)_final(8).mov,False,left,0,training(6).mov,0,50,50,113,,,,,,,,13:36:59:439,13:37:00:201,13:37:03:204,right,13:37:03:754,,,2018_Jun_04_1330,60.0008493197,MP-Perception Experiment,xx08m28,
52,training(8).mov,False,right,0,tmp_numprim(2)_final(6).mov,0,51,51,45,,,,,,,,13:37:04:525,13:37:05:272,13:37:08:275,right,13:37:08:708,,,2018_Jun_04_1330,60.0008493197,MP-Perception Experiment,xx08m28,
53,vcgpdm_dyn(20)-lvm(20)_final(0).mov,True,left,0,training(2).mov,0,52,52,99,,,,,,,,13:37:09:455,13:37:10:209,13:37:13:213,right,13:37:13:780,,,2018_Jun_04_1330,60.0008493197,MP-Perception Experiment,xx08m28,
54,training(6).mov,False,right,0,vcgpdm_dyn(5)-lvm(20)_final(8).mov,0,53,53,73,,,,,,,,13:37:14:529,13:37:15:281,13:37:18:284,right,13:37:18:784,,,2018_Jun_04_1330,60.0008493197,MP-Perception Experiment,xx08m28,
55,training(35).mov,True,right,0,vgpdm_dyn(35)-lvm(30)_final(7).mov,0,54,54,142,,,,,,,,13:37:19:535,13:37:20:285,13:37:23:287,left,13:37:24:355,,,2018_Jun_04_1330,60.0008493197,MP-Perception Experiment,xx08m28,
56,map_cgpdm_final(2).mov,True,left,0,training(36).mov,0,55,55,149,,,,,,,,13:37:25:110,13:37:25:873,13:37:28:859,left,13:37:29:359,,,2018_Jun_04_1330,60.0008493197,MP-Perception Experiment,xx08m28,
57,vgpdm_dyn(20)-lvm(15)_final(7).mov,True,left,0,training(11).mov,0,56,56,97,,,,,,,,13:37:30:129,13:37:30:893,13:37:33:879,left,13:37:34:579,,,2018_Jun_04_1330,60.0008493197,MP-Perception Experiment,xx08m28,
58,vgpdm_dyn(5)-lvm(30)_final(8).mov,False,left,0,training(19).mov,0,57,57,51,,,,,,,,13:37:35:336,13:37:36:080,13:37:39:083,left,13:37:39:650,,,2018_Jun_04_1330,60.0008493197,MP-Perception Experiment,xx08m28,
59,vgpdm_dyn(35)-lvm(10)_final(1).mov,True,left,0,training(5).mov,0,58,58,20,,,,,,,,13:37:40:401,13:37:41:153,13:37:44:139,right,13:37:45:623,,,2018_Jun_04_1330,60.0008493197,MP-Perception Experiment,xx08m28,
60,vcgpdm_dyn(25)-lvm(25)_final(9).mov,True,left,0,training(23).mov,0,59,59,58,,,,,,,,13:37:46:406,13:37:47:124,13:37:50:128,right,13:37:50:645,,,2018_Jun_04_1330,60.0008493197,MP-Perception Experiment,xx08m28,
61,training(25).mov,False,right,0,vcgpdm_dyn(30)-lvm(35)_final(1).mov,0,60,60,109,,,,,,,,13:37:51:394,13:37:52:146,13:37:55:165,right,13:37:55:699,,,2018_Jun_04_1330,60.0008493197,MP-Perception Experiment,xx08m28,
62,training(36).mov,False,right,0,vcgpdm_dyn(10)-lvm(35)_final(6).mov,0,61,61,19,,,,,,,,13:37:56:462,13:37:57:200,13:38:00:203,right,13:38:00:553,,,2018_Jun_04_1330,60.0008493197,MP-Perception Experiment,xx08m28,
63,vcgpdm_dyn(20)-lvm(5)_final(3).mov,True,left,0,training(12).mov,0,62,62,107,,,,,,,,13:38:01:315,13:38:02:071,13:38:05:058,left,13:38:05:508,,,2018_Jun_04_1330,60.0008493197,MP-Perception Experiment,xx08m28,
64,vcgpdm_dyn(25)-lvm(10)_final(5).mov,False,left,0,training(23).mov,0,63,63,157,,,,,,,,13:38:06:286,13:38:07:009,13:38:10:029,left,13:38:10:429,,,2018_Jun_04_1330,60.0008493197,MP-Perception Experiment,xx08m28,
65,training(2).mov,True,right,0,dmp_npsi(25)_final(6).mov,0,64,64,111,,,,,,,,13:38:11:189,13:38:11:930,13:38:14:932,right,13:38:15:533,,,2018_Jun_04_1330,60.0008493197,MP-Perception Experiment,xx08m28,
66,vcgpdm_dyn(30)-lvm(10)_final(5).mov,False,left,0,training(26).mov,0,65,65,116,,,,,,,,13:38:16:290,13:38:17:034,13:38:20:035,left,13:38:20:535,,,2018_Jun_04_1330,60.0008493197,MP-Perception Experiment,xx08m28,
67,vcgpdm_dyn(5)-lvm(15)_final(9).mov,False,left,0,training(7).mov,0,66,66,24,,,,,,,,13:38:21:290,13:38:22:036,13:38:25:040,right,13:38:25:624,,,2018_Jun_04_1330,60.0008493197,MP-Perception Experiment,xx08m28,
68,training(0).mov,False,right,0,tmp_numprim(5)_final(9).mov,0,67,67,72,,,,,,,,13:38:26:403,13:38:27:125,13:38:30:127,right,13:38:30:494,,,2018_Jun_04_1330,60.0008493197,MP-Perception Experiment,xx08m28,
69,vgpdm_dyn(30)-lvm(25)_final(8).mov,False,left,0,training(20).mov,0,68,68,39,,,,,,,,13:38:31:263,13:38:31:995,13:38:34:983,left,13:38:35:417,,,2018_Jun_04_1330,60.0008493197,MP-Perception Experiment,xx08m28,
70,vgpdm_dyn(10)-lvm(25)_final(0).mov,False,left,0,training(28).mov,0,69,69,88,,,,,,,,13:38:36:180,13:38:36:918,13:38:39:921,right,13:38:40:472,,,2018_Jun_04_1330,60.0008493197,MP-Perception Experiment,xx08m28,
71,vcgpdm_dyn(10)-lvm(10)_final(0).mov,True,left,0,training(33).mov,0,70,70,127,,,,,,,,13:38:41:222,13:38:41:973,13:38:44:975,left,13:38:45:376,,,2018_Jun_04_1330,60.0008493197,MP-Perception Experiment,xx08m28,
72,training(39).mov,False,right,0,vcgpdm_dyn(10)-lvm(20)_final(9).mov,0,71,71,34,,,,,,,,13:38:46:139,13:38:46:877,13:38:49:879,right,13:38:50:296,,,2018_Jun_04_1330,60.0008493197,MP-Perception Experiment,xx08m28,
73,vgpdm_dyn(15)-lvm(25)_final(5).mov,True,left,0,training(10).mov,0,72,72,77,,,,,,,,13:38:51:064,13:38:51:797,13:38:54:800,left,13:38:55:767,,,2018_Jun_04_1330,60.0008493197,MP-Perception Experiment,xx08m28,
74,vcgpdm_dyn(25)-lvm(15)_final(4).mov,False,left,0,training(16).mov,0,73,73,4,,,,,,,,13:38:56:518,13:38:57:285,13:39:00:272,left,13:39:01:006,,,2018_Jun_04_1330,60.0008493197,MP-Perception Experiment,xx08m28,
75,vgpdm_dyn(25)-lvm(35)_final(6).mov,True,left,0,training(17).mov,0,74,74,60,,,,,,,,13:39:01:770,13:39:02:507,13:39:05:509,left,13:39:05:860,,,2018_Jun_04_1330,60.0008493197,MP-Perception Experiment,xx08m28,
76,vgpdm_dyn(5)-lvm(20)_final(4).mov,True,left,0,training(18).mov,0,75,75,33,,,,,,,,13:39:06:619,13:39:07:361,13:39:10:362,left,13:39:10:679,,,2018_Jun_04_1330,60.0008493197,MP-Perception Experiment,xx08m28,
77,vcgpdm_dyn(35)-lvm(10)_final(7).mov,True,left,0,training(2).mov,0,76,76,155,,,,,,,,13:39:11:425,13:39:12:180,13:39:15:183,right,13:39:15:634,,,2018_Jun_04_1330,60.0008493197,MP-Perception Experiment,xx08m28,
78,vcgpdm_dyn(10)-lvm(5)_final(4).mov,True,left,0,training(20).mov,0,77,77,92,,,,,,,,13:39:16:409,13:39:17:135,13:39:20:137,left,13:39:20:621,,,2018_Jun_04_1330,60.0008493197,MP-Perception Experiment,xx08m28,
79,training(24).mov,True,right,0,vcgpdm_dyn(35)-lvm(10)_final(2).mov,0,78,78,140,,,,,,,,13:39:21:380,13:39:22:140,13:39:25:143,right,13:39:25:627,,,2018_Jun_04_1330,60.0008493197,MP-Perception Experiment,xx08m28,
80,training(14).mov,False,right,0,vgpdm_dyn(10)-lvm(20)_final(2).mov,0,79,79,44,,,,,,,,13:39:26:390,13:39:27:128,13:39:30:130,right,13:39:31:331,,,2018_Jun_04_1330,60.0008493197,MP-Perception Experiment,xx08m28,
81,training(12).mov,False,right,0,vgpdm_dyn(25)-lvm(30)_final(6).mov,0,80,80,146,,,,,,,,13:39:32:081,13:39:32:833,13:39:35:836,right,13:39:36:437,,,2018_Jun_04_1330,60.0008493197,MP-Perception Experiment,xx08m28,
82,vgpdm_dyn(15)-lvm(30)_final(0).mov,True,left,0,training(12).mov,0,81,81,154,,,,,,,,13:39:37:198,13:39:37:938,13:39:40:957,left,13:39:41:441,,,2018_Jun_04_1330,60.0008493197,MP-Perception Experiment,xx08m28,
83,tmp_numprim(9)_final(9).mov,False,left,0,training(7).mov,0,82,82,55,,,,,,,,13:39:42:210,13:39:42:942,13:39:45:944,left,13:39:46:294,,,2018_Jun_04_1330,60.0008493197,MP-Perception Experiment,xx08m28,
84,training(26).mov,True,right,0,vgpdm_dyn(15)-lvm(25)_final(2).mov,0,83,83,25,,,,,,,,13:39:47:038,13:39:47:796,13:39:50:799,left,13:39:51:249,,,2018_Jun_04_1330,60.0008493197,MP-Perception Experiment,xx08m28,
85,vgpdm_dyn(15)-lvm(30)_final(3).mov,False,left,0,training(25).mov,0,84,84,133,,,,,,,,13:39:52:010,13:39:52:750,13:39:55:753,left,13:39:56:170,,,2018_Jun_04_1330,60.0008493197,MP-Perception Experiment,xx08m28,
86,vcgpdm_dyn(20)-lvm(20)_final(8).mov,False,left,0,training(19).mov,0,85,85,75,,,,,,,,13:39:56:929,13:39:57:671,13:40:00:672,right,13:40:01:005,,,2018_Jun_04_1330,60.0008493197,MP-Perception Experiment,xx08m28,
87,training(6).mov,False,right,0,vgpdm_dyn(30)-lvm(30)_final(7).mov,0,86,86,50,,,,,,,,13:40:01:754,13:40:02:507,13:40:05:509,left,13:40:05:926,,,2018_Jun_04_1330,60.0008493197,MP-Perception Experiment,xx08m28,
88,training(28).mov,True,right,0,vcgpdm_dyn(20)-lvm(30)_final(0).mov,0,87,87,1,,,,,,,,13:40:06:693,13:40:07:428,13:40:10:431,right,13:40:11:016,,,2018_Jun_04_1330,60.0008493197,MP-Perception Experiment,xx08m28,
89,dmp_npsi(15)_final(5).mov,True,left,0,training(29).mov,0,88,88,6,,,,,,,,13:40:11:818,13:40:12:518,13:40:15:520,left,13:40:15:904,,,2018_Jun_04_1330,60.0008493197,MP-Perception Experiment,xx08m28,
90,training(14).mov,True,right,0,vcgpdm_dyn(15)-lvm(20)_final(3).mov,0,89,89,141,,,,,,,,13:40:16:654,13:40:17:405,13:40:20:407,right,13:40:20:858,,,2018_Jun_04_1330,60.0008493197,MP-Perception Experiment,xx08m28,
91,training(13).mov,False,right,0,vgpdm_dyn(10)-lvm(15)_final(1).mov,0,90,90,10,,,,,,,,13:40:21:616,13:40:22:359,13:40:25:362,left,13:40:26:563,,,2018_Jun_04_1330,60.0008493197,MP-Perception Experiment,xx08m28,
92,tmp_numprim(6)_final(7).mov,True,left,0,training(12).mov,0,91,91,2,,,,,,,,13:40:27:574,13:40:28:081,13:40:31:067,left,13:40:31:484,,,2018_Jun_04_1330,60.0008493197,MP-Perception Experiment,xx08m28,
93,vcgpdm_dyn(10)-lvm(25)_final(8).mov,True,left,0,training(41).mov,0,92,92,43,,,,,,,,13:40:32:263,13:40:32:985,13:40:35:988,left,13:40:36:405,,,2018_Jun_04_1330,60.0008493197,MP-Perception Experiment,xx08m28,
94,training(12).mov,False,right,0,tmp_numprim(10)_final(5).mov,0,93,93,63,,,,,,,,13:40:37:159,13:40:37:906,13:40:40:908,right,13:40:41:342,,,2018_Jun_04_1330,60.0008493197,MP-Perception Experiment,xx08m28,
95,training(30).mov,False,right,0,vgpdm_dyn(15)-lvm(35)_final(5).mov,0,94,94,137,,,,,,,,13:40:42:114,13:40:42:844,13:40:45:846,right,13:40:46:247,,,2018_Jun_04_1330,60.0008493197,MP-Perception Experiment,xx08m28,
96,tmp_numprim(10)_final(5).mov,True,left,0,training(15).mov,0,95,95,156,,,,,,,,13:40:46:997,13:40:47:748,13:40:50:749,left,13:40:51:082,,,2018_Jun_04_1330,60.0008493197,MP-Perception Experiment,xx08m28,
97,vgpdm_dyn(20)-lvm(30)_final(2).mov,False,left,0,training(32).mov,0,96,96,66,,,,,,,,13:40:51:831,13:40:52:583,13:40:55:586,right,13:40:55:970,,,2018_Jun_04_1330,60.0008493197,MP-Perception Experiment,xx08m28,
98,training(0).mov,True,right,0,vgpdm_dyn(20)-lvm(5)_final(6).mov,0,97,97,3,,,,,,,,13:40:56:747,13:40:57:471,13:41:00:474,right,13:41:01:043,,,2018_Jun_04_1330,60.0008493197,MP-Perception Experiment,xx08m28,
99,training(12).mov,False,right,0,map_cgpdm_final(6).mov,0,98,98,31,,,,,,,,13:41:01:794,13:41:02:544,13:41:05:547,left,13:41:05:964,,,2018_Jun_04_1330,60.0008493197,MP-Perception Experiment,xx08m28,
100,training(26).mov,False,right,0,vcgpdm_dyn(5)-lvm(20)_final(2).mov,0,99,99,123,,,,,,,,13:41:06:731,13:41:07:465,13:41:10:467,right,13:41:10:951,,,2018_Jun_04_1330,60.0008493197,MP-Perception Experiment,xx08m28,
101,vcgpdm_dyn(20)-lvm(35)_final(3).mov,False,left,0,training(5).mov,0,100,100,91,,,,,,,,13:41:11:710,13:41:12:452,13:41:15:471,right,13:41:16:055,,,2018_Jun_04_1330,60.0008493197,MP-Perception Experiment,xx08m28,
102,training(5).mov,False,right,0,vgpdm_dyn(10)-lvm(35)_final(8).mov,0,101,101,144,,,,,,,,13:41:16:804,13:41:17:574,13:41:20:560,right,13:41:21:010,,,2018_Jun_04_1330,60.0008493197,MP-Perception Experiment,xx08m28,
103,vgpdm_dyn(20)-lvm(5)_final(8).mov,True,left,0,training(3).mov,0,102,102,126,,,,,,,,13:41:21:770,13:41:22:511,13:41:25:514,left,13:41:25:931,,,2018_Jun_04_1330,60.0008493197,MP-Perception Experiment,xx08m28,
104,vgpdm_dyn(35)-lvm(5)_final(0).mov,True,left,0,training(2).mov,0,103,103,7,,,,,,,,13:41:27:646,13:41:27:646,13:41:30:434,left,13:41:30:918,,,2018_Jun_04_1330,60.0008493197,MP-Perception Experiment,xx08m28,
105,training(35).mov,True,right,0,vcgpdm_dyn(35)-lvm(25)_final(4).mov,0,104,104,52,,,,,,,,13:41:31:671,13:41:32:419,13:41:35:439,left,13:41:35:940,,,2018_Jun_04_1330,60.0008493197,MP-Perception Experiment,xx08m28,
106,vcgpdm_dyn(30)-lvm(35)_final(8).mov,True,left,0,training(10).mov,0,105,105,62,,,,,,,,13:41:36:707,13:41:37:458,13:41:40:442,right,13:41:40:976,,,2018_Jun_04_1330,60.0008493197,MP-Perception Experiment,xx08m28,
107,training(40).mov,True,right,0,vcgpdm_dyn(30)-lvm(30)_final(3).mov,0,106,106,151,,,,,,,,13:41:41:729,13:41:42:477,13:41:45:479,right,13:41:46:080,,,2018_Jun_04_1330,60.0008493197,MP-Perception Experiment,xx08m28,
108,training(31).mov,False,right,0,vcgpdm_dyn(20)-lvm(25)_final(0).mov,0,107,107,98,,,,,,,,13:41:46:835,13:41:47:581,13:41:50:583,right,13:41:51:151,,,2018_Jun_04_1330,60.0008493197,MP-Perception Experiment,xx08m28,
109,vgpdm_dyn(30)-lvm(15)_final(0).mov,True,left,0,training(6).mov,0,108,108,8,,,,,,,,13:41:51:911,13:41:52:669,13:41:55:673,left,13:41:56:391,,,2018_Jun_04_1330,60.0008493197,MP-Perception Experiment,xx08m28,
110,training(6).mov,False,right,0,tmp_numprim(4)_final(9).mov,0,109,109,94,,,,,,,,13:41:57:142,13:41:57:892,13:42:00:895,right,13:42:01:278,,,2018_Jun_04_1330,60.0008493197,MP-Perception Experiment,xx08m28,
111,training(40).mov,True,right,0,vgpdm_dyn(10)-lvm(20)_final(2).mov,0,110,110,132,,,,,,,,13:42:02:027,13:42:02:779,13:42:05:782,left,13:42:06:282,,,2018_Jun_04_1330,60.0008493197,MP-Perception Experiment,xx08m28,
112,training(19).mov,True,right,0,dmp_npsi(50)_final(8).mov,0,111,111,122,,,,,,,,13:42:07:034,13:42:07:783,13:42:10:787,left,13:42:11:187,,,2018_Jun_04_1330,60.0008493197,MP-Perception Experiment,xx08m28,
113,training(8).mov,True,right,0,vgpdm_dyn(30)-lvm(20)_final(1).mov,0,112,112,22,,,,,,,,13:42:11:940,13:42:12:705,13:42:15:691,left,13:42:16:458,,,2018_Jun_04_1330,60.0008493197,MP-Perception Experiment,xx08m28,
114,training(11).mov,True,right,0,tmp_numprim(4)_final(4).mov,0,113,113,70,,,,,,,,13:42:17:219,13:42:17:959,13:42:20:961,right,13:42:21:312,,,2018_Jun_04_1330,60.0008493197,MP-Perception Experiment,xx08m28,
115,dmp_npsi(30)_final(5).mov,False,left,0,training(33).mov,0,114,114,16,,,,,,,,13:42:22:055,13:42:22:813,13:42:25:832,right,13:42:26:266,,,2018_Jun_04_1330,60.0008493197,MP-Perception Experiment,xx08m28,
116,training(34).mov,False,right,0,vcgpdm_dyn(20)-lvm(10)_final(8).mov,0,115,115,128,,,,,,,,13:42:27:742,13:42:28:252,13:42:30:769,right,13:42:31:269,,,2018_Jun_04_1330,60.0008493197,MP-Perception Experiment,xx08m28,
117,training(33).mov,False,right,0,vgpdm_dyn(10)-lvm(35)_final(2).mov,0,116,116,134,,,,,,,,13:42:32:019,13:42:32:770,13:42:35:773,right,13:42:36:056,,,2018_Jun_04_1330,60.0008493197,MP-Perception Experiment,xx08m28,
118,training(31).mov,False,right,0,vcgpdm_dyn(20)-lvm(10)_final(7).mov,0,117,117,48,,,,,,,,13:42:36:807,13:42:37:574,13:42:40:560,right,13:42:40:860,,,2018_Jun_04_1330,60.0008493197,MP-Perception Experiment,xx08m28,
119,training(12).mov,False,right,0,vcgpdm_dyn(5)-lvm(25)_final(0).mov,0,118,118,96,,,,,,,,13:42:41:613,13:42:42:363,13:42:45:367,right,13:42:45:767,,,2018_Jun_04_1330,60.0008493197,MP-Perception Experiment,xx08m28,
120,vcgpdm_dyn(5)-lvm(5)_final(4).mov,True,left,0,training(26).mov,0,119,119,78,,,,,,,,13:42:46:517,13:42:47:268,13:42:50:271,left,13:42:50:804,,,2018_Jun_04_1330,60.0008493197,MP-Perception Experiment,xx08m28,
121,training(27).mov,True,right,0,vgpdm_dyn(20)-lvm(25)_final(0).mov,0,120,120,5,,,,,,,,13:42:51:543,13:42:52:306,13:42:55:308,left,13:42:55:725,,,2018_Jun_04_1330,60.0008493197,MP-Perception Experiment,xx08m28,
122,vcgpdm_dyn(30)-lvm(35)_final(1).mov,False,left,0,training(15).mov,0,121,121,143,,,,,,,,13:42:56:461,13:42:57:226,13:43:00:229,left,13:43:00:612,,,2018_Jun_04_1330,60.0008493197,MP-Perception Experiment,xx08m28,
123,vcgpdm_dyn(10)-lvm(35)_final(3).mov,False,left,0,training(3).mov,0,122,122,93,,,,,,,,13:43:01:377,13:43:02:131,13:43:05:117,left,13:43:05:585,,,2018_Jun_04_1330,60.0008493197,MP-Perception Experiment,xx08m28,
124,dmp_npsi(20)_final(1).mov,True,left,0,training(20).mov,0,123,123,41,,,,,,,,13:43:06:348,13:43:07:102,13:43:10:104,left,13:43:10:555,,,2018_Jun_04_1330,60.0008493197,MP-Perception Experiment,xx08m28,
125,dmp_npsi(35)_final(0).mov,False,left,0,training(16).mov,0,124,124,71,,,,,,,,13:43:11:334,13:43:12:056,13:43:15:058,left,13:43:15:492,,,2018_Jun_04_1330,60.0008493197,MP-Perception Experiment,xx08m28,
126,vcgpdm_dyn(5)-lvm(25)_final(5).mov,False,left,0,training(41).mov,0,125,125,138,,,,,,,,13:43:16:255,13:43:16:993,13:43:19:995,left,13:43:20:429,,,2018_Jun_04_1330,60.0008493197,MP-Perception Experiment,xx08m28,
127,training(6).mov,True,right,0,vcgpdm_dyn(35)-lvm(10)_final(4).mov,0,126,126,100,,,,,,,,13:43:21:190,13:43:21:930,13:43:24:932,left,13:43:25:366,,,2018_Jun_04_1330,60.0008493197,MP-Perception Experiment,xx08m28,
128,training(1).mov,True,right,0,vgpdm_dyn(15)-lvm(5)_final(9).mov,0,127,127,148,,,,,,,,13:43:26:133,13:43:26:884,13:43:29:870,left,13:43:30:553,,,2018_Jun_04_1330,60.0008493197,MP-Perception Experiment,xx08m28,
129,vcgpdm_dyn(10)-lvm(15)_final(0).mov,False,left,0,training(0).mov,0,128,128,112,,,,,,,,13:43:31:303,13:43:32:055,13:43:35:042,left,13:43:35:426,,,2018_Jun_04_1330,60.0008493197,MP-Perception Experiment,xx08m28,
130,dmp_npsi(20)_final(3).mov,True,left,0,training(13).mov,0,129,129,76,,,,,,,,13:43:36:183,13:43:36:927,13:43:39:930,left,13:43:40:214,,,2018_Jun_04_1330,60.0008493197,MP-Perception Experiment,xx08m28,
131,vcgpdm_dyn(30)-lvm(5)_final(2).mov,True,left,0,training(26).mov,0,130,130,59,,,,,,,,13:43:40:955,13:43:41:715,13:43:44:717,left,13:43:45:235,,,2018_Jun_04_1330,60.0008493197,MP-Perception Experiment,xx08m28,
132,vgpdm_dyn(20)-lvm(20)_final(1).mov,True,left,0,training(7).mov,0,131,131,150,,,,,,,,13:43:45:985,13:43:46:736,13:43:49:738,right,13:43:50:389,,,2018_Jun_04_1330,60.0008493197,MP-Perception Experiment,xx08m28,
133,vcgpdm_dyn(30)-lvm(5)_final(8).mov,True,left,0,training(35).mov,0,132,132,125,,,,,,,,13:43:51:158,13:43:51:890,13:43:54:893,left,13:43:55:327,,,2018_Jun_04_1330,60.0008493197,MP-Perception Experiment,xx08m28,
134,training(1).mov,True,right,0,vcgpdm_dyn(20)-lvm(25)_final(9).mov,0,133,133,101,,,,,,,,13:43:56:089,13:43:56:828,13:43:59:847,right,13:44:00:299,,,2018_Jun_04_1330,60.0008493197,MP-Perception Experiment,xx08m28,
135,tmp_numprim(10)_final(9).mov,False,left,0,training(15).mov,0,134,134,136,,,,,,,,13:44:01:065,13:44:01:799,13:44:04:801,right,13:44:05:168,,,2018_Jun_04_1330,60.0008493197,MP-Perception Experiment,xx08m28,
136,vgpdm_dyn(30)-lvm(5)_final(4).mov,True,left,0,training(11).mov,0,135,135,65,,,,,,,,13:44:05:929,13:44:06:670,13:44:09:689,right,13:44:10:054,,,2018_Jun_04_1330,60.0008493197,MP-Perception Experiment,xx08m28,
137,vcgpdm_dyn(15)-lvm(5)_final(7).mov,True,left,0,training(2).mov,0,136,136,27,,,,,,,,13:44:10:812,13:44:11:555,13:44:14:559,left,13:44:15:476,,,2018_Jun_04_1330,60.0008493197,MP-Perception Experiment,xx08m28,
138,training(36).mov,False,right,0,vcgpdm_dyn(5)-lvm(25)_final(2).mov,0,137,137,89,,,,,,,,13:44:16:246,13:44:16:977,13:44:19:980,right,13:44:20:380,,,2018_Jun_04_1330,60.0008493197,MP-Perception Experiment,xx08m28,
139,vgpdm_dyn(35)-lvm(10)_final(7).mov,False,left,0,training(24).mov,0,138,138,108,,,,,,,,13:44:21:141,13:44:21:883,13:44:24:868,right,13:44:25:686,,,2018_Jun_04_1330,60.0008493197,MP-Perception Experiment,xx08m28,
140,vcgpdm_dyn(15)-lvm(30)_final(3).mov,False,left,0,training(2).mov,0,139,139,87,,,,,,,,13:44:26:455,13:44:27:187,13:44:30:190,left,13:44:30:691,,,2018_Jun_04_1330,60.0008493197,MP-Perception Experiment,xx08m28,
141,training(3).mov,False,right,0,vcgpdm_dyn(30)-lvm(30)_final(6).mov,0,140,140,115,,,,,,,,13:44:31:448,13:44:32:192,13:44:35:195,right,13:44:35:562,,,2018_Jun_04_1330,60.0008493197,MP-Perception Experiment,xx08m28,
142,vgpdm_dyn(30)-lvm(10)_final(6).mov,True,left,0,training(3).mov,0,141,141,135,,,,,,,,13:44:36:330,13:44:37:063,13:44:40:082,left,13:44:40:499,,,2018_Jun_04_1330,60.0008493197,MP-Perception Experiment,xx08m28,
143,training(15).mov,False,right,0,vcgpdm_dyn(30)-lvm(25)_final(9).mov,0,142,142,130,,,,,,,,13:44:41:279,13:44:42:017,13:44:45:002,right,13:44:45:370,,,2018_Jun_04_1330,60.0008493197,MP-Perception Experiment,xx08m28,
144,vgpdm_dyn(15)-lvm(25)_final(4).mov,False,left,0,training(33).mov,0,143,143,139,,,,,,,,13:44:46:129,13:44:46:871,13:44:49:874,left,13:44:50:275,,,2018_Jun_04_1330,60.0008493197,MP-Perception Experiment,xx08m28,
145,vcgpdm_dyn(15)-lvm(25)_final(4).mov,False,left,0,training(8).mov,0,144,144,38,,,,,,,,13:44:51:007,13:44:51:776,13:44:54:778,left,13:44:55:262,,,2018_Jun_04_1330,60.0008493197,MP-Perception Experiment,xx08m28,
146,training(23).mov,True,right,0,vcgpdm_dyn(5)-lvm(10)_final(9).mov,0,145,145,118,,,,,,,,13:44:56:016,13:44:56:763,13:44:59:765,left,13:45:00:197,,,2018_Jun_04_1330,60.0008493197,MP-Perception Experiment,xx08m28,
147,training(4).mov,True,right,0,vcgpdm_dyn(5)-lvm(10)_final(7).mov,0,146,146,117,,,,,,,,13:45:00:964,13:45:01:699,13:45:04:702,right,13:45:05:102,,,2018_Jun_04_1330,60.0008493197,MP-Perception Experiment,xx08m28,
148,training(37).mov,True,right,0,dmp_npsi(15)_final(3).mov,0,147,147,42,,,,,,,,13:45:05:869,13:45:06:604,13:45:09:606,right,13:45:10:040,,,2018_Jun_04_1330,60.0008493197,MP-Perception Experiment,xx08m28,
149,training(18).mov,True,right,0,vcgpdm_dyn(30)-lvm(10)_final(8).mov,0,148,148,86,,,,,,,,13:45:10:783,13:45:11:543,13:45:14:545,right,13:45:14:945,,,2018_Jun_04_1330,60.0008493197,MP-Perception Experiment,xx08m28,
150,vgpdm_dyn(35)-lvm(10)_final(9).mov,True,left,0,training(7).mov,0,149,149,57,,,,,,,,13:45:15:709,13:45:16:463,13:45:19:449,right,13:45:19:816,,,2018_Jun_04_1330,60.0008493197,MP-Perception Experiment,xx08m28,
151,training(37).mov,True,right,0,vcgpdm_dyn(20)-lvm(35)_final(3).mov,0,150,150,35,,,,,,,,13:45:20:557,13:45:21:317,13:45:24:321,right,13:45:24:721,,,2018_Jun_04_1330,60.0008493197,MP-Perception Experiment,xx08m28,
152,training(35).mov,True,right,0,vcgpdm_dyn(30)-lvm(20)_final(3).mov,0,151,151,53,,,,,,,,13:45:25:492,13:45:26:222,13:45:29:241,left,13:45:29:692,,,2018_Jun_04_1330,60.0008493197,MP-Perception Experiment,xx08m28,
153,training(39).mov,True,right,0,vcgpdm_dyn(10)-lvm(10)_final(2).mov,0,152,152,106,,,,,,,,13:45:30:465,13:45:31:193,13:45:34:195,right,13:45:34:612,,,2018_Jun_04_1330,60.0008493197,MP-Perception Experiment,xx08m28,
154,dmp_npsi(30)_final(4).mov,False,left,0,training(31).mov,0,153,153,56,,,,,,,,13:45:35:395,13:45:36:113,13:45:39:116,left,13:45:39:517,,,2018_Jun_04_1330,60.0008493197,MP-Perception Experiment,xx08m28,
155,training(34).mov,False,right,0,vcgpdm_dyn(10)-lvm(20)_final(4).mov,0,154,154,36,,,,,,,,13:45:40:278,13:45:41:018,13:45:44:038,right,13:45:44:354,,,2018_Jun_04_1330,60.0008493197,MP-Perception Experiment,xx08m28,
156,vcgpdm_dyn(15)-lvm(10)_final(5).mov,True,left,0,training(28).mov,0,155,155,84,,,,,,,,13:45:45:114,13:45:45:856,13:45:48:875,left,13:45:49:342,,,2018_Jun_04_1330,60.0008493197,MP-Perception Experiment,xx08m28,
157,vcgpdm_dyn(20)-lvm(5)_final(5).mov,False,left,0,training(8).mov,0,156,156,12,,,,,,,,13:45:50:115,13:45:50:876,13:45:53:860,left,13:45:54:278,,,2018_Jun_04_1330,60.0008493197,MP-Perception Experiment,xx08m28,
158,vcgpdm_dyn(10)-lvm(35)_final(8).mov,True,left,0,training(22).mov,0,157,157,119,,,,,,,,13:45:55:027,13:45:55:778,13:45:58:782,left,13:45:59:166,,,2018_Jun_04_1330,60.0008493197,MP-Perception Experiment,xx08m28,
159,training(0).mov,True,right,0,vgpdm_dyn(15)-lvm(35)_final(3).mov,0,158,158,14,,,,,,,,13:45:59:926,13:46:00:667,13:46:03:657,right,13:46:04:088,,,2018_Jun_04_1330,60.0008493197,MP-Perception Experiment,xx08m28,
160,training(3).mov,False,right,1,vgpdm_dyn(10)-lvm(25)_final(6).mov,0,0,0,130,,,,,,,,13:49:59:166,13:49:59:923,13:50:02:910,right,13:50:03:410,,,2018_Jun_04_1330,60.0008493197,MP-Perception Experiment,xx08m28,
161,training(32).mov,True,right,1,vcgpdm_dyn(35)-lvm(30)_final(1).mov,0,1,1,111,,,,,,,,13:50:04:183,13:50:04:928,13:50:07:914,right,13:50:08:331,,,2018_Jun_04_1330,60.0008493197,MP-Perception Experiment,xx08m28,
162,dmp_npsi(50)_final(8).mov,True,left,1,training(35).mov,0,2,2,129,,,,,,,,13:50:09:085,13:50:09:833,13:50:12:819,right,13:50:13:087,,,2018_Jun_04_1330,60.0008493197,MP-Perception Experiment,xx08m28,
163,vgpdm_dyn(35)-lvm(10)_final(2).mov,True,left,1,training(33).mov,0,3,3,122,,,,,,,,13:50:13:843,13:50:14:588,13:50:17:590,left,13:50:18:040,,,2018_Jun_04_1330,60.0008493197,MP-Perception Experiment,xx08m28,
164,training(19).mov,True,right,1,tmp_numprim(2)_final(6).mov,0,4,4,69,,,,,,,,13:50:18:801,13:50:19:543,13:50:22:562,right,13:50:22:863,,,2018_Jun_04_1330,60.0008493197,MP-Perception Experiment,xx08m28,
165,training(2).mov,False,right,1,vgpdm_dyn(15)-lvm(15)_final(0).mov,0,5,5,15,,,,,,,,13:50:23:610,13:50:24:380,13:50:27:382,left,13:50:28:783,,,2018_Jun_04_1330,60.0008493197,MP-Perception Experiment,xx08m28,
166,vcgpdm_dyn(15)-lvm(35)_final(0).mov,False,left,1,training(8).mov,0,6,6,82,,,,,,,,13:50:29:537,13:50:30:301,13:50:33:304,left,13:50:33:687,,,2018_Jun_04_1330,60.0008493197,MP-Perception Experiment,xx08m28,
167,vgpdm_dyn(10)-lvm(5)_final(6).mov,False,left,1,training(27).mov,0,7,7,54,,,,,,,,13:50:34:454,13:50:35:205,13:50:38:209,left,13:50:38:676,,,2018_Jun_04_1330,60.0008493197,MP-Perception Experiment,xx08m28,
168,vgpdm_dyn(30)-lvm(20)_final(1).mov,False,left,1,training(4).mov,0,8,8,81,,,,,,,,13:50:39:430,13:50:40:177,13:50:43:180,right,13:50:43:647,,,2018_Jun_04_1330,60.0008493197,MP-Perception Experiment,xx08m28,
169,vgpdm_dyn(30)-lvm(30)_final(1).mov,True,left,1,training(27).mov,0,9,9,95,,,,,,,,13:50:44:410,13:50:45:148,13:50:48:150,right,13:50:48:967,,,2018_Jun_04_1330,60.0008493197,MP-Perception Experiment,xx08m28,
170,training(0).mov,True,right,1,map_cgpdm_final(8).mov,0,10,10,147,,,,,,,,13:50:49:729,13:50:50:484,13:50:53:470,right,13:50:53:903,,,2018_Jun_04_1330,60.0008493197,MP-Perception Experiment,xx08m28,
171,vcgpdm_dyn(25)-lvm(5)_final(4).mov,True,left,1,training(14).mov,0,11,11,2,,,,,,,,13:50:54:660,13:50:55:405,13:50:58:408,left,13:50:58:825,,,2018_Jun_04_1330,60.0008493197,MP-Perception Experiment,xx08m28,
172,vcgpdm_dyn(5)-lvm(15)_final(8).mov,True,left,1,training(31).mov,0,12,12,60,,,,,,,,13:50:59:580,13:51:00:326,13:51:03:313,left,13:51:03:797,,,2018_Jun_04_1330,60.0008493197,MP-Perception Experiment,xx08m28,
173,dmp_npsi(35)_final(7).mov,True,left,1,training(18).mov,0,13,13,66,,,,,,,,13:51:04:547,13:51:05:298,13:51:08:300,left,13:51:08:918,,,2018_Jun_04_1330,60.0008493197,MP-Perception Experiment,xx08m28,
174,vgpdm_dyn(10)-lvm(25)_final(9).mov,False,left,1,training(22).mov,0,14,14,47,,,,,,,,13:51:09:670,13:51:10:419,13:51:13:422,right,13:51:13:857,,,2018_Jun_04_1330,60.0008493197,MP-Perception Experiment,xx08m28,
175,vcgpdm_dyn(35)-lvm(20)_final(6).mov,True,left,1,training(33).mov,0,15,15,55,,,,,,,,13:51:14:638,13:51:15:374,13:51:18:376,left,13:51:18:777,,,2018_Jun_04_1330,60.0008493197,MP-Perception Experiment,xx08m28,
176,training(15).mov,False,right,1,vcgpdm_dyn(25)-lvm(20)_final(6).mov,0,16,16,101,,,,,,,,13:51:19:535,13:51:20:295,13:51:23:280,right,13:51:23:748,,,2018_Jun_04_1330,60.0008493197,MP-Perception Experiment,xx08m28,
177,training(23).mov,True,right,1,vgpdm_dyn(20)-lvm(20)_final(1).mov,0,17,17,80,,,,,,,,13:51:24:518,13:51:25:265,13:51:28:251,left,13:51:28:802,,,2018_Jun_04_1330,60.0008493197,MP-Perception Experiment,xx08m28,
178,vcgpdm_dyn(25)-lvm(10)_final(8).mov,False,left,1,training(14).mov,0,18,18,26,,,,,,,,13:51:29:555,13:51:30:304,13:51:33:323,left,13:51:33:907,,,2018_Jun_04_1330,60.0008493197,MP-Perception Experiment,xx08m28,
179,training(34).mov,True,right,1,vgpdm_dyn(10)-lvm(25)_final(3).mov,0,19,19,20,,,,,,,,13:51:34:652,13:51:35:408,13:51:38:410,right,13:51:38:794,,,2018_Jun_04_1330,60.0008493197,MP-Perception Experiment,xx08m28,
180,training(0).mov,True,right,1,vgpdm_dyn(20)-lvm(35)_final(5).mov,0,20,20,93,,,,,,,,13:51:39:552,13:51:40:310,13:51:43:296,right,13:51:43:696,,,2018_Jun_04_1330,60.0008493197,MP-Perception Experiment,xx08m28,
181,training(9).mov,False,right,1,vcgpdm_dyn(15)-lvm(30)_final(0).mov,0,21,21,138,,,,,,,,13:51:44:461,13:51:45:197,13:51:48:201,left,13:51:48:534,,,2018_Jun_04_1330,60.0008493197,MP-Perception Experiment,xx08m28,
182,training(0).mov,False,right,1,vcgpdm_dyn(20)-lvm(30)_final(9).mov,0,22,22,51,,,,,,,,13:51:49:291,13:51:50:036,13:51:53:023,right,13:51:53:590,,,2018_Jun_04_1330,60.0008493197,MP-Perception Experiment,xx08m28,
183,training(37).mov,True,right,1,vgpdm_dyn(10)-lvm(20)_final(7).mov,0,23,23,113,,,,,,,,13:51:54:343,13:51:55:091,13:51:58:094,right,13:51:59:045,,,2018_Jun_04_1330,60.0008493197,MP-Perception Experiment,xx08m28,
184,training(32).mov,False,right,1,tmp_numprim(2)_final(1).mov,0,24,24,52,,,,,,,,13:51:59:797,13:52:00:546,13:52:03:548,right,13:52:03:899,,,2018_Jun_04_1330,60.0008493197,MP-Perception Experiment,xx08m28,
185,vgpdm_dyn(5)-lvm(30)_final(8).mov,False,left,1,training(14).mov,0,25,25,99,,,,,,,,13:52:04:661,13:52:05:401,13:52:08:420,left,13:52:08:720,,,2018_Jun_04_1330,60.0008493197,MP-Perception Experiment,xx08m28,
186,training(17).mov,True,right,1,vgpdm_dyn(30)-lvm(25)_final(0).mov,0,26,26,96,,,,,,,,13:52:09:466,13:52:10:221,13:52:13:240,left,13:52:13:641,,,2018_Jun_04_1330,60.0008493197,MP-Perception Experiment,xx08m28,
187,training(48).mov,False,right,1,vcgpdm_dyn(25)-lvm(20)_final(4).mov,0,27,27,9,,,,,,,,13:52:14:405,13:52:15:142,13:52:18:145,right,13:52:18:562,,,2018_Jun_04_1330,60.0008493197,MP-Perception Experiment,xx08m28,
188,training(31).mov,False,right,1,tmp_numprim(3)_final(7).mov,0,28,28,110,,,,,,,,13:52:19:330,13:52:20:062,13:52:23:083,right,13:52:23:333,,,2018_Jun_04_1330,60.0008493197,MP-Perception Experiment,xx08m28,
189,vgpdm_dyn(20)-lvm(30)_final(5).mov,False,left,1,training(5).mov,0,29,29,146,,,,,,,,13:52:24:083,13:52:24:834,13:52:27:836,right,13:52:28:120,,,2018_Jun_04_1330,60.0008493197,MP-Perception Experiment,xx08m28,
190,vgpdm_dyn(30)-lvm(5)_final(6).mov,True,left,1,training(17).mov,0,30,30,37,,,,,,,,13:52:28:875,13:52:29:621,13:52:32:622,left,13:52:32:939,,,2018_Jun_04_1330,60.0008493197,MP-Perception Experiment,xx08m28,
191,training(32).mov,False,right,1,tmp_numprim(6)_final(9).mov,0,31,31,149,,,,,,,,13:52:33:697,13:52:34:457,13:52:37:442,right,13:52:37:876,,,2018_Jun_04_1330,60.0008493197,MP-Perception Experiment,xx08m28,
192,vcgpdm_dyn(20)-lvm(15)_final(4).mov,True,left,1,training(3).mov,0,32,32,42,,,,,,,,13:52:38:651,13:52:39:378,13:52:42:366,right,13:52:42:716,,,2018_Jun_04_1330,60.0008493197,MP-Perception Experiment,xx08m28,
193,vgpdm_dyn(20)-lvm(5)_final(5).mov,True,left,1,training(27).mov,0,33,33,73,,,,,,,,13:52:43:468,13:52:44:217,13:52:47:220,left,13:52:47:587,,,2018_Jun_04_1330,60.0008493197,MP-Perception Experiment,xx08m28,
194,vcgpdm_dyn(10)-lvm(30)_final(0).mov,False,left,1,training(13).mov,0,34,34,50,,,,,,,,13:52:48:342,13:52:49:088,13:52:52:091,left,13:52:52:491,,,2018_Jun_04_1330,60.0008493197,MP-Perception Experiment,xx08m28,
195,training(2).mov,True,right,1,tmp_numprim(8)_final(8).mov,0,35,35,151,,,,,,,,13:52:53:273,13:52:54:025,13:52:57:012,left,13:52:57:446,,,2018_Jun_04_1330,60.0008493197,MP-Perception Experiment,xx08m28,
196,training(30).mov,True,right,1,dmp_npsi(5)_final(7)_bad.mov,0,36,36,135,,,,,,,,13:52:58:209,13:52:58:947,13:53:01:949,right,13:53:02:350,,,2018_Jun_04_1330,60.0008493197,MP-Perception Experiment,xx08m28,
197,training(48).mov,True,right,1,vcgpdm_dyn(25)-lvm(5)_final(9).mov,0,37,37,67,,,,,,,,13:53:03:108,13:53:03:851,13:53:06:870,left,13:53:07:504,,,2018_Jun_04_1330,60.0008493197,MP-Perception Experiment,xx08m28,
198,training(41).mov,True,right,1,vcgpdm_dyn(25)-lvm(10)_final(2).mov,0,38,38,75,,,,,,,,13:53:08:266,13:53:09:005,13:53:12:007,left,13:53:13:008,,,2018_Jun_04_1330,60.0008493197,MP-Perception Experiment,xx08m28,
199,vgpdm_dyn(35)-lvm(10)_final(6).mov,True,left,1,training(40).mov,0,39,39,124,,,,,,,,13:53:13:766,13:53:14:511,13:53:17:529,left,13:53:17:913,,,2018_Jun_04_1330,60.0008493197,MP-Perception Experiment,xx08m28,
200,training(32).mov,False,right,1,vgpdm_dyn(10)-lvm(35)_final(0).mov,0,40,40,106,,,,,,,,13:53:18:669,13:53:19:414,13:53:22:415,right,13:53:22:715,,,2018_Jun_04_1330,60.0008493197,MP-Perception Experiment,xx08m28,
201,vcgpdm_dyn(20)-lvm(5)_final(5).mov,False,left,1,training(22).mov,0,41,41,109,,,,,,,,13:53:23:443,13:53:24:217,13:53:27:219,left,13:53:27:686,,,2018_Jun_04_1330,60.0008493197,MP-Perception Experiment,xx08m28,
202,training(23).mov,True,right,1,vcgpdm_dyn(15)-lvm(20)_final(4).mov,0,42,42,28,,,,,,,,13:53:28:463,13:53:29:187,13:53:32:191,right,13:53:32:808,,,2018_Jun_04_1330,60.0008493197,MP-Perception Experiment,xx08m28,
203,vgpdm_dyn(15)-lvm(5)_final(8).mov,False,left,1,training(14).mov,0,43,43,61,,,,,,,,13:53:33:560,13:53:34:309,13:53:37:296,left,13:53:37:680,,,2018_Jun_04_1330,60.0008493197,MP-Perception Experiment,xx08m28,
204,training(17).mov,False,right,1,dmp_npsi(40)_final(8).mov,0,44,44,105,,,,,,,,13:53:38:444,13:53:39:181,13:53:42:201,right,13:53:42:551,,,2018_Jun_04_1330,60.0008493197,MP-Perception Experiment,xx08m28,
205,vgpdm_dyn(5)-lvm(15)_final(2).mov,True,left,1,training(35).mov,0,45,45,32,,,,,,,,13:53:43:303,13:53:44:052,13:53:47:055,left,13:53:47:522,,,2018_Jun_04_1330,60.0008493197,MP-Perception Experiment,xx08m28,
206,training(22).mov,True,right,1,vgpdm_dyn(20)-lvm(30)_final(3).mov,0,46,46,59,,,,,,,,13:53:48:277,13:53:49:040,13:53:52:026,left,13:53:52:510,,,2018_Jun_04_1330,60.0008493197,MP-Perception Experiment,xx08m28,
207,vgpdm_dyn(30)-lvm(10)_final(4).mov,True,left,1,training(48).mov,0,47,47,29,,,,,,,,13:53:53:266,13:53:54:011,13:53:57:013,left,13:53:57:330,,,2018_Jun_04_1330,60.0008493197,MP-Perception Experiment,xx08m28,
208,training(48).mov,True,right,1,dmp_npsi(20)_final(9).mov,0,48,48,53,,,,,,,,13:53:58:063,13:53:58:832,13:54:01:834,right,13:54:02:301,,,2018_Jun_04_1330,60.0008493197,MP-Perception Experiment,xx08m28,
209,vgpdm_dyn(15)-lvm(10)_final(5)_out_of_screen.mov,True,left,1,training(41).mov,0,49,49,12,,,,,,,,13:54:03:055,13:54:03:802,13:54:06:823,left,13:54:07:323,,,2018_Jun_04_1330,60.0008493197,MP-Perception Experiment,xx08m28,
210,vgpdm_dyn(35)-lvm(35)_final(0).mov,True,left,1,training(0).mov,0,50,50,154,,,,,,,,13:54:08:085,13:54:08:841,13:54:11:825,right,13:54:12:475,,,2018_Jun_04_1330,60.0008493197,MP-Perception Experiment,xx08m28,
211,vcgpdm_dyn(25)-lvm(35)_final(4).mov,False,left,1,training(3).mov,0,51,51,133,,,,,,,,13:54:13:234,13:54:13:976,13:54:16:979,left,13:54:17:279,,,2018_Jun_04_1330,60.0008493197,MP-Perception Experiment,xx08m28,
212,dmp_npsi(15)_final(1).mov,False,left,1,training(7).mov,0,52,52,115,,,,,,,,13:54:18:030,13:54:18:780,13:54:21:783,left,13:54:22:202,,,2018_Jun_04_1330,60.0008493197,MP-Perception Experiment,xx08m28,
213,vgpdm_dyn(10)-lvm(20)_final(0).mov,False,left,1,training(32).mov,0,53,53,91,,,,,,,,13:54:22:945,13:54:23:703,13:54:26:706,left,13:54:27:207,,,2018_Jun_04_1330,60.0008493197,MP-Perception Experiment,xx08m28,
214,vgpdm_dyn(5)-lvm(10)_final(5).mov,False,left,1,training(5).mov,0,54,54,74,,,,,,,,13:54:27:967,13:54:28:724,13:54:31:727,left,13:54:32:177,,,2018_Jun_04_1330,60.0008493197,MP-Perception Experiment,xx08m28,
215,vcgpdm_dyn(15)-lvm(5)_final(3).mov,False,left,1,training(1).mov,0,55,55,31,,,,,,,,13:54:32:942,13:54:33:678,13:54:36:681,left,13:54:37:114,,,2018_Jun_04_1330,60.0008493197,MP-Perception Experiment,xx08m28,
216,training(12).mov,False,right,1,map_cgpdm_final(4).mov,0,56,56,22,,,,,,,,13:54:37:876,13:54:38:616,13:54:41:619,right,13:54:42:070,,,2018_Jun_04_1330,60.0008493197,MP-Perception Experiment,xx08m28,
217,training(40).mov,False,right,1,map_cgpdm_final(9).mov,0,57,57,120,,,,,,,,13:54:42:838,13:54:43:571,13:54:46:573,right,13:54:47:124,,,2018_Jun_04_1330,60.0008493197,MP-Perception Experiment,xx08m28,
218,vgpdm_dyn(30)-lvm(15)_final(7).mov,False,left,1,training(14).mov,0,58,58,68,,,,,,,,13:54:47:884,13:54:48:625,13:54:51:627,left,13:54:52:011,,,2018_Jun_04_1330,60.0008493197,MP-Perception Experiment,xx08m28,
219,vgpdm_dyn(5)-lvm(20)_final(0).mov,True,left,1,training(25).mov,0,59,59,43,,,,,,,,13:54:52:765,13:54:53:512,13:54:56:515,left,13:54:56:965,,,2018_Jun_04_1330,60.0008493197,MP-Perception Experiment,xx08m28,
220,vgpdm_dyn(20)-lvm(35)_final(2).mov,False,left,1,training(28).mov,0,60,60,8,,,,,,,,13:54:57:729,13:54:58:483,13:55:01:468,left,13:55:02:102,,,2018_Jun_04_1330,60.0008493197,MP-Perception Experiment,xx08m28,
221,training(20).mov,True,right,1,tmp_numprim(4)_final(3).mov,0,61,61,83,,,,,,,,13:55:02:814,13:55:03:619,13:55:06:605,right,13:55:07:139,,,2018_Jun_04_1330,60.0008493197,MP-Perception Experiment,xx08m28,
222,training(40).mov,False,right,1,vgpdm_dyn(20)-lvm(20)_final(5).mov,0,62,62,150,,,,,,,,13:55:07:882,13:55:08:657,13:55:11:643,right,13:55:12:093,,,2018_Jun_04_1330,60.0008493197,MP-Perception Experiment,xx08m28,
223,training(39).mov,True,right,1,vgpdm_dyn(5)-lvm(10)_final(4).mov,0,63,63,56,,,,,,,,13:55:12:855,13:55:13:594,13:55:16:583,right,13:55:17:033,,,2018_Jun_04_1330,60.0008493197,MP-Perception Experiment,xx08m28,
224,training(19).mov,False,right,1,vcgpdm_dyn(35)-lvm(5)_final(7).mov,0,64,64,143,,,,,,,,13:55:17:799,13:55:18:534,13:55:21:554,right,13:55:22:087,,,2018_Jun_04_1330,60.0008493197,MP-Perception Experiment,xx08m28,
225,training(1).mov,True,right,1,vcgpdm_dyn(15)-lvm(30)_final(1).mov,0,65,65,156,,,,,,,,13:55:22:846,13:55:23:605,13:55:26:591,right,13:55:27:058,,,2018_Jun_04_1330,60.0008493197,MP-Perception Experiment,xx08m28,
226,vgpdm_dyn(5)-lvm(15)_final(3).mov,False,left,1,training(26).mov,0,66,66,63,,,,,,,,13:55:27:813,13:55:28:559,13:55:31:561,left,13:55:31:945,,,2018_Jun_04_1330,60.0008493197,MP-Perception Experiment,xx08m28,
227,vgpdm_dyn(30)-lvm(25)_final(8).mov,False,left,1,training(29).mov,0,67,67,6,,,,,,,,13:55:32:697,13:55:33:446,13:55:36:450,right,13:55:36:967,,,2018_Jun_04_1330,60.0008493197,MP-Perception Experiment,xx08m28,
228,training(22).mov,True,right,1,dmp_npsi(40)_final(5).mov,0,68,68,121,,,,,,,,13:55:37:733,13:55:38:485,13:55:41:487,right,13:55:42:004,,,2018_Jun_04_1330,60.0008493197,MP-Perception Experiment,xx08m28,
229,training(10).mov,False,right,1,vgpdm_dyn(35)-lvm(25)_final(0).mov,0,69,69,16,,,,,,,,13:55:42:766,13:55:43:506,13:55:46:508,left,13:55:46:958,,,2018_Jun_04_1330,60.0008493197,MP-Perception Experiment,xx08m28,
230,training(36).mov,True,right,1,vgpdm_dyn(10)-lvm(5)_final(3).mov,0,70,70,84,,,,,,,,13:55:47:747,13:55:48:459,13:55:51:461,right,13:55:51:845,,,2018_Jun_04_1330,60.0008493197,MP-Perception Experiment,xx08m28,
231,vcgpdm_dyn(25)-lvm(35)_final(1).mov,False,left,1,training(33).mov,0,71,71,136,,,,,,,,13:55:52:597,13:55:53:346,13:55:56:349,left,13:55:56:966,,,2018_Jun_04_1330,60.0008493197,MP-Perception Experiment,xx08m28,
232,tmp_numprim(3)_final(9).mov,True,left,1,training(25).mov,0,72,72,107,,,,,,,,13:55:57:734,13:55:58:467,13:56:01:469,left,13:56:01:586,,,2018_Jun_04_1330,60.0008493197,MP-Perception Experiment,xx08m28,
233,vcgpdm_dyn(30)-lvm(25)_final(7).mov,False,left,1,training(9).mov,0,73,73,17,,,,,,,,13:56:02:345,13:56:03:089,13:56:06:091,left,13:56:06:508,,,2018_Jun_04_1330,60.0008493197,MP-Perception Experiment,xx08m28,
234,vcgpdm_dyn(30)-lvm(5)_final(3).mov,True,left,1,training(1).mov,0,74,74,36,,,,,,,,13:56:07:256,13:56:08:010,13:56:11:013,left,13:56:11:780,,,2018_Jun_04_1330,60.0008493197,MP-Perception Experiment,xx08m28,
235,vgpdm_dyn(25)-lvm(35)_final(9).mov,False,left,1,training(33).mov,0,75,75,127,,,,,,,,13:56:12:532,13:56:13:298,13:56:16:284,right,13:56:16:701,,,2018_Jun_04_1330,60.0008493197,MP-Perception Experiment,xx08m28,
236,vgpdm_dyn(5)-lvm(30)_final(4).mov,True,left,1,training(11).mov,0,76,76,35,,,,,,,,13:56:17:451,13:56:18:219,13:56:21:204,left,13:56:21:822,,,2018_Jun_04_1330,60.0008493197,MP-Perception Experiment,xx08m28,
237,vcgpdm_dyn(5)-lvm(5)_final(2).mov,True,left,1,training(21).mov,0,77,77,65,,,,,,,,13:56:22:585,13:56:23:323,13:56:26:325,left,13:56:27:294,,,2018_Jun_04_1330,60.0008493197,MP-Perception Experiment,xx08m28,
238,training(9).mov,True,right,1,vcgpdm_dyn(15)-lvm(30)_final(3).mov,0,78,78,72,,,,,,,,13:56:28:038,13:56:28:795,13:56:31:797,right,13:56:32:331,,,2018_Jun_04_1330,60.0008493197,MP-Perception Experiment,xx08m28,
239,vcgpdm_dyn(20)-lvm(15)_final(9).mov,True,left,1,training(29).mov,0,79,79,89,,,,,,,,13:56:33:095,13:56:33:849,13:56:36:835,right,13:56:37:486,,,2018_Jun_04_1330,60.0008493197,MP-Perception Experiment,xx08m28,
240,tmp_numprim(8)_final(9).mov,False,left,1,training(34).mov,0,80,80,44,,,,,,,,13:56:38:252,13:56:38:986,13:56:41:987,left,13:56:42:504,,,2018_Jun_04_1330,60.0008493197,MP-Perception Experiment,xx08m28,
241,training(40).mov,False,right,1,vcgpdm_dyn(20)-lvm(15)_final(5).mov,0,81,81,19,,,,,,,,13:56:43:296,13:56:44:006,13:56:47:009,left,13:56:47:559,,,2018_Jun_04_1330,60.0008493197,MP-Perception Experiment,xx08m28,
242,training(29).mov,True,right,1,tmp_numprim(9)_final(3).mov,0,82,82,23,,,,,,,,13:56:48:320,13:56:49:060,13:56:52:063,left,13:56:52:597,,,2018_Jun_04_1330,60.0008493197,MP-Perception Experiment,xx08m28,
243,vcgpdm_dyn(25)-lvm(10)_final(4).mov,False,left,1,training(25).mov,0,83,83,62,,,,,,,,13:56:53:366,13:56:54:098,13:56:57:085,left,13:56:57:536,,,2018_Jun_04_1330,60.0008493197,MP-Perception Experiment,xx08m28,
244,training(25).mov,False,right,1,vgpdm_dyn(20)-lvm(5)_final(7).mov,0,84,84,40,,,,,,,,13:56:58:297,13:56:59:037,13:57:02:040,right,13:57:02:508,,,2018_Jun_04_1330,60.0008493197,MP-Perception Experiment,xx08m28,
245,training(17).mov,True,right,1,vgpdm_dyn(15)-lvm(35)_final(5).mov,0,85,85,94,,,,,,,,13:57:03:258,13:57:04:009,13:57:07:011,right,13:57:07:545,,,2018_Jun_04_1330,60.0008493197,MP-Perception Experiment,xx08m28,
246,vgpdm_dyn(15)-lvm(30)_final(6).mov,True,left,1,training(29).mov,0,86,86,134,,,,,,,,13:57:08:294,13:57:09:046,13:57:12:049,left,13:57:12:516,,,2018_Jun_04_1330,60.0008493197,MP-Perception Experiment,xx08m28,
247,vcgpdm_dyn(15)-lvm(30)_final(0).mov,True,left,1,training(48).mov,0,87,87,98,,,,,,,,13:57:13:276,13:57:14:017,13:57:17:019,left,13:57:17:403,,,2018_Jun_04_1330,60.0008493197,MP-Perception Experiment,xx08m28,
248,vcgpdm_dyn(25)-lvm(25)_final(3).mov,False,left,1,training(6).mov,0,88,88,125,,,,,,,,13:57:18:148,13:57:18:922,13:57:21:908,right,13:57:22:441,,,2018_Jun_04_1330,60.0008493197,MP-Perception Experiment,xx08m28,
249,vcgpdm_dyn(30)-lvm(20)_final(0).mov,False,left,1,training(24).mov,0,89,89,13,,,,,,,,13:57:23:194,13:57:23:942,13:57:26:945,right,13:57:27:429,,,2018_Jun_04_1330,60.0008493197,MP-Perception Experiment,xx08m28,
250,vcgpdm_dyn(35)-lvm(25)_final(2).mov,False,left,1,training(38).mov,0,90,90,131,,,,,,,,13:57:28:232,13:57:28:947,13:57:31:931,left,13:57:32:298,,,2018_Jun_04_1330,60.0008493197,MP-Perception Experiment,xx08m28,
251,vgpdm_dyn(10)-lvm(20)_final(7).mov,True,left,1,training(11).mov,0,91,91,79,,,,,,,,13:57:33:043,13:57:33:815,13:57:36:802,left,13:57:37:186,,,2018_Jun_04_1330,60.0008493197,MP-Perception Experiment,xx08m28,
252,training(36).mov,True,right,1,vgpdm_dyn(20)-lvm(20)_final(7).mov,0,92,92,38,,,,,,,,13:57:37:945,13:57:38:687,13:57:41:689,right,13:57:42:091,,,2018_Jun_04_1330,60.0008493197,MP-Perception Experiment,xx08m28,
253,vgpdm_dyn(35)-lvm(5)_final(7).mov,False,left,1,training(18).mov,0,93,93,142,,,,,,,,13:57:42:841,13:57:43:593,13:57:46:595,right,13:57:47:079,,,2018_Jun_04_1330,60.0008493197,MP-Perception Experiment,xx08m28,
254,vgpdm_dyn(15)-lvm(30)_final(2).mov,False,left,1,training(30).mov,0,94,94,148,,,,,,,,13:57:47:836,13:57:48:580,13:57:51:582,left,13:57:52:050,,,2018_Jun_04_1330,60.0008493197,MP-Perception Experiment,xx08m28,
255,vcgpdm_dyn(10)-lvm(5)_final(8).mov,True,left,1,training(38).mov,0,95,95,141,,,,,,,,13:57:52:807,13:57:53:567,13:57:56:554,left,13:57:56:938,,,2018_Jun_04_1330,60.0008493197,MP-Perception Experiment,xx08m28,
256,vgpdm_dyn(10)-lvm(25)_final(8).mov,True,left,1,training(22).mov,0,96,96,27,,,,,,,,13:57:57:691,13:57:58:456,13:58:01:441,right,13:58:01:892,,,2018_Jun_04_1330,60.0008493197,MP-Perception Experiment,xx08m28,
257,training(29).mov,False,right,1,vgpdm_dyn(10)-lvm(35)_final(8).mov,0,97,97,126,,,,,,,,13:58:02:650,13:58:03:393,13:58:06:412,right,13:58:06:729,,,2018_Jun_04_1330,60.0008493197,MP-Perception Experiment,xx08m28,
258,training(30).mov,True,right,1,dmp_npsi(35)_final(0).mov,0,98,98,123,,,,,,,,13:58:07:490,13:58:08:230,13:58:11:233,right,13:58:11:617,,,2018_Jun_04_1330,60.0008493197,MP-Perception Experiment,xx08m28,
259,vgpdm_dyn(25)-lvm(35)_final(4).mov,False,left,1,training(34).mov,0,99,99,145,,,,,,,,13:58:12:384,13:58:13:135,13:58:16:138,right,13:58:16:455,,,2018_Jun_04_1330,60.0008493197,MP-Perception Experiment,xx08m28,
260,training(35).mov,False,right,1,vgpdm_dyn(30)-lvm(20)_final(4).mov,0,100,100,33,,,,,,,,13:58:17:215,13:58:17:956,13:58:20:957,left,13:58:21:424,,,2018_Jun_04_1330,60.0008493197,MP-Perception Experiment,xx08m28,
261,training(10).mov,True,right,1,vgpdm_dyn(30)-lvm(35)_final(1).mov,0,101,101,11,,,,,,,,13:58:22:181,13:58:22:925,13:58:25:927,right,13:58:26:311,,,2018_Jun_04_1330,60.0008493197,MP-Perception Experiment,xx08m28,
262,training(13).mov,False,right,1,vcgpdm_dyn(5)-lvm(15)_final(7).mov,0,102,102,87,,,,,,,,13:58:27:692,13:58:28:196,13:58:30:815,right,13:58:31:316,,,2018_Jun_04_1330,60.0008493197,MP-Perception Experiment,xx08m28,
263,training(24).mov,False,right,1,vcgpdm_dyn(25)-lvm(5)_final(5).mov,0,103,103,132,,,,,,,,13:58:32:080,13:58:32:819,13:58:35:804,right,13:58:36:205,,,2018_Jun_04_1330,60.0008493197,MP-Perception Experiment,xx08m28,
264,training(38).mov,False,right,1,vgpdm_dyn(30)-lvm(15)_final(0).mov,0,104,104,152,,,,,,,,13:58:36:945,13:58:37:706,13:58:40:725,right,13:58:41:159,,,2018_Jun_04_1330,60.0008493197,MP-Perception Experiment,xx08m28,
265,vcgpdm_dyn(15)-lvm(10)_final(0).mov,False,left,1,training(16).mov,0,105,105,114,,,,,,,,13:58:41:926,13:58:42:660,13:58:45:679,left,13:58:45:963,,,2018_Jun_04_1330,60.0008493197,MP-Perception Experiment,xx08m28,
266,training(15).mov,True,right,1,dmp_npsi(35)_final(2).mov,0,106,106,71,,,,,,,,13:58:46:723,13:58:47:465,13:58:50:484,right,13:58:50:834,,,2018_Jun_04_1330,60.0008493197,MP-Perception Experiment,xx08m28,
267,training(26).mov,True,right,1,dmp_npsi(45)_final(7).mov,0,107,107,3,,,,,,,,13:58:51:582,13:58:52:335,13:58:55:338,right,13:58:55:672,,,2018_Jun_04_1330,60.0008493197,MP-Perception Experiment,xx08m28,
268,training(7).mov,True,right,1,vcgpdm_dyn(15)-lvm(15)_final(6).mov,0,108,108,1,,,,,,,,13:58:56:419,13:58:57:173,13:59:00:175,left,13:59:00:809,,,2018_Jun_04_1330,60.0008493197,MP-Perception Experiment,xx08m28,
269,vcgpdm_dyn(10)-lvm(30)_final(4).mov,True,left,1,training(12).mov,0,109,109,137,,,,,,,,13:59:01:558,13:59:02:310,13:59:05:313,left,13:59:05:614,,,2018_Jun_04_1330,60.0008493197,MP-Perception Experiment,xx08m28,
270,vcgpdm_dyn(15)-lvm(20)_final(9).mov,True,left,1,training(5).mov,0,110,110,41,,,,,,,,13:59:06:380,13:59:07:115,13:59:10:118,left,13:59:10:416,,,2018_Jun_04_1330,60.0008493197,MP-Perception Experiment,xx08m28,
271,training(32).mov,False,right,1,tmp_numprim(7)_final(1).mov,0,111,111,18,,,,,,,,13:59:11:178,13:59:11:917,13:59:14:920,right,13:59:15:237,,,2018_Jun_04_1330,60.0008493197,MP-Perception Experiment,xx08m28,
272,training(4).mov,True,right,1,vgpdm_dyn(10)-lvm(5)_final(4).mov,0,112,112,14,,,,,,,,13:59:15:994,13:59:16:738,13:59:19:740,right,13:59:20:040,,,2018_Jun_04_1330,60.0008493197,MP-Perception Experiment,xx08m28,
273,training(14).mov,True,right,1,vcgpdm_dyn(30)-lvm(15)_final(5).mov,0,113,113,70,,,,,,,,13:59:20:802,13:59:21:543,13:59:24:530,right,13:59:24:931,,,2018_Jun_04_1330,60.0008493197,MP-Perception Experiment,xx08m28,
274,training(25).mov,False,right,1,vcgpdm_dyn(30)-lvm(15)_final(0).mov,0,114,114,24,,,,,,,,13:59:25:686,13:59:26:432,13:59:29:434,left,13:59:29:818,,,2018_Jun_04_1330,60.0008493197,MP-Perception Experiment,xx08m28,
275,training(2).mov,False,right,1,vcgpdm_dyn(15)-lvm(25)_final(5).mov,0,115,115,103,,,,,,,,13:59:30:569,13:59:31:319,13:59:34:321,left,13:59:34:806,,,2018_Jun_04_1330,60.0008493197,MP-Perception Experiment,xx08m28,
276,vgpdm_dyn(15)-lvm(25)_final(1).mov,True,left,1,training(34).mov,0,116,116,88,,,,,,,,13:59:35:562,13:59:36:323,13:59:39:310,left,13:59:39:710,,,2018_Jun_04_1330,60.0008493197,MP-Perception Experiment,xx08m28,
277,tmp_numprim(4)_final(0).mov,True,left,1,training(25).mov,0,117,117,85,,,,,,,,13:59:40:460,13:59:41:211,13:59:44:214,left,13:59:44:564,,,2018_Jun_04_1330,60.0008493197,MP-Perception Experiment,xx08m28,
278,dmp_npsi(35)_final(8).mov,True,left,1,training(25).mov,0,118,118,139,,,,,,,,13:59:45:321,13:59:46:065,13:59:49:068,left,13:59:49:502,,,2018_Jun_04_1330,60.0008493197,MP-Perception Experiment,xx08m28,
279,training(27).mov,True,right,1,vcgpdm_dyn(15)-lvm(10)_final(0).mov,0,119,119,4,,,,,,,,13:59:50:272,13:59:51:002,13:59:54:005,right,13:59:54:422,,,2018_Jun_04_1330,60.0008493197,MP-Perception Experiment,xx08m28,
280,training(23).mov,False,right,1,vcgpdm_dyn(10)-lvm(25)_final(1).mov,0,120,120,104,,,,,,,,13:59:55:168,13:59:55:923,13:59:58:943,right,13:59:59:227,,,2018_Jun_04_1330,60.0008493197,MP-Perception Experiment,xx08m28,
281,training(10).mov,False,right,1,vcgpdm_dyn(15)-lvm(15)_final(6).mov,0,121,121,155,,,,,,,,13:59:59:988,14:00:00:743,14:00:03:729,right,14:00:04:062,,,2018_Jun_04_1330,60.0008493197,MP-Perception Experiment,xx08m28,
282,vcgpdm_dyn(20)-lvm(30)_final(3).mov,False,left,1,training(9).mov,0,122,122,118,,,,,,,,14:00:04:825,14:00:05:563,14:00:08:566,left,14:00:08:950,,,2018_Jun_04_1330,60.0008493197,MP-Perception Experiment,xx08m28,
283,training(2).mov,True,right,1,vcgpdm_dyn(20)-lvm(25)_final(2).mov,0,123,123,25,,,,,,,,14:00:09:698,14:00:10:451,14:00:13:438,right,14:00:14:140,,,2018_Jun_04_1330,60.0008493197,MP-Perception Experiment,xx08m28,
284,vcgpdm_dyn(20)-lvm(35)_final(2).mov,True,left,1,training(1).mov,0,124,124,97,,,,,,,,14:00:14:890,14:00:15:641,14:00:18:643,left,14:00:19:027,,,2018_Jun_04_1330,60.0008493197,MP-Perception Experiment,xx08m28,
285,vcgpdm_dyn(20)-lvm(10)_final(6).mov,True,left,1,training(36).mov,0,125,125,46,,,,,,,,14:00:19:792,14:00:20:528,14:00:23:547,left,14:00:23:931,,,2018_Jun_04_1330,60.0008493197,MP-Perception Experiment,xx08m28,
286,vgpdm_dyn(20)-lvm(25)_final(8).mov,True,left,1,training(35).mov,0,126,126,86,,,,,,,,14:00:24:702,14:00:25:432,14:00:28:435,left,14:00:28:752,,,2018_Jun_04_1330,60.0008493197,MP-Perception Experiment,xx08m28,
287,dmp_npsi(45)_final(4).mov,True,left,1,training(23).mov,0,127,127,49,,,,,,,,14:00:29:500,14:00:30:270,14:00:33:256,left,14:00:34:140,,,2018_Jun_04_1330,60.0008493197,MP-Perception Experiment,xx08m28,
288,vgpdm_dyn(25)-lvm(10)_final(0)_out_of_screen.mov,True,left,1,training(13).mov,0,128,128,119,,,,,,,,14:00:34:894,14:00:35:642,14:00:38:644,left,14:00:38:928,,,2018_Jun_04_1330,60.0008493197,MP-Perception Experiment,xx08m28,
289,training(33).mov,True,right,1,vcgpdm_dyn(10)-lvm(25)_final(8).mov,0,129,129,112,,,,,,,,14:00:39:697,14:00:40:429,14:00:43:431,right,14:00:43:815,,,2018_Jun_04_1330,60.0008493197,MP-Perception Experiment,xx08m28,
290,training(32).mov,True,right,1,vcgpdm_dyn(25)-lvm(20)_final(8).mov,0,130,130,45,,,,,,,,14:00:44:555,14:00:45:316,14:00:48:318,right,14:00:48:653,,,2018_Jun_04_1330,60.0008493197,MP-Perception Experiment,xx08m28,
291,dmp_npsi(50)_final(8).mov,False,left,1,training(29).mov,0,131,131,34,,,,,,,,14:00:49:402,14:00:50:154,14:00:53:155,left,14:00:53:422,,,2018_Jun_04_1330,60.0008493197,MP-Perception Experiment,xx08m28,
292,vcgpdm_dyn(30)-lvm(10)_final(7).mov,False,left,1,training(39).mov,0,132,132,100,,,,,,,,14:00:54:178,14:00:54:923,14:00:57:926,left,14:00:58:426,,,2018_Jun_04_1330,60.0008493197,MP-Perception Experiment,xx08m28,
293,training(13).mov,True,right,1,map_cgpdm_final(5).mov,0,133,133,30,,,,,,,,14:00:59:170,14:00:59:927,14:01:02:929,right,14:01:03:313,,,2018_Jun_04_1330,60.0008493197,MP-Perception Experiment,xx08m28,
294,vcgpdm_dyn(15)-lvm(15)_final(8).mov,False,left,1,training(10).mov,0,134,134,158,,,,,,,,14:01:04:070,14:01:04:816,14:01:07:819,left,14:01:08:203,,,2018_Jun_04_1330,60.0008493197,MP-Perception Experiment,xx08m28,
295,training(25).mov,False,right,1,vcgpdm_dyn(10)-lvm(30)_final(6).mov,0,135,135,64,,,,,,,,14:01:08:962,14:01:09:704,14:01:12:707,right,14:01:13:057,,,2018_Jun_04_1330,60.0008493197,MP-Perception Experiment,xx08m28,
296,vgpdm_dyn(10)-lvm(5)_final(8).mov,False,left,1,training(38).mov,0,136,136,77,,,,,,,,14:01:13:839,14:01:14:558,14:01:17:578,left,14:01:17:944,,,2018_Jun_04_1330,60.0008493197,MP-Perception Experiment,xx08m28,
297,vcgpdm_dyn(10)-lvm(25)_final(8).mov,True,left,1,training(26).mov,0,137,137,117,,,,,,,,14:01:18:702,14:01:19:446,14:01:22:465,left,14:01:22:798,,,2018_Jun_04_1330,60.0008493197,MP-Perception Experiment,xx08m28,
298,vgpdm_dyn(20)-lvm(25)_final(2).mov,True,left,1,training(26).mov,0,138,138,108,,,,,,,,14:01:23:567,14:01:24:300,14:01:27:303,right,14:01:27:637,,,2018_Jun_04_1330,60.0008493197,MP-Perception Experiment,xx08m28,
299,vcgpdm_dyn(35)-lvm(5)_final(0).mov,True,left,1,training(11).mov,0,139,139,0,,,,,,,,14:01:28:389,14:01:29:138,14:01:32:140,right,14:01:32:474,,,2018_Jun_04_1330,60.0008493197,MP-Perception Experiment,xx08m28,
300,training(29).mov,False,right,1,dmp_npsi(15)_final(5).mov,0,140,140,153,,,,,,,,14:01:33:234,14:01:33:992,14:01:36:977,right,14:01:37:261,,,2018_Jun_04_1330,60.0008493197,MP-Perception Experiment,xx08m28,
301,vgpdm_dyn(30)-lvm(25)_final(0).mov,False,left,1,training(10).mov,0,141,141,76,,,,,,,,14:01:38:013,14:01:38:779,14:01:41:764,right,14:01:42:098,,,2018_Jun_04_1330,60.0008493197,MP-Perception Experiment,xx08m28,
302,vgpdm_dyn(20)-lvm(20)_final(8).mov,False,left,1,training(5).mov,0,142,142,92,,,,,,,,14:01:42:853,14:01:43:599,14:01:46:601,right,14:01:46:985,,,2018_Jun_04_1330,60.0008493197,MP-Perception Experiment,xx08m28,
303,training(8).mov,False,right,1,vgpdm_dyn(5)-lvm(10)_final(4).mov,0,143,143,116,,,,,,,,14:01:47:741,14:01:48:486,14:01:51:488,right,14:01:51:805,,,2018_Jun_04_1330,60.0008493197,MP-Perception Experiment,xx08m28,
304,vgpdm_dyn(25)-lvm(5)_final(7).mov,True,left,1,training(4).mov,0,144,144,21,,,,,,,,14:01:52:560,14:01:53:308,14:01:56:311,left,14:01:56:761,,,2018_Jun_04_1330,60.0008493197,MP-Perception Experiment,xx08m28,
305,vgpdm_dyn(5)-lvm(20)_final(7).mov,True,left,1,training(20).mov,0,145,145,5,,,,,,,,14:01:57:505,14:01:58:262,14:02:01:265,left,14:02:01:566,,,2018_Jun_04_1330,60.0008493197,MP-Perception Experiment,xx08m28,
306,training(9).mov,True,right,1,vcgpdm_dyn(30)-lvm(5)_final(9).mov,0,146,146,144,,,,,,,,14:02:02:340,14:02:03:067,14:02:06:069,left,14:02:06:503,,,2018_Jun_04_1330,60.0008493197,MP-Perception Experiment,xx08m28,
307,training(28).mov,False,right,1,tmp_numprim(7)_final(5).mov,0,147,147,10,,,,,,,,14:02:07:264,14:02:08:004,14:02:11:007,right,14:02:11:441,,,2018_Jun_04_1330,60.0008493197,MP-Perception Experiment,xx08m28,
308,training(26).mov,False,right,1,vcgpdm_dyn(10)-lvm(15)_final(0).mov,0,148,148,157,,,,,,,,14:02:12:197,14:02:12:958,14:02:15:944,right,14:02:16:262,,,2018_Jun_04_1330,60.0008493197,MP-Perception Experiment,xx08m28,
309,tmp_numprim(6)_final(9).mov,False,left,1,training(29).mov,0,149,149,39,,,,,,,,14:02:17:014,14:02:17:763,14:02:20:766,left,14:02:21:116,,,2018_Jun_04_1330,60.0008493197,MP-Perception Experiment,xx08m28,
310,dmp_npsi(20)_final(1).mov,False,left,1,training(9).mov,0,150,150,57,,,,,,,,14:02:21:868,14:02:22:617,14:02:25:620,left,14:02:25:970,,,2018_Jun_04_1330,60.0008493197,MP-Perception Experiment,xx08m28,
311,training(27).mov,True,right,1,vgpdm_dyn(30)-lvm(30)_final(8).mov,0,151,151,7,,,,,,,,14:02:27:687,14:02:27:687,14:02:30:474,right,14:02:31:089,,,2018_Jun_04_1330,60.0008493197,MP-Perception Experiment,xx08m28,
312,training(33).mov,False,right,1,vcgpdm_dyn(25)-lvm(20)_final(1).mov,0,152,152,128,,,,,,,,14:02:31:841,14:02:32:590,14:02:35:594,right,14:02:35:777,,,2018_Jun_04_1330,60.0008493197,MP-Perception Experiment,xx08m28,
313,vcgpdm_dyn(20)-lvm(5)_final(7).mov,False,left,1,training(33).mov,0,153,153,58,,,,,,,,14:02:36:520,14:02:37:278,14:02:40:281,left,14:02:40:581,,,2018_Jun_04_1330,60.0008493197,MP-Perception Experiment,xx08m28,
314,training(39).mov,False,right,1,vcgpdm_dyn(30)-lvm(30)_final(7).mov,0,154,154,78,,,,,,,,14:02:41:342,14:02:42:082,14:02:45:086,right,14:02:45:503,,,2018_Jun_04_1330,60.0008493197,MP-Perception Experiment,xx08m28,
315,dmp_npsi(30)_final(8).mov,True,left,1,training(31).mov,0,155,155,48,,,,,,,,14:02:46:269,14:02:47:021,14:02:50:007,left,14:02:50:424,,,2018_Jun_04_1330,60.0008493197,MP-Perception Experiment,xx08m28,
316,tmp_numprim(2)_final(4).mov,True,left,1,training(21).mov,0,156,156,90,,,,,,,,14:02:51:200,14:02:51:943,14:02:54:929,left,14:02:55:479,,,2018_Jun_04_1330,60.0008493197,MP-Perception Experiment,xx08m28,
317,dmp_npsi(45)_final(5).mov,False,left,1,training(3).mov,0,157,157,102,,,,,,,,14:02:56:264,14:02:56:980,14:02:59:983,right,14:03:00:467,,,2018_Jun_04_1330,60.0008493197,MP-Perception Experiment,xx08m28,
318,vgpdm_dyn(5)-lvm(10)_final(7).mov,True,left,1,training(38).mov,0,158,158,140,,,,,,,,14:03:01:214,14:03:01:968,14:03:04:970,left,14:03:05:354,,,2018_Jun_04_1330,60.0008493197,MP-Perception Experiment,xx08m28,
319,vgpdm_dyn(35)-lvm(30)_final(0).mov,True,left,2,training(24).mov,0,0,0,89,,,,,,,,14:06:28:164,14:06:28:913,14:06:31:916,left,14:06:32:249,,,2018_Jun_04_1330,60.0008493197,MP-Perception Experiment,xx08m28,
320,vcgpdm_dyn(30)-lvm(30)_final(6).mov,True,left,2,training(26).mov,0,1,1,85,,,,,,,,14:06:32:990,14:06:33:767,14:06:36:753,left,14:06:37:003,,,2018_Jun_04_1330,60.0008493197,MP-Perception Experiment,xx08m28,
321,map_gpdm_final(0).mov,False,left,2,training(10).mov,0,2,2,20,,,,,,,,14:06:37:763,14:06:38:505,14:06:41:506,left,14:06:41:840,,,2018_Jun_04_1330,60.0008493197,MP-Perception Experiment,xx08m28,
322,training(14).mov,True,right,2,vgpdm_dyn(5)-lvm(30)_final(8).mov,0,3,3,105,,,,,,,,14:06:42:596,14:06:43:341,14:06:46:343,right,14:06:46:660,,,2018_Jun_04_1330,60.0008493197,MP-Perception Experiment,xx08m28,
323,training(33).mov,True,right,2,vcgpdm_dyn(15)-lvm(35)_final(5).mov,0,4,4,26,,,,,,,,14:06:47:421,14:06:48:161,14:06:51:164,right,14:06:51:564,,,2018_Jun_04_1330,60.0008493197,MP-Perception Experiment,xx08m28,
324,vcgpdm_dyn(10)-lvm(5)_final(2).mov,True,left,2,training(19).mov,0,5,5,67,,,,,,,,14:06:52:332,14:06:53:067,14:06:56:070,left,14:06:56:221,,,2018_Jun_04_1330,60.0008493197,MP-Perception Experiment,xx08m28,
325,map_gpdm_final(1).mov,True,left,2,training(5).mov,0,6,6,146,,,,,,,,14:06:56:978,14:06:57:722,14:07:00:725,left,14:07:01:125,,,2018_Jun_04_1330,60.0008493197,MP-Perception Experiment,xx08m28,
326,training(32).mov,False,right,2,vcgpdm_dyn(15)-lvm(20)_final(3).mov,0,7,7,133,,,,,,,,14:07:01:886,14:07:02:626,14:07:05:629,left,14:07:06:012,,,2018_Jun_04_1330,60.0008493197,MP-Perception Experiment,xx08m28,
327,vcgpdm_dyn(20)-lvm(35)_final(7).mov,False,left,2,training(20).mov,0,8,8,43,,,,,,,,14:07:06:772,14:07:07:513,14:07:10:516,left,14:07:10:833,,,2018_Jun_04_1330,60.0008493197,MP-Perception Experiment,xx08m28,
328,vcgpdm_dyn(10)-lvm(20)_final(0).mov,False,left,2,training(30).mov,0,9,9,103,,,,,,,,14:07:11:582,14:07:12:334,14:07:15:337,right,14:07:15:754,,,2018_Jun_04_1330,60.0008493197,MP-Perception Experiment,xx08m28,
329,vgpdm_dyn(10)-lvm(25)_final(0).mov,True,left,2,training(12).mov,0,10,10,135,,,,,,,,14:07:16:514,14:07:17:255,14:07:20:258,left,14:07:20:608,,,2018_Jun_04_1330,60.0008493197,MP-Perception Experiment,xx08m28,
330,vgpdm_dyn(30)-lvm(35)_final(8).mov,True,left,2,training(12).mov,0,11,11,27,,,,,,,,14:07:21:353,14:07:22:109,14:07:25:128,right,14:07:25:463,,,2018_Jun_04_1330,60.0008493197,MP-Perception Experiment,xx08m28,
331,vcgpdm_dyn(35)-lvm(25)_final(4).mov,False,left,2,training(36).mov,0,12,12,47,,,,,,,,14:07:26:224,14:07:26:963,14:07:29:966,left,14:07:30:366,,,2018_Jun_04_1330,60.0008493197,MP-Perception Experiment,xx08m28,
332,training(24).mov,False,right,2,map_gpdm_final(9).mov,0,13,13,36,,,,,,,,14:07:31:135,14:07:31:884,14:07:34:886,right,14:07:35:236,,,2018_Jun_04_1330,60.0008493197,MP-Perception Experiment,xx08m28,
333,training(36).mov,True,right,2,vcgpdm_dyn(5)-lvm(25)_final(0).mov,0,14,14,18,,,,,,,,14:07:35:982,14:07:36:737,14:07:39:739,right,14:07:40:073,,,2018_Jun_04_1330,60.0008493197,MP-Perception Experiment,xx08m28,
334,vgpdm_dyn(20)-lvm(35)_final(9).mov,True,left,2,training(13).mov,0,15,15,42,,,,,,,,14:07:40:848,14:07:41:591,14:07:44:578,left,14:07:44:946,,,2018_Jun_04_1330,60.0008493197,MP-Perception Experiment,xx08m28,
335,vgpdm_dyn(30)-lvm(15)_final(0).mov,False,left,2,training(22).mov,0,16,16,11,,,,,,,,14:07:45:699,14:07:46:447,14:07:49:450,right,14:07:49:767,,,2018_Jun_04_1330,60.0008493197,MP-Perception Experiment,xx08m28,
336,vcgpdm_dyn(25)-lvm(5)_final(5).mov,True,left,2,training(15).mov,0,17,17,132,,,,,,,,14:07:50:525,14:07:51:268,14:07:54:271,left,14:07:54:888,,,2018_Jun_04_1330,60.0008493197,MP-Perception Experiment,xx08m28,
337,training(5).mov,False,right,2,vgpdm_dyn(25)-lvm(15)_final(3)_out_of_screen.mov,0,18,18,82,,,,,,,,14:07:55:643,14:07:56:389,14:07:59:408,right,14:07:59:759,,,2018_Jun_04_1330,60.0008493197,MP-Perception Experiment,xx08m28,
338,vgpdm_dyn(10)-lvm(15)_final(4).mov,False,left,2,training(35).mov,0,19,19,149,,,,,,,,14:08:00:517,14:08:01:259,14:08:04:279,left,14:08:04:662,,,2018_Jun_04_1330,60.0008493197,MP-Perception Experiment,xx08m28,
339,vcgpdm_dyn(10)-lvm(35)_final(3).mov,True,left,2,training(18).mov,0,20,20,17,,,,,,,,14:08:05:403,14:08:06:164,14:08:09:167,left,14:08:09:501,,,2018_Jun_04_1330,60.0008493197,MP-Perception Experiment,xx08m28,
340,training(32).mov,False,right,2,vcgpdm_dyn(5)-lvm(30)_final(1)_bad.mov,0,21,21,6,,,,,,,,14:08:10:259,14:08:11:002,14:08:14:021,right,14:08:14:321,,,2018_Jun_04_1330,60.0008493197,MP-Perception Experiment,xx08m28,
341,vgpdm_dyn(10)-lvm(15)_final(7).mov,False,left,2,training(12).mov,0,22,22,31,,,,,,,,14:08:15:069,14:08:15:822,14:08:18:825,right,14:08:19:175,,,2018_Jun_04_1330,60.0008493197,MP-Perception Experiment,xx08m28,
342,vgpdm_dyn(30)-lvm(5)_final(5).mov,True,left,2,training(11).mov,0,23,23,112,,,,,,,,14:08:19:951,14:08:20:691,14:08:23:678,left,14:08:24:028,,,2018_Jun_04_1330,60.0008493197,MP-Perception Experiment,xx08m28,
343,vgpdm_dyn(30)-lvm(30)_final(5).mov,False,left,2,training(39).mov,0,24,24,65,,,,,,,,14:08:24:781,14:08:25:529,14:08:28:532,left,14:08:28:782,,,2018_Jun_04_1330,60.0008493197,MP-Perception Experiment,xx08m28,
344,vcgpdm_dyn(25)-lvm(35)_final(2).mov,False,left,2,training(0).mov,0,25,25,54,,,,,,,,14:08:29:525,14:08:30:283,14:08:33:271,left,14:08:33:621,,,2018_Jun_04_1330,60.0008493197,MP-Perception Experiment,xx08m28,
345,vcgpdm_dyn(5)-lvm(5)_final(2).mov,False,left,2,training(5).mov,0,26,26,66,,,,,,,,14:08:34:404,14:08:35:122,14:08:38:125,left,14:08:38:475,,,2018_Jun_04_1330,60.0008493197,MP-Perception Experiment,xx08m28,
346,training(21).mov,True,right,2,vcgpdm_dyn(35)-lvm(30)_final(3).mov,0,27,27,84,,,,,,,,14:08:39:233,14:08:39:976,14:08:42:979,right,14:08:43:297,,,2018_Jun_04_1330,60.0008493197,MP-Perception Experiment,xx08m28,
347,training(38).mov,False,right,2,tmp_numprim(5)_final(4).mov,0,28,28,131,,,,,,,,14:08:44:042,14:08:44:798,14:08:47:817,left,14:08:48:267,,,2018_Jun_04_1330,60.0008493197,MP-Perception Experiment,xx08m28,
348,vcgpdm_dyn(20)-lvm(10)_final(8).mov,True,left,2,training(2).mov,0,29,29,122,,,,,,,,14:08:49:024,14:08:49:768,14:08:52:771,left,14:08:53:238,,,2018_Jun_04_1330,60.0008493197,MP-Perception Experiment,xx08m28,
349,training(31).mov,False,right,2,vgpdm_dyn(30)-lvm(5)_final(5).mov,0,30,30,22,,,,,,,,14:08:53:990,14:08:54:739,14:08:57:758,right,14:08:58:108,,,2018_Jun_04_1330,60.0008493197,MP-Perception Experiment,xx08m28,
350,training(22).mov,False,right,2,map_gpdm_final(7).mov,0,31,31,25,,,,,,,,14:08:58:864,14:08:59:611,14:09:02:613,right,14:09:02:880,,,2018_Jun_04_1330,60.0008493197,MP-Perception Experiment,xx08m28,
351,training(27).mov,True,right,2,vgpdm_dyn(5)-lvm(20)_final(2).mov,0,32,32,2,,,,,,,,14:09:03:651,14:09:04:398,14:09:07:384,right,14:09:07:917,,,2018_Jun_04_1330,60.0008493197,MP-Perception Experiment,xx08m28,
352,training(22).mov,False,right,2,vcgpdm_dyn(5)-lvm(10)_final(1).mov,0,33,33,5,,,,,,,,14:09:08:670,14:09:09:419,14:09:12:419,right,14:09:12:720,,,2018_Jun_04_1330,60.0008493197,MP-Perception Experiment,xx08m28,
353,vcgpdm_dyn(35)-lvm(5)_final(4).mov,False,left,2,training(7).mov,0,34,34,116,,,,,,,,14:09:13:478,14:09:14:221,14:09:17:224,left,14:09:17:541,,,2018_Jun_04_1330,60.0008493197,MP-Perception Experiment,xx08m28,
354,vcgpdm_dyn(5)-lvm(5)_final(2).mov,False,left,2,training(15).mov,0,35,35,145,,,,,,,,14:09:18:290,14:09:19:042,14:09:22:045,left,14:09:22:429,,,2018_Jun_04_1330,60.0008493197,MP-Perception Experiment,xx08m28,
355,training(5).mov,True,right,2,vgpdm_dyn(30)-lvm(20)_final(7).mov,0,36,36,14,,,,,,,,14:09:23:200,14:09:23:946,14:09:26:934,right,14:09:27:351,,,2018_Jun_04_1330,60.0008493197,MP-Perception Experiment,xx08m28,
356,vcgpdm_dyn(10)-lvm(35)_final(1).mov,True,left,2,training(21).mov,0,37,37,52,,,,,,,,14:09:28:103,14:09:28:852,14:09:31:855,left,14:09:32:171,,,2018_Jun_04_1330,60.0008493197,MP-Perception Experiment,xx08m28,
357,vgpdm_dyn(5)-lvm(25)_final(1)_out_of_screen.mov,True,left,2,training(28).mov,0,38,38,158,,,,,,,,14:09:32:929,14:09:33:673,14:09:36:676,left,14:09:37:060,,,2018_Jun_04_1330,60.0008493197,MP-Perception Experiment,xx08m28,
358,vcgpdm_dyn(15)-lvm(25)_final(2).mov,False,left,2,training(28).mov,0,39,39,55,,,,,,,,14:09:37:812,14:09:38:578,14:09:41:563,left,14:09:41:997,,,2018_Jun_04_1330,60.0008493197,MP-Perception Experiment,xx08m28,
359,training(18).mov,True,right,2,vgpdm_dyn(20)-lvm(15)_final(2).mov,0,40,40,39,,,,,,,,14:09:42:756,14:09:43:515,14:09:46:517,right,14:09:46:834,,,2018_Jun_04_1330,60.0008493197,MP-Perception Experiment,xx08m28,
360,training(8).mov,True,right,2,vcgpdm_dyn(20)-lvm(15)_final(8).mov,0,41,41,86,,,,,,,,14:09:47:583,14:09:48:335,14:09:51:339,right,14:09:51:656,,,2018_Jun_04_1330,60.0008493197,MP-Perception Experiment,xx08m28,
361,vcgpdm_dyn(30)-lvm(25)_final(1).mov,False,left,2,training(14).mov,0,42,42,37,,,,,,,,14:09:52:405,14:09:53:174,14:09:56:159,left,14:09:56:476,,,2018_Jun_04_1330,60.0008493197,MP-Perception Experiment,xx08m28,
362,training(41).mov,False,right,2,tmp_numprim(8)_final(4).mov,0,43,43,138,,,,,,,,14:09:57:258,14:09:57:977,14:10:00:978,right,14:10:01:395,,,2018_Jun_04_1330,60.0008493197,MP-Perception Experiment,xx08m28,
363,training(8).mov,True,right,2,vgpdm_dyn(35)-lvm(35)_final(0).mov,0,44,44,38,,,,,,,,14:10:02:150,14:10:02:896,14:10:05:899,right,14:10:06:249,,,2018_Jun_04_1330,60.0008493197,MP-Perception Experiment,xx08m28,
364,training(4).mov,True,right,2,vgpdm_dyn(25)-lvm(30)_final(5).mov,0,45,45,100,,,,,,,,14:10:07:001,14:10:07:750,14:10:10:754,left,14:10:11:237,,,2018_Jun_04_1330,60.0008493197,MP-Perception Experiment,xx08m28,
365,training(18).mov,True,right,2,dmp_npsi(15)_final(2).mov,0,46,46,113,,,,,,,,14:10:11:990,14:10:12:740,14:10:15:726,right,14:10:16:144,,,2018_Jun_04_1330,60.0008493197,MP-Perception Experiment,xx08m28,
366,training(35).mov,False,right,2,tmp_numprim(8)_final(3).mov,0,47,47,41,,,,,,,,14:10:16:904,14:10:17:661,14:10:20:647,right,14:10:21:447,,,2018_Jun_04_1330,60.0008493197,MP-Perception Experiment,xx08m28,
367,vgpdm_dyn(15)-lvm(25)_final(4).mov,True,left,2,training(0).mov,0,48,48,107,,,,,,,,14:10:22:197,14:10:22:949,14:10:25:952,left,14:10:26:286,,,2018_Jun_04_1330,60.0008493197,MP-Perception Experiment,xx08m28,
368,training(13).mov,False,right,2,vgpdm_dyn(15)-lvm(5)_final(7).mov,0,49,49,142,,,,,,,,14:10:27:693,14:10:28:204,14:10:30:789,left,14:10:31:557,,,2018_Jun_04_1330,60.0008493197,MP-Perception Experiment,xx08m28,
369,training(8).mov,True,right,2,dmp_npsi(25)_final(8).mov,0,50,50,144,,,,,,,,14:10:32:318,14:10:33:058,14:10:36:060,right,14:10:36:444,,,2018_Jun_04_1330,60.0008493197,MP-Perception Experiment,xx08m28,
370,vgpdm_dyn(20)-lvm(10)_final(4)_out_of_screen.mov,True,left,2,training(10).mov,0,51,51,15,,,,,,,,14:10:37:200,14:10:37:945,14:10:40:948,left,14:10:41:431,,,2018_Jun_04_1330,60.0008493197,MP-Perception Experiment,xx08m28,
371,vcgpdm_dyn(15)-lvm(35)_final(4).mov,False,left,2,training(25).mov,0,52,52,111,,,,,,,,14:10:42:229,14:10:42:932,14:10:45:936,right,14:10:46:269,,,2018_Jun_04_1330,60.0008493197,MP-Perception Experiment,xx08m28,
372,vcgpdm_dyn(20)-lvm(35)_final(0).mov,True,left,2,training(23).mov,0,53,53,16,,,,,,,,14:10:47:028,14:10:47:771,14:10:50:771,left,14:10:51:373,,,2018_Jun_04_1330,60.0008493197,MP-Perception Experiment,xx08m28,
373,vgpdm_dyn(15)-lvm(15)_final(5).mov,False,left,2,training(48).mov,0,54,54,153,,,,,,,,14:10:52:128,14:10:52:890,14:10:55:875,left,14:10:56:209,,,2018_Jun_04_1330,60.0008493197,MP-Perception Experiment,xx08m28,
374,training(41).mov,False,right,2,vgpdm_dyn(5)-lvm(15)_final(8).mov,0,55,55,127,,,,,,,,14:10:56:995,14:10:57:710,14:11:00:714,right,14:11:01:031,,,2018_Jun_04_1330,60.0008493197,MP-Perception Experiment,xx08m28,
375,training(26).mov,False,right,2,vcgpdm_dyn(15)-lvm(15)_final(2).mov,0,56,56,53,,,,,,,,14:11:01:797,14:11:02:532,14:11:05:536,right,14:11:05:836,,,2018_Jun_04_1330,60.0008493197,MP-Perception Experiment,xx08m28,
376,vgpdm_dyn(5)-lvm(10)_final(2).mov,True,left,2,training(39).mov,0,57,57,35,,,,,,,,14:11:06:591,14:11:07:337,14:11:10:340,left,14:11:10:657,,,2018_Jun_04_1330,60.0008493197,MP-Perception Experiment,xx08m28,
377,training(19).mov,True,right,2,vcgpdm_dyn(25)-lvm(30)_final(8).mov,0,58,58,75,,,,,,,,14:11:11:404,14:11:12:175,14:11:15:177,left,14:11:15:494,,,2018_Jun_04_1330,60.0008493197,MP-Perception Experiment,xx08m28,
378,vcgpdm_dyn(25)-lvm(35)_final(9).mov,True,left,2,training(27).mov,0,59,59,98,,,,,,,,14:11:16:256,14:11:16:995,14:11:20:015,left,14:11:20:432,,,2018_Jun_04_1330,60.0008493197,MP-Perception Experiment,xx08m28,
379,vgpdm_dyn(35)-lvm(25)_final(6).mov,True,left,2,training(25).mov,0,60,60,130,,,,,,,,14:11:21:188,14:11:21:933,14:11:24:936,left,14:11:25:320,,,2018_Jun_04_1330,60.0008493197,MP-Perception Experiment,xx08m28,
380,training(1).mov,False,right,2,tmp_numprim(4)_final(0).mov,0,61,61,94,,,,,,,,14:11:26:077,14:11:26:821,14:11:29:823,right,14:11:30:124,,,2018_Jun_04_1330,60.0008493197,MP-Perception Experiment,xx08m28,
381,training(6).mov,False,right,2,vcgpdm_dyn(30)-lvm(15)_final(0).mov,0,62,62,57,,,,,,,,14:11:30:891,14:11:31:625,14:11:34:627,right,14:11:34:994,,,2018_Jun_04_1330,60.0008493197,MP-Perception Experiment,xx08m28,
382,training(13).mov,False,right,2,vgpdm_dyn(5)-lvm(15)_final(3).mov,0,63,63,99,,,,,,,,14:11:35:743,14:11:36:496,14:11:39:499,right,14:11:39:782,,,2018_Jun_04_1330,60.0008493197,MP-Perception Experiment,xx08m28,
383,map_gpdm_final(8).mov,True,left,2,training(3).mov,0,64,64,1,,,,,,,,14:11:40:551,14:11:41:298,14:11:44:284,left,14:11:44:801,,,2018_Jun_04_1330,60.0008493197,MP-Perception Experiment,xx08m28,
384,training(11).mov,False,right,2,dmp_npsi(40)_final(1).mov,0,65,65,118,,,,,,,,14:11:45:560,14:11:46:302,14:11:49:305,right,14:11:49:639,,,2018_Jun_04_1330,60.0008493197,MP-Perception Experiment,xx08m28,
385,training(17).mov,True,right,2,vcgpdm_dyn(10)-lvm(10)_final(6).mov,0,66,66,97,,,,,,,,14:11:50:402,14:11:51:140,14:11:54:128,right,14:11:54:445,,,2018_Jun_04_1330,60.0008493197,MP-Perception Experiment,xx08m28,
386,vgpdm_dyn(25)-lvm(30)_final(7).mov,True,left,2,training(33).mov,0,67,67,69,,,,,,,,14:11:55:206,14:11:55:946,14:11:58:949,left,14:11:59:282,,,2018_Jun_04_1330,60.0008493197,MP-Perception Experiment,xx08m28,
387,training(29).mov,False,right,2,tmp_numprim(3)_final(0).mov,0,68,68,128,,,,,,,,14:12:00:044,14:12:00:783,14:12:03:786,right,14:12:04:120,,,2018_Jun_04_1330,60.0008493197,MP-Perception Experiment,xx08m28,
388,vcgpdm_dyn(20)-lvm(10)_final(4).mov,False,left,2,training(19).mov,0,69,69,50,,,,,,,,14:12:04:878,14:12:05:621,14:12:08:623,right,14:12:08:940,,,2018_Jun_04_1330,60.0008493197,MP-Perception Experiment,xx08m28,
389,vgpdm_dyn(10)-lvm(30)_final(9).mov,False,left,2,training(39).mov,0,70,70,121,,,,,,,,14:12:09:689,14:12:10:441,14:12:13:461,left,14:12:13:929,,,2018_Jun_04_1330,60.0008493197,MP-Perception Experiment,xx08m28,
390,training(9).mov,True,right,2,vgpdm_dyn(15)-lvm(5)_final(3).mov,0,71,71,117,,,,,,,,14:12:14:714,14:12:15:430,14:12:18:432,right,14:12:18:749,,,2018_Jun_04_1330,60.0008493197,MP-Perception Experiment,xx08m28,
391,vcgpdm_dyn(25)-lvm(25)_final(4).mov,False,left,2,training(5).mov,0,72,72,137,,,,,,,,14:12:19:503,14:12:20:250,14:12:23:253,right,14:12:23:653,,,2018_Jun_04_1330,60.0008493197,MP-Perception Experiment,xx08m28,
392,vgpdm_dyn(25)-lvm(5)_final(2).mov,False,left,2,training(36).mov,0,73,73,95,,,,,,,,14:12:24:743,14:12:25:254,14:12:28:158,right,14:12:28:525,,,2018_Jun_04_1330,60.0008493197,MP-Perception Experiment,xx08m28,
393,vcgpdm_dyn(25)-lvm(15)_final(9).mov,True,left,2,training(3).mov,0,74,74,126,,,,,,,,14:12:29:288,14:12:30:026,14:12:33:043,right,14:12:33:327,,,2018_Jun_04_1330,60.0008493197,MP-Perception Experiment,xx08m28,
394,dmp_npsi(25)_final(8).mov,False,left,2,training(38).mov,0,75,75,80,,,,,,,,14:12:34:085,14:12:34:828,14:12:37:830,left,14:12:38:231,,,2018_Jun_04_1330,60.0008493197,MP-Perception Experiment,xx08m28,
395,tmp_numprim(6)_final(9).mov,False,left,2,training(10).mov,0,76,76,104,,,,,,,,14:12:38:991,14:12:39:749,14:12:42:734,left,14:12:43:101,,,2018_Jun_04_1330,60.0008493197,MP-Perception Experiment,xx08m28,
396,vgpdm_dyn(25)-lvm(20)_final(0).mov,False,left,2,training(25).mov,0,77,77,88,,,,,,,,14:12:43:863,14:12:44:602,14:12:47:591,right,14:12:47:908,,,2018_Jun_04_1330,60.0008493197,MP-Perception Experiment,xx08m28,
397,map_cgpdm_final(0).mov,True,left,2,training(38).mov,0,78,78,32,,,,,,,,14:12:48:678,14:12:49:426,14:12:52:411,left,14:12:52:845,,,2018_Jun_04_1330,60.0008493197,MP-Perception Experiment,xx08m28,
398,vcgpdm_dyn(30)-lvm(15)_final(8).mov,True,left,2,training(4).mov,0,79,79,77,,,,,,,,14:12:53:604,14:12:54:363,14:12:57:349,right,14:12:57:716,,,2018_Jun_04_1330,60.0008493197,MP-Perception Experiment,xx08m28,
399,training(30).mov,True,right,2,vgpdm_dyn(25)-lvm(5)_final(7).mov,0,80,80,70,,,,,,,,14:12:58:463,14:12:59:217,14:13:02:219,right,14:13:02:553,,,2018_Jun_04_1330,60.0008493197,MP-Perception Experiment,xx08m28,
400,training(21).mov,True,right,2,vcgpdm_dyn(10)-lvm(20)_final(5).mov,0,81,81,78,,,,,,,,14:13:03:310,14:13:04:055,14:13:07:058,right,14:13:07:341,,,2018_Jun_04_1330,60.0008493197,MP-Perception Experiment,xx08m28,
401,training(13).mov,True,right,2,vcgpdm_dyn(15)-lvm(25)_final(6).mov,0,82,82,58,,,,,,,,14:13:08:111,14:13:08:842,14:13:11:862,right,14:13:12:162,,,2018_Jun_04_1330,60.0008493197,MP-Perception Experiment,xx08m28,
402,training(39).mov,True,right,2,vgpdm_dyn(35)-lvm(30)_final(3).mov,0,83,83,61,,,,,,,,14:13:12:911,14:13:13:663,14:13:16:665,left,14:13:16:983,,,2018_Jun_04_1330,60.0008493197,MP-Perception Experiment,xx08m28,
403,training(17).mov,False,right,2,vcgpdm_dyn(20)-lvm(25)_final(4).mov,0,84,84,109,,,,,,,,14:13:17:747,14:13:18:484,14:13:21:485,right,14:13:21:986,,,2018_Jun_04_1330,60.0008493197,MP-Perception Experiment,xx08m28,
404,vgpdm_dyn(30)-lvm(10)_final(8).mov,False,left,2,training(2).mov,0,85,85,72,,,,,,,,14:13:22:740,14:13:23:504,14:13:26:489,left,14:13:27:006,,,2018_Jun_04_1330,60.0008493197,MP-Perception Experiment,xx08m28,
405,training(25).mov,False,right,2,vcgpdm_dyn(5)-lvm(20)_final(7).mov,0,86,86,102,,,,,,,,14:13:27:762,14:13:28:524,14:13:31:510,right,14:13:31:944,,,2018_Jun_04_1330,60.0008493197,MP-Perception Experiment,xx08m28,
406,vgpdm_dyn(25)-lvm(20)_final(1).mov,True,left,2,training(30).mov,0,87,87,62,,,,,,,,14:13:32:717,14:13:33:447,14:13:36:432,left,14:13:36:766,,,2018_Jun_04_1330,60.0008493197,MP-Perception Experiment,xx08m28,
407,tmp_numprim(5)_final(8).mov,True,left,2,training(16).mov,0,88,88,91,,,,,,,,14:13:37:538,14:13:38:268,14:13:41:271,left,14:13:41:921,,,2018_Jun_04_1330,60.0008493197,MP-Perception Experiment,xx08m28,
408,training(29).mov,False,right,2,vgpdm_dyn(20)-lvm(25)_final(9).mov,0,89,89,30,,,,,,,,14:13:42:679,14:13:43:422,14:13:46:441,right,14:13:46:742,,,2018_Jun_04_1330,60.0008493197,MP-Perception Experiment,xx08m28,
409,training(17).mov,False,right,2,vcgpdm_dyn(15)-lvm(5)_final(0).mov,0,90,90,120,,,,,,,,14:13:47:511,14:13:48:243,14:13:51:245,right,14:13:51:529,,,2018_Jun_04_1330,60.0008493197,MP-Perception Experiment,xx08m28,
410,vgpdm_dyn(5)-lvm(20)_final(6).mov,False,left,2,training(27).mov,0,91,91,45,,,,,,,,14:13:52:297,14:13:53:030,14:13:56:034,left,14:13:56:417,,,2018_Jun_04_1330,60.0008493197,MP-Perception Experiment,xx08m28,
411,training(14).mov,True,right,2,dmp_npsi(10)_final(8)_bad.mov,0,92,92,4,,,,,,,,14:13:57:176,14:13:57:918,14:14:00:921,right,14:14:01:322,,,2018_Jun_04_1330,60.0008493197,MP-Perception Experiment,xx08m28,
412,training(22).mov,True,right,2,vcgpdm_dyn(25)-lvm(15)_final(2).mov,0,93,93,143,,,,,,,,14:14:02:080,14:14:02:839,14:14:05:825,left,14:14:06:092,,,2018_Jun_04_1330,60.0008493197,MP-Perception Experiment,xx08m28,
413,training(14).mov,True,right,2,vcgpdm_dyn(25)-lvm(30)_final(2).mov,0,94,94,71,,,,,,,,14:14:06:859,14:14:07:593,14:14:10:595,left,14:14:10:962,,,2018_Jun_04_1330,60.0008493197,MP-Perception Experiment,xx08m28,
414,vgpdm_dyn(5)-lvm(20)_final(7).mov,False,left,2,training(32).mov,0,95,95,48,,,,,,,,14:14:11:738,14:14:12:478,14:14:15:482,left,14:14:15:832,,,2018_Jun_04_1330,60.0008493197,MP-Perception Experiment,xx08m28,
415,training(3).mov,True,right,2,vcgpdm_dyn(35)-lvm(15)_final(5)_out_of_screen.mov,0,96,96,114,,,,,,,,14:14:16:582,14:14:17:333,14:14:20:336,right,14:14:20:636,,,2018_Jun_04_1330,60.0008493197,MP-Perception Experiment,xx08m28,
416,vcgpdm_dyn(25)-lvm(30)_final(6).mov,False,left,2,training(41).mov,0,97,97,7,,,,,,,,14:14:21:405,14:14:22:137,14:14:25:124,left,14:14:25:475,,,2018_Jun_04_1330,60.0008493197,MP-Perception Experiment,xx08m28,
417,training(27).mov,False,right,2,vcgpdm_dyn(25)-lvm(15)_final(9).mov,0,98,98,148,,,,,,,,14:14:26:230,14:14:26:976,14:14:29:979,right,14:14:30:397,,,2018_Jun_04_1330,60.0008493197,MP-Perception Experiment,xx08m28,
418,vcgpdm_dyn(10)-lvm(30)_final(1).mov,True,left,2,training(29).mov,0,99,99,21,,,,,,,,14:14:31:163,14:14:31:898,14:14:34:900,left,14:14:35:434,,,2018_Jun_04_1330,60.0008493197,MP-Perception Experiment,xx08m28,
419,vgpdm_dyn(10)-lvm(30)_final(6).mov,False,left,2,training(7).mov,0,100,100,8,,,,,,,,14:14:36:186,14:14:36:935,14:14:39:938,left,14:14:40:255,,,2018_Jun_04_1330,60.0008493197,MP-Perception Experiment,xx08m28,
420,training(33).mov,False,right,2,vgpdm_dyn(15)-lvm(25)_final(7).mov,0,101,101,3,,,,,,,,14:14:41:028,14:14:41:756,14:14:44:758,right,14:14:45:059,,,2018_Jun_04_1330,60.0008493197,MP-Perception Experiment,xx08m28,
421,training(1).mov,True,right,2,vcgpdm_dyn(20)-lvm(25)_final(7).mov,0,102,102,101,,,,,,,,14:14:46:257,14:14:46:776,14:14:49:563,right,14:14:49:930,,,2018_Jun_04_1330,60.0008493197,MP-Perception Experiment,xx08m28,
422,training(25).mov,True,right,2,tmp_numprim(3)_final(0).mov,0,103,103,152,,,,,,,,14:14:50:674,14:14:51:431,14:14:54:434,right,14:14:54:817,,,2018_Jun_04_1330,60.0008493197,MP-Perception Experiment,xx08m28,
423,vcgpdm_dyn(35)-lvm(30)_final(0).mov,False,left,2,training(1).mov,0,104,104,119,,,,,,,,14:14:55:597,14:14:56:319,14:14:59:337,left,14:14:59:922,,,2018_Jun_04_1330,60.0008493197,MP-Perception Experiment,xx08m28,
424,vcgpdm_dyn(25)-lvm(30)_final(6).mov,True,left,2,training(5).mov,0,105,105,134,,,,,,,,14:15:00:667,14:15:01:438,14:15:04:423,left,14:15:04:724,,,2018_Jun_04_1330,60.0008493197,MP-Perception Experiment,xx08m28,
425,training(0).mov,False,right,2,vgpdm_dyn(10)-lvm(10)_final(7).mov,0,106,106,74,,,,,,,,14:15:05:482,14:15:06:226,14:15:09:228,right,14:15:09:545,,,2018_Jun_04_1330,60.0008493197,MP-Perception Experiment,xx08m28,
426,vcgpdm_dyn(10)-lvm(25)_final(5).mov,False,left,2,training(8).mov,0,107,107,139,,,,,,,,14:15:10:336,14:15:11:046,14:15:14:034,left,14:15:14:434,,,2018_Jun_04_1330,60.0008493197,MP-Perception Experiment,xx08m28,
427,vcgpdm_dyn(35)-lvm(10)_final(2).mov,False,left,2,training(29).mov,0,108,108,10,,,,,,,,14:15:15:190,14:15:15:935,14:15:18:938,left,14:15:19:221,,,2018_Jun_04_1330,60.0008493197,MP-Perception Experiment,xx08m28,
428,vgpdm_dyn(10)-lvm(5)_final(8).mov,True,left,2,training(7).mov,0,109,109,73,,,,,,,,14:15:19:970,14:15:20:723,14:15:23:726,left,14:15:24:043,,,2018_Jun_04_1330,60.0008493197,MP-Perception Experiment,xx08m28,
429,training(0).mov,True,right,2,vgpdm_dyn(35)-lvm(15)_final(0)_out_of_screen.mov,0,110,110,63,,,,,,,,14:15:24:811,14:15:25:544,14:15:28:546,right,14:15:28:914,,,2018_Jun_04_1330,60.0008493197,MP-Perception Experiment,xx08m28,
430,vgpdm_dyn(20)-lvm(20)_final(8).mov,False,left,2,training(23).mov,0,111,111,147,,,,,,,,14:15:29:674,14:15:30:431,14:15:33:434,right,14:15:33:818,,,2018_Jun_04_1330,60.0008493197,MP-Perception Experiment,xx08m28,
431,vgpdm_dyn(30)-lvm(35)_final(1).mov,False,left,2,training(8).mov,0,112,112,115,,,,,,,,14:15:34:568,14:15:35:319,14:15:38:321,right,14:15:38:672,,,2018_Jun_04_1330,60.0008493197,MP-Perception Experiment,xx08m28,
432,training(33).mov,True,right,2,vcgpdm_dyn(30)-lvm(10)_final(9).mov,0,113,113,108,,,,,,,,14:15:39:429,14:15:40:173,14:15:43:176,right,14:15:43:460,,,2018_Jun_04_1330,60.0008493197,MP-Perception Experiment,xx08m28,
433,training(10).mov,True,right,2,vgpdm_dyn(15)-lvm(15)_final(0).mov,0,114,114,156,,,,,,,,14:15:44:216,14:15:44:977,14:15:47:963,right,14:15:48:430,,,2018_Jun_04_1330,60.0008493197,MP-Perception Experiment,xx08m28,
434,vgpdm_dyn(25)-lvm(20)_final(7).mov,True,left,2,training(6).mov,0,115,115,123,,,,,,,,14:15:49:177,14:15:49:931,14:15:52:932,right,14:15:53:232,,,2018_Jun_04_1330,60.0008493197,MP-Perception Experiment,xx08m28,
435,training(32).mov,True,right,2,tmp_numprim(5)_final(5).mov,0,116,116,93,,,,,,,,14:15:53:984,14:15:54:734,14:15:57:736,right,14:15:58:004,,,2018_Jun_04_1330,60.0008493197,MP-Perception Experiment,xx08m28,
436,vcgpdm_dyn(20)-lvm(15)_final(9).mov,True,left,2,training(9).mov,0,117,117,90,,,,,,,,14:15:58:754,14:15:59:505,14:16:02:508,right,14:16:02:891,,,2018_Jun_04_1330,60.0008493197,MP-Perception Experiment,xx08m28,
437,training(12).mov,True,right,2,vcgpdm_dyn(10)-lvm(15)_final(3).mov,0,118,118,140,,,,,,,,14:16:03:653,14:16:04:411,14:16:07:413,right,14:16:07:664,,,2018_Jun_04_1330,60.0008493197,MP-Perception Experiment,xx08m28,
438,training(15).mov,False,right,2,tmp_numprim(6)_final(9).mov,0,119,119,44,,,,,,,,14:16:08:421,14:16:09:165,14:16:12:167,right,14:16:12:484,,,2018_Jun_04_1330,60.0008493197,MP-Perception Experiment,xx08m28,
439,vcgpdm_dyn(5)-lvm(10)_final(2).mov,True,left,2,training(34).mov,0,120,120,19,,,,,,,,14:16:13:245,14:16:13:985,14:16:16:989,left,14:16:17:356,,,2018_Jun_04_1330,60.0008493197,MP-Perception Experiment,xx08m28,
440,vcgpdm_dyn(25)-lvm(10)_final(8).mov,False,left,2,training(35).mov,0,121,121,154,,,,,,,,14:16:18:117,14:16:18:873,14:16:21:859,right,14:16:22:293,,,2018_Jun_04_1330,60.0008493197,MP-Perception Experiment,xx08m28,
441,vgpdm_dyn(5)-lvm(15)_final(9).mov,True,left,2,training(26).mov,0,122,122,68,,,,,,,,14:16:23:049,14:16:23:794,14:16:26:797,left,14:16:27:080,,,2018_Jun_04_1330,60.0008493197,MP-Perception Experiment,xx08m28,
442,training(10).mov,False,right,2,vgpdm_dyn(10)-lvm(10)_final(4).mov,0,123,123,59,,,,,,,,14:16:27:834,14:16:28:582,14:16:31:584,right,14:16:31:984,,,2018_Jun_04_1330,60.0008493197,MP-Perception Experiment,xx08m28,
443,vgpdm_dyn(20)-lvm(35)_final(2).mov,True,left,2,training(26).mov,0,124,124,124,,,,,,,,14:16:32:739,14:16:33:486,14:16:36:489,right,14:16:36:822,,,2018_Jun_04_1330,60.0008493197,MP-Perception Experiment,xx08m28,
444,dmp_npsi(50)_final(4).mov,False,left,2,training(35).mov,0,125,125,157,,,,,,,,14:16:37:571,14:16:38:324,14:16:41:324,left,14:16:42:375,,,2018_Jun_04_1330,60.0008493197,MP-Perception Experiment,xx08m28,
445,dmp_npsi(45)_final(4).mov,False,left,2,training(8).mov,0,126,126,106,,,,,,,,14:16:43:131,14:16:43:876,14:16:46:879,right,14:16:47:162,,,2018_Jun_04_1330,60.0008493197,MP-Perception Experiment,xx08m28,
446,training(34).mov,False,right,2,vgpdm_dyn(10)-lvm(20)_final(2).mov,0,127,127,76,,,,,,,,14:16:47:922,14:16:48:663,14:16:51:684,right,14:16:51:967,,,2018_Jun_04_1330,60.0008493197,MP-Perception Experiment,xx08m28,
447,training(15).mov,True,right,2,vgpdm_dyn(30)-lvm(5)_final(8).mov,0,128,128,56,,,,,,,,14:16:52:728,14:16:53:468,14:16:56:473,right,14:16:56:706,,,2018_Jun_04_1330,60.0008493197,MP-Perception Experiment,xx08m28,
448,training(38).mov,True,right,2,vgpdm_dyn(15)-lvm(35)_final(2).mov,0,129,129,0,,,,,,,,14:16:57:471,14:16:58:207,14:17:01:210,left,14:17:01:527,,,2018_Jun_04_1330,60.0008493197,MP-Perception Experiment,xx08m28,
449,training(34).mov,False,right,2,vgpdm_dyn(35)-lvm(5)_final(7).mov,0,130,130,40,,,,,,,,14:17:02:273,14:17:03:028,14:17:06:030,right,14:17:06:397,,,2018_Jun_04_1330,60.0008493197,MP-Perception Experiment,xx08m28,
450,vcgpdm_dyn(20)-lvm(30)_final(3).mov,True,left,2,training(24).mov,0,131,131,79,,,,,,,,14:17:07:145,14:17:07:899,14:17:10:902,left,14:17:11:219,,,2018_Jun_04_1330,60.0008493197,MP-Perception Experiment,xx08m28,
451,vcgpdm_dyn(10)-lvm(30)_final(9).mov,True,left,2,training(26).mov,0,132,132,28,,,,,,,,14:17:11:963,14:17:12:720,14:17:15:722,left,14:17:16:156,,,2018_Jun_04_1330,60.0008493197,MP-Perception Experiment,xx08m28,
452,training(17).mov,False,right,2,dmp_npsi(40)_final(1).mov,0,133,133,125,,,,,,,,14:17:16:934,14:17:17:674,14:17:20:660,right,14:17:20:960,,,2018_Jun_04_1330,60.0008493197,MP-Perception Experiment,xx08m28,
453,vcgpdm_dyn(15)-lvm(20)_final(7).mov,False,left,2,training(16).mov,0,134,134,46,,,,,,,,14:17:21:730,14:17:22:461,14:17:25:465,left,14:17:25:815,,,2018_Jun_04_1330,60.0008493197,MP-Perception Experiment,xx08m28,
454,training(31).mov,True,right,2,vgpdm_dyn(35)-lvm(30)_final(3).mov,0,135,135,34,,,,,,,,14:17:27:540,14:17:27:540,14:17:30:319,right,14:17:30:786,,,2018_Jun_04_1330,60.0008493197,MP-Perception Experiment,xx08m28,
455,training(2).mov,False,right,2,tmp_numprim(9)_final(5).mov,0,136,136,23,,,,,,,,14:17:31:542,14:17:32:302,14:17:35:305,right,14:17:35:604,,,2018_Jun_04_1330,60.0008493197,MP-Perception Experiment,xx08m28,
456,vgpdm_dyn(25)-lvm(35)_final(9).mov,False,left,2,training(29).mov,0,137,137,51,,,,,,,,14:17:36:348,14:17:37:106,14:17:40:108,left,14:17:40:475,,,2018_Jun_04_1330,60.0008493197,MP-Perception Experiment,xx08m28,
457,vgpdm_dyn(5)-lvm(10)_final(8).mov,True,left,2,training(14).mov,0,138,138,83,,,,,,,,14:17:41:247,14:17:41:976,14:17:44:964,left,14:17:45:385,,,2018_Jun_04_1330,60.0008493197,MP-Perception Experiment,xx08m28,
458,training(0).mov,False,right,2,vcgpdm_dyn(10)-lvm(5)_final(4).mov,0,139,139,96,,,,,,,,14:17:46:160,14:17:46:916,14:17:49:919,left,14:17:50:269,,,2018_Jun_04_1330,60.0008493197,MP-Perception Experiment,xx08m28,
459,training(8).mov,True,right,2,dmp_npsi(50)_final(5).mov,0,140,140,87,,,,,,,,14:17:51:063,14:17:51:770,14:17:54:773,left,14:17:55:156,,,2018_Jun_04_1330,60.0008493197,MP-Perception Experiment,xx08m28,
460,vgpdm_dyn(15)-lvm(15)_final(9).mov,False,left,2,training(36).mov,0,141,141,141,,,,,,,,14:17:55:909,14:17:56:658,14:17:59:660,left,14:18:00:094,,,2018_Jun_04_1330,60.0008493197,MP-Perception Experiment,xx08m28,
461,vgpdm_dyn(10)-lvm(15)_final(6).mov,False,left,2,training(40).mov,0,142,142,92,,,,,,,,14:18:00:851,14:18:01:612,14:18:04:598,left,14:18:04:932,,,2018_Jun_04_1330,60.0008493197,MP-Perception Experiment,xx08m28,
462,training(15).mov,False,right,2,vgpdm_dyn(30)-lvm(15)_final(0).mov,0,143,143,33,,,,,,,,14:18:05:725,14:18:06:433,14:18:09:452,right,14:18:09:819,,,2018_Jun_04_1330,60.0008493197,MP-Perception Experiment,xx08m28,
463,training(40).mov,True,right,2,vgpdm_dyn(20)-lvm(30)_final(3).mov,0,144,144,81,,,,,,,,14:18:10:578,14:18:11:320,14:18:14:323,left,14:18:14:673,,,2018_Jun_04_1330,60.0008493197,MP-Perception Experiment,xx08m28,
464,tmp_numprim(10)_final(9).mov,False,left,2,training(17).mov,0,145,145,12,,,,,,,,14:18:15:417,14:18:16:174,14:18:19:178,right,14:18:19:628,,,2018_Jun_04_1330,60.0008493197,MP-Perception Experiment,xx08m28,
465,training(30).mov,True,right,2,vgpdm_dyn(20)-lvm(5)_final(8).mov,0,146,146,136,,,,,,,,14:18:20:402,14:18:21:146,14:18:24:130,right,14:18:24:580,,,2018_Jun_04_1330,60.0008493197,MP-Perception Experiment,xx08m28,
466,training(26).mov,False,right,2,map_gpdm_final(2).mov,0,147,147,60,,,,,,,,14:18:25:334,14:18:26:081,14:18:29:084,right,14:18:29:451,,,2018_Jun_04_1330,60.0008493197,MP-Perception Experiment,xx08m28,
467,training(13).mov,False,right,2,vcgpdm_dyn(5)-lvm(5)_final(4).mov,0,148,148,110,,,,,,,,14:18:30:211,14:18:30:952,14:18:33:940,right,14:18:34:240,,,2018_Jun_04_1330,60.0008493197,MP-Perception Experiment,xx08m28,
468,training(28).mov,True,right,2,vcgpdm_dyn(20)-lvm(15)_final(6).mov,0,149,149,24,,,,,,,,14:18:34:996,14:18:35:759,14:18:38:761,left,14:18:39:095,,,2018_Jun_04_1330,60.0008493197,MP-Perception Experiment,xx08m28,
469,training(34).mov,False,right,2,map_gpdm_final(5).mov,0,150,150,29,,,,,,,,14:18:39:859,14:18:40:596,14:18:43:598,right,14:18:43:965,,,2018_Jun_04_1330,60.0008493197,MP-Perception Experiment,xx08m28,
470,vgpdm_dyn(10)-lvm(35)_final(6).mov,False,left,2,training(0).mov,0,151,151,129,,,,,,,,14:18:44:724,14:18:45:466,14:18:48:469,left,14:18:48:836,,,2018_Jun_04_1330,60.0008493197,MP-Perception Experiment,xx08m28,
471,training(41).mov,False,right,2,dmp_npsi(25)_final(1).mov,0,152,152,151,,,,,,,,14:18:49:588,14:18:50:337,14:18:53:357,right,14:18:53:724,,,2018_Jun_04_1330,60.0008493197,MP-Perception Experiment,xx08m28,
