trial_number,right,flipped,correct,block,left,trials.thisRepN,trials.thisTrialN,trials.thisN,trials.thisIndex,flipwelcome.keys,flipwelcome.corr,flipwelcome.rt,flippreparations.keys,flippreparations.rt,flipInstructions.keys,flipInstructions.rt,time_at_fixation_cross_onset,time_at_videoonset,time_at_videoend,participant_key_response,time_at_key_response,key_resp_4.keys,key_resp_4.rt,date,frameRate,expName,participant,
,,,,,,,,,,space,0,43.822262211,,,,,,,,,,,,2018_Jun_05_1236,59.9404996156,MP-Perception Experiment,xx09w23,
,,,,,,,,,,,,,space,8.62270613604,,,,,,,,,,2018_Jun_05_1236,59.9404996156,MP-Perception Experiment,xx09w23,
,,,,,,,,,,,,,,,space,13.0631108488,,,,,,,,2018_Jun_05_1236,59.9404996156,MP-Perception Experiment,xx09w23,
1,vcgpdm_dyn(10)-lvm(20)_final(9).mov,False,left,0,training(5).mov,0,0,0,147,,,,,,,,12:37:39:760,12:37:39:760,12:37:42:674,left,12:37:43:991,,,2018_Jun_05_1236,59.9404996156,MP-Perception Experiment,xx09w23,
2,training(19).mov,False,right,0,vcgpdm_dyn(25)-lvm(15)_final(3).mov,0,1,1,4,,,,,,,,12:37:44:743,12:37:45:509,12:37:48:496,left,12:37:51:182,,,2018_Jun_05_1236,59.9404996156,MP-Perception Experiment,xx09w23,
3,vgpdm_dyn(30)-lvm(25)_final(1).mov,False,left,0,training(40).mov,0,2,2,15,,,,,,,,12:37:51:944,12:37:52:683,12:37:55:685,left,12:37:57:804,,,2018_Jun_05_1236,59.9404996156,MP-Perception Experiment,xx09w23,
4,vgpdm_dyn(20)-lvm(25)_final(0).mov,True,left,0,training(12).mov,0,3,3,54,,,,,,,,12:37:58:585,12:37:59:321,12:38:02:307,right,12:38:03:458,,,2018_Jun_05_1236,59.9404996156,MP-Perception Experiment,xx09w23,
5,training(36).mov,False,right,0,dmp_npsi(5)_final(4)_bad.mov,0,4,4,9,,,,,,,,12:38:04:227,12:38:04:977,12:38:07:979,right,12:38:08:246,,,2018_Jun_05_1236,59.9404996156,MP-Perception Experiment,xx09w23,
6,training(2).mov,False,right,0,vgpdm_dyn(30)-lvm(20)_final(9).mov,0,5,5,149,,,,,,,,12:38:09:014,12:38:09:747,12:38:12:748,left,12:38:13:382,,,2018_Jun_05_1236,59.9404996156,MP-Perception Experiment,xx09w23,
7,training(41).mov,True,right,0,vcgpdm_dyn(30)-lvm(20)_final(2).mov,0,6,6,99,,,,,,,,12:38:14:147,12:38:14:883,12:38:17:886,right,12:38:18:953,,,2018_Jun_05_1236,59.9404996156,MP-Perception Experiment,xx09w23,
8,training(11).mov,True,right,0,vgpdm_dyn(5)-lvm(10)_final(5).mov,0,7,7,36,,,,,,,,12:38:19:722,12:38:20:454,12:38:23:459,right,12:38:24:310,,,2018_Jun_05_1236,59.9404996156,MP-Perception Experiment,xx09w23,
9,vgpdm_dyn(30)-lvm(10)_final(5).mov,False,left,0,training(15).mov,0,8,8,103,,,,,,,,12:38:25:071,12:38:25:811,12:38:28:831,left,12:38:29:898,,,2018_Jun_05_1236,59.9404996156,MP-Perception Experiment,xx09w23,
10,vcgpdm_dyn(30)-lvm(20)_final(4).mov,True,left,0,training(27).mov,0,9,9,22,,,,,,,,12:38:30:667,12:38:31:416,12:38:34:418,left,12:38:35:286,,,2018_Jun_05_1236,59.9404996156,MP-Perception Experiment,xx09w23,
11,training(27).mov,False,right,0,vcgpdm_dyn(15)-lvm(20)_final(0).mov,0,10,10,6,,,,,,,,12:38:36:060,12:38:36:787,12:38:39:790,right,12:38:41:592,,,2018_Jun_05_1236,59.9404996156,MP-Perception Experiment,xx09w23,
12,training(39).mov,True,right,0,vgpdm_dyn(35)-lvm(5)_final(4).mov,0,11,11,100,,,,,,,,12:38:42:381,12:38:43:093,12:38:46:112,right,12:38:46:579,,,2018_Jun_05_1236,59.9404996156,MP-Perception Experiment,xx09w23,
13,vgpdm_dyn(30)-lvm(10)_final(8).mov,False,left,0,training(33).mov,0,12,12,140,,,,,,,,12:38:47:338,12:38:48:080,12:38:51:083,left,12:38:51:383,,,2018_Jun_05_1236,59.9404996156,MP-Perception Experiment,xx09w23,
14,training(1).mov,True,right,0,vgpdm_dyn(15)-lvm(35)_final(2).mov,0,13,13,155,,,,,,,,12:38:52:147,12:38:52:884,12:38:55:887,right,12:38:56:555,,,2018_Jun_05_1236,59.9404996156,MP-Perception Experiment,xx09w23,
15,vgpdm_dyn(5)-lvm(20)_final(1).mov,True,left,0,training(21).mov,0,14,14,97,,,,,,,,12:38:57:314,12:38:58:056,12:39:01:075,right,12:39:01:974,,,2018_Jun_05_1236,59.9404996156,MP-Perception Experiment,xx09w23,
16,dmp_npsi(30)_final(5).mov,True,left,0,training(39).mov,0,15,15,69,,,,,,,,12:39:02:738,12:39:03:492,12:39:06:478,left,12:39:06:845,,,2018_Jun_05_1236,59.9404996156,MP-Perception Experiment,xx09w23,
17,training(27).mov,False,right,0,tmp_numprim(4)_final(2).mov,0,16,16,112,,,,,,,,12:39:07:616,12:39:08:346,12:39:11:348,left,12:39:12:032,,,2018_Jun_05_1236,59.9404996156,MP-Perception Experiment,xx09w23,
18,training(11).mov,True,right,0,vcgpdm_dyn(15)-lvm(5)_final(7).mov,0,17,17,158,,,,,,,,12:39:12:789,12:39:13:535,12:39:16:522,right,12:39:17:039,,,2018_Jun_05_1236,59.9404996156,MP-Perception Experiment,xx09w23,
19,vcgpdm_dyn(15)-lvm(30)_final(0).mov,True,left,0,training(6).mov,0,18,18,89,,,,,,,,12:39:17:838,12:39:18:540,12:39:21:559,left,12:39:22:176,,,2018_Jun_05_1236,59.9404996156,MP-Perception Experiment,xx09w23,
20,training(29).mov,False,right,0,dmp_npsi(15)_final(9).mov,0,19,19,137,,,,,,,,12:39:22:965,12:39:23:678,12:39:26:697,right,12:39:27:464,,,2018_Jun_05_1236,59.9404996156,MP-Perception Experiment,xx09w23,
21,training(23).mov,False,right,0,vgpdm_dyn(30)-lvm(25)_final(0).mov,0,20,20,124,,,,,,,,12:39:28:229,12:39:28:965,12:39:31:969,left,12:39:32:386,,,2018_Jun_05_1236,59.9404996156,MP-Perception Experiment,xx09w23,
22,training(5).mov,True,right,0,vgpdm_dyn(10)-lvm(25)_final(3).mov,0,21,21,114,,,,,,,,12:39:33:154,12:39:33:887,12:39:36:906,right,12:39:37:473,,,2018_Jun_05_1236,59.9404996156,MP-Perception Experiment,xx09w23,
23,dmp_npsi(35)_final(9).mov,True,left,0,training(29).mov,0,22,22,136,,,,,,,,12:39:38:227,12:39:38:974,12:39:41:993,right,12:39:42:794,,,2018_Jun_05_1236,59.9404996156,MP-Perception Experiment,xx09w23,
24,training(10).mov,False,right,0,vgpdm_dyn(10)-lvm(25)_final(9).mov,0,23,23,135,,,,,,,,12:39:43:571,12:39:44:295,12:39:47:314,left,12:39:47:715,,,2018_Jun_05_1236,59.9404996156,MP-Perception Experiment,xx09w23,
25,vcgpdm_dyn(20)-lvm(25)_final(5).mov,True,left,0,training(40).mov,0,24,24,146,,,,,,,,12:39:48:475,12:39:49:217,12:39:52:218,left,12:39:52:901,,,2018_Jun_05_1236,59.9404996156,MP-Perception Experiment,xx09w23,
26,training(31).mov,False,right,0,vcgpdm_dyn(5)-lvm(25)_final(9).mov,0,25,25,51,,,,,,,,12:39:53:667,12:39:54:419,12:39:57:405,right,12:39:57:505,,,2018_Jun_05_1236,59.9404996156,MP-Perception Experiment,xx09w23,
27,training(17).mov,True,right,0,tmp_numprim(9)_final(5).mov,0,26,26,46,,,,,,,,12:39:58:282,12:39:59:006,12:40:02:009,left,12:40:02:659,,,2018_Jun_05_1236,59.9404996156,MP-Perception Experiment,xx09w23,
28,training(7).mov,True,right,0,vgpdm_dyn(25)-lvm(20)_final(3).mov,0,27,27,23,,,,,,,,12:40:03:434,12:40:04:162,12:40:07:166,right,12:40:07:916,,,2018_Jun_05_1236,59.9404996156,MP-Perception Experiment,xx09w23,
29,vcgpdm_dyn(25)-lvm(10)_final(0).mov,False,left,0,training(30).mov,0,28,28,109,,,,,,,,12:40:08:683,12:40:09:418,12:40:12:437,right,12:40:13:204,,,2018_Jun_05_1236,59.9404996156,MP-Perception Experiment,xx09w23,
30,tmp_numprim(2)_final(2).mov,False,left,0,training(12).mov,0,29,29,116,,,,,,,,12:40:13:961,12:40:14:705,12:40:17:724,left,12:40:18:442,,,2018_Jun_05_1236,59.9404996156,MP-Perception Experiment,xx09w23,
31,training(30).mov,False,right,0,vgpdm_dyn(30)-lvm(35)_final(0).mov,0,30,30,20,,,,,,,,12:40:19:196,12:40:19:960,12:40:22:945,right,12:40:23:462,,,2018_Jun_05_1236,59.9404996156,MP-Perception Experiment,xx09w23,
32,vcgpdm_dyn(15)-lvm(25)_final(0).mov,True,left,0,training(25).mov,0,31,31,10,,,,,,,,12:40:24:234,12:40:24:964,12:40:27:984,right,12:40:28:651,,,2018_Jun_05_1236,59.9404996156,MP-Perception Experiment,xx09w23,
33,training(35).mov,True,right,0,vcgpdm_dyn(20)-lvm(35)_final(4).mov,0,32,32,21,,,,,,,,12:40:29:417,12:40:30:152,12:40:33:171,right,12:40:33:738,,,2018_Jun_05_1236,59.9404996156,MP-Perception Experiment,xx09w23,
34,vgpdm_dyn(30)-lvm(5)_final(8).mov,False,left,0,training(20).mov,0,33,33,115,,,,,,,,12:40:34:499,12:40:35:239,12:40:38:242,right,12:40:38:926,,,2018_Jun_05_1236,59.9404996156,MP-Perception Experiment,xx09w23,
35,training(3).mov,False,right,0,vcgpdm_dyn(20)-lvm(15)_final(2).mov,0,34,34,2,,,,,,,,12:40:39:682,12:40:40:428,12:40:43:429,right,12:40:44:163,,,2018_Jun_05_1236,59.9404996156,MP-Perception Experiment,xx09w23,
36,training(7).mov,False,right,0,vgpdm_dyn(15)-lvm(30)_final(4).mov,0,35,35,129,,,,,,,,12:40:44:923,12:40:45:664,12:40:48:666,right,12:40:48:766,,,2018_Jun_05_1236,59.9404996156,MP-Perception Experiment,xx09w23,
37,training(4).mov,False,right,0,vcgpdm_dyn(35)-lvm(5)_final(6).mov,0,36,36,151,,,,,,,,12:40:49:548,12:40:50:267,12:40:53:272,right,12:40:53:839,,,2018_Jun_05_1236,59.9404996156,MP-Perception Experiment,xx09w23,
38,vcgpdm_dyn(10)-lvm(10)_final(4).mov,True,left,0,training(16).mov,0,37,37,88,,,,,,,,12:40:54:609,12:40:55:340,12:40:58:359,left,12:40:59:394,,,2018_Jun_05_1236,59.9404996156,MP-Perception Experiment,xx09w23,
39,vgpdm_dyn(5)-lvm(20)_final(8).mov,True,left,0,training(17).mov,0,38,38,74,,,,,,,,12:41:00:160,12:41:00:896,12:41:03:898,left,12:41:04:582,,,2018_Jun_05_1236,59.9404996156,MP-Perception Experiment,xx09w23,
40,vgpdm_dyn(10)-lvm(20)_final(0).mov,True,left,0,training(27).mov,0,39,39,80,,,,,,,,12:41:05:333,12:41:06:083,12:41:09:102,right,12:41:09:636,,,2018_Jun_05_1236,59.9404996156,MP-Perception Experiment,xx09w23,
41,dmp_npsi(30)_final(3).mov,False,left,0,training(30).mov,0,40,40,0,,,,,,,,12:41:10:451,12:41:11:137,12:41:14:140,right,12:41:14:890,,,2018_Jun_05_1236,59.9404996156,MP-Perception Experiment,xx09w23,
42,training(38).mov,True,right,0,vgpdm_dyn(35)-lvm(35)_final(2).mov,0,41,41,63,,,,,,,,12:41:15:660,12:41:16:392,12:41:19:412,left,12:41:20:179,,,2018_Jun_05_1236,59.9404996156,MP-Perception Experiment,xx09w23,
43,vgpdm_dyn(5)-lvm(15)_final(4).mov,True,left,0,training(48).mov,0,42,42,96,,,,,,,,12:41:20:963,12:41:21:697,12:41:24:683,left,12:41:25:083,,,2018_Jun_05_1236,59.9404996156,MP-Perception Experiment,xx09w23,
44,tmp_numprim(10)_final(9).mov,False,left,0,training(35).mov,0,43,43,27,,,,,,,,12:41:25:851,12:41:26:584,12:41:29:586,left,12:41:30:988,,,2018_Jun_05_1236,59.9404996156,MP-Perception Experiment,xx09w23,
45,training(34).mov,True,right,0,vcgpdm_dyn(15)-lvm(10)_final(4).mov,0,44,44,19,,,,,,,,12:41:31:753,12:41:32:503,12:41:35:490,right,12:41:36:091,,,2018_Jun_05_1236,59.9404996156,MP-Perception Experiment,xx09w23,
46,training(4).mov,False,right,0,vcgpdm_dyn(30)-lvm(25)_final(4).mov,0,45,45,123,,,,,,,,12:41:36:855,12:41:37:592,12:41:40:595,right,12:41:40:928,,,2018_Jun_05_1236,59.9404996156,MP-Perception Experiment,xx09w23,
47,vgpdm_dyn(30)-lvm(30)_final(8).mov,False,left,0,training(8).mov,0,46,46,39,,,,,,,,12:41:41:705,12:41:42:429,12:41:45:417,left,12:41:46:167,,,2018_Jun_05_1236,59.9404996156,MP-Perception Experiment,xx09w23,
48,vgpdm_dyn(25)-lvm(35)_final(1).mov,False,left,0,training(8).mov,0,47,47,76,,,,,,,,12:41:46:926,12:41:47:669,12:41:50:688,right,12:41:51:406,,,2018_Jun_05_1236,59.9404996156,MP-Perception Experiment,xx09w23,
49,vgpdm_dyn(35)-lvm(25)_final(9).mov,True,left,0,training(4).mov,0,48,48,82,,,,,,,,12:41:52:159,12:41:52:907,12:41:55:910,left,12:41:56:227,,,2018_Jun_05_1236,59.9404996156,MP-Perception Experiment,xx09w23,
50,tmp_numprim(5)_final(1).mov,True,left,0,training(9).mov,0,49,49,125,,,,,,,,12:41:57:001,12:41:57:728,12:42:00:730,right,12:42:02:999,,,2018_Jun_05_1236,59.9404996156,MP-Perception Experiment,xx09w23,
51,vgpdm_dyn(5)-lvm(10)_final(3).mov,True,left,0,training(33).mov,0,50,50,3,,,,,,,,12:42:03:762,12:42:04:500,12:42:07:519,left,12:42:08:186,,,2018_Jun_05_1236,59.9404996156,MP-Perception Experiment,xx09w23,
52,training(25).mov,True,right,0,dmp_npsi(35)_final(7).mov,0,51,51,42,,,,,,,,12:42:08:953,12:42:09:689,12:42:12:691,right,12:42:14:109,,,2018_Jun_05_1236,59.9404996156,MP-Perception Experiment,xx09w23,
53,vgpdm_dyn(30)-lvm(20)_final(0).mov,True,left,0,training(5).mov,0,52,52,75,,,,,,,,12:42:14:857,12:42:15:610,12:42:18:612,right,12:42:19:697,,,2018_Jun_05_1236,59.9404996156,MP-Perception Experiment,xx09w23,
54,map_cgpdm_final(1).mov,False,left,0,training(5).mov,0,53,53,84,,,,,,,,12:42:20:465,12:42:21:198,12:42:24:198,left,12:42:24:615,,,2018_Jun_05_1236,59.9404996156,MP-Perception Experiment,xx09w23,
55,training(36).mov,False,right,0,vcgpdm_dyn(15)-lvm(10)_final(2).mov,0,54,54,126,,,,,,,,12:42:25:382,12:42:26:117,12:42:29:120,right,12:42:29:687,,,2018_Jun_05_1236,59.9404996156,MP-Perception Experiment,xx09w23,
56,training(11).mov,False,right,0,vcgpdm_dyn(35)-lvm(30)_final(5).mov,0,55,55,43,,,,,,,,12:42:30:458,12:42:31:205,12:42:34:207,right,12:42:34:725,,,2018_Jun_05_1236,59.9404996156,MP-Perception Experiment,xx09w23,
57,vgpdm_dyn(10)-lvm(25)_final(5).mov,False,left,0,training(22).mov,0,56,56,58,,,,,,,,12:42:35:490,12:42:36:227,12:42:39:230,right,12:42:39:947,,,2018_Jun_05_1236,59.9404996156,MP-Perception Experiment,xx09w23,
58,training(27).mov,False,right,0,vcgpdm_dyn(5)-lvm(5)_final(7).mov,0,57,57,35,,,,,,,,12:42:41:273,12:42:41:782,12:42:44:452,right,12:42:44:869,,,2018_Jun_05_1236,59.9404996156,MP-Perception Experiment,xx09w23,
59,training(11).mov,False,right,0,vgpdm_dyn(25)-lvm(30)_final(5).mov,0,58,58,138,,,,,,,,12:42:45:636,12:42:46:370,12:42:49:389,right,12:42:49:756,,,2018_Jun_05_1236,59.9404996156,MP-Perception Experiment,xx09w23,
60,dmp_npsi(35)_final(3).mov,False,left,0,training(32).mov,0,59,59,133,,,,,,,,12:42:50:523,12:42:51:274,12:42:54:276,left,12:42:54:794,,,2018_Jun_05_1236,59.9404996156,MP-Perception Experiment,xx09w23,
61,training(35).mov,False,right,0,vcgpdm_dyn(35)-lvm(30)_final(3).mov,0,60,60,110,,,,,,,,12:42:55:551,12:42:56:311,12:42:59:297,right,12:42:59:831,,,2018_Jun_05_1236,59.9404996156,MP-Perception Experiment,xx09w23,
62,training(23).mov,True,right,0,dmp_npsi(25)_final(4).mov,0,61,61,130,,,,,,,,12:43:00:599,12:43:01:333,12:43:04:352,right,12:43:05:120,,,2018_Jun_05_1236,59.9404996156,MP-Perception Experiment,xx09w23,
63,dmp_npsi(20)_final(9).mov,False,left,0,training(6).mov,0,62,62,32,,,,,,,,12:43:05:868,12:43:06:637,12:43:09:623,right,12:43:10:140,,,2018_Jun_05_1236,59.9404996156,MP-Perception Experiment,xx09w23,
64,vgpdm_dyn(35)-lvm(20)_final(2)_out_of_screen.mov,False,left,0,training(48).mov,0,63,63,148,,,,,,,,12:43:10:893,12:43:11:641,12:43:14:642,left,12:43:14:859,,,2018_Jun_05_1236,59.9404996156,MP-Perception Experiment,xx09w23,
65,vcgpdm_dyn(20)-lvm(10)_final(9).mov,True,left,0,training(17).mov,0,64,64,106,,,,,,,,12:43:15:625,12:43:16:360,12:43:19:364,right,12:43:19:931,,,2018_Jun_05_1236,59.9404996156,MP-Perception Experiment,xx09w23,
66,tmp_numprim(4)_final(7).mov,False,left,0,training(29).mov,0,65,65,98,,,,,,,,12:43:20:698,12:43:21:449,12:43:24:436,left,12:43:25:120,,,2018_Jun_05_1236,59.9404996156,MP-Perception Experiment,xx09w23,
67,training(40).mov,True,right,0,vcgpdm_dyn(5)-lvm(25)_final(9).mov,0,66,66,119,,,,,,,,12:43:25:888,12:43:26:621,12:43:29:624,right,12:43:30:408,,,2018_Jun_05_1236,59.9404996156,MP-Perception Experiment,xx09w23,
68,vcgpdm_dyn(10)-lvm(30)_final(2).mov,False,left,0,training(24).mov,0,67,67,78,,,,,,,,12:43:31:164,12:43:31:925,12:43:34:911,left,12:43:36:012,,,2018_Jun_05_1236,59.9404996156,MP-Perception Experiment,xx09w23,
69,training(38).mov,True,right,0,tmp_numprim(6)_final(2).mov,0,68,68,8,,,,,,,,12:43:36:780,12:43:37:514,12:43:40:533,left,12:43:41:367,,,2018_Jun_05_1236,59.9404996156,MP-Perception Experiment,xx09w23,
70,vcgpdm_dyn(15)-lvm(10)_final(1).mov,False,left,0,training(14).mov,0,69,69,92,,,,,,,,12:43:42:132,12:43:42:869,12:43:45:871,left,12:43:46:689,,,2018_Jun_05_1236,59.9404996156,MP-Perception Experiment,xx09w23,
71,vgpdm_dyn(15)-lvm(10)_final(0)_out_of_screen.mov,False,left,0,training(13).mov,0,70,70,30,,,,,,,,12:43:47:452,12:43:48:206,12:43:51:192,left,12:43:52:477,,,2018_Jun_05_1236,59.9404996156,MP-Perception Experiment,xx09w23,
72,vgpdm_dyn(30)-lvm(5)_final(5).mov,False,left,0,training(30).mov,0,71,71,7,,,,,,,,12:43:53:235,12:43:53:995,12:43:56:981,left,12:43:57:532,,,2018_Jun_05_1236,59.9404996156,MP-Perception Experiment,xx09w23,
73,vcgpdm_dyn(30)-lvm(15)_final(3).mov,True,left,0,training(0).mov,0,72,72,91,,,,,,,,12:43:58:289,12:43:59:049,12:44:02:033,left,12:44:02:784,,,2018_Jun_05_1236,59.9404996156,MP-Perception Experiment,xx09w23,
74,training(14).mov,False,right,0,dmp_npsi(50)_final(2).mov,0,73,73,132,,,,,,,,12:44:03:548,12:44:04:285,12:44:07:288,right,12:44:07:688,,,2018_Jun_05_1236,59.9404996156,MP-Perception Experiment,xx09w23,
75,training(4).mov,False,right,0,vcgpdm_dyn(35)-lvm(10)_final(6).mov,0,74,74,25,,,,,,,,12:44:08:460,12:44:09:189,12:44:12:193,right,12:44:12:594,,,2018_Jun_05_1236,59.9404996156,MP-Perception Experiment,xx09w23,
76,training(33).mov,True,right,0,vgpdm_dyn(5)-lvm(15)_final(8).mov,0,75,75,111,,,,,,,,12:44:13:368,12:44:14:111,12:44:17:098,right,12:44:17:682,,,2018_Jun_05_1236,59.9404996156,MP-Perception Experiment,xx09w23,
77,training(34).mov,True,right,0,vcgpdm_dyn(10)-lvm(35)_final(2).mov,0,76,76,73,,,,,,,,12:44:18:470,12:44:19:200,12:44:22:186,right,12:44:23:036,,,2018_Jun_05_1236,59.9404996156,MP-Perception Experiment,xx09w23,
78,training(2).mov,True,right,0,vcgpdm_dyn(15)-lvm(25)_final(3).mov,0,77,77,79,,,,,,,,12:44:23:799,12:44:24:538,12:44:27:557,right,12:44:28:007,,,2018_Jun_05_1236,59.9404996156,MP-Perception Experiment,xx09w23,
79,vcgpdm_dyn(25)-lvm(5)_final(2).mov,False,left,0,training(16).mov,0,78,78,68,,,,,,,,12:44:28:772,12:44:29:509,12:44:32:528,left,12:44:33:462,,,2018_Jun_05_1236,59.9404996156,MP-Perception Experiment,xx09w23,
80,dmp_npsi(45)_final(4).mov,False,left,0,training(33).mov,0,79,79,85,,,,,,,,12:44:34:229,12:44:34:964,12:44:37:966,right,12:44:38:684,,,2018_Jun_05_1236,59.9404996156,MP-Perception Experiment,xx09w23,
81,vcgpdm_dyn(15)-lvm(20)_final(0).mov,False,left,0,training(0).mov,0,80,80,67,,,,,,,,12:44:39:435,12:44:40:201,12:44:43:204,right,12:44:44:205,,,2018_Jun_05_1236,59.9404996156,MP-Perception Experiment,xx09w23,
82,training(28).mov,False,right,0,vgpdm_dyn(5)-lvm(30)_final(7).mov,0,81,81,87,,,,,,,,12:44:44:971,12:44:45:706,12:44:48:726,right,12:44:49:310,,,2018_Jun_05_1236,59.9404996156,MP-Perception Experiment,xx09w23,
83,vgpdm_dyn(25)-lvm(20)_final(5).mov,True,left,0,training(2).mov,0,82,82,117,,,,,,,,12:44:50:072,12:44:50:811,12:44:53:811,left,12:44:54:312,,,2018_Jun_05_1236,59.9404996156,MP-Perception Experiment,xx09w23,
84,vcgpdm_dyn(20)-lvm(30)_final(6).mov,False,left,0,training(34).mov,0,83,83,12,,,,,,,,12:44:55:063,12:44:55:813,12:44:58:815,left,12:44:59:449,,,2018_Jun_05_1236,59.9404996156,MP-Perception Experiment,xx09w23,
85,vcgpdm_dyn(10)-lvm(10)_final(0).mov,False,left,0,training(36).mov,0,84,84,37,,,,,,,,12:45:00:217,12:45:00:967,12:45:03:973,left,12:45:04:506,,,2018_Jun_05_1236,59.9404996156,MP-Perception Experiment,xx09w23,
86,training(5).mov,False,right,0,dmp_npsi(50)_final(5).mov,0,85,85,52,,,,,,,,12:45:05:272,12:45:06:007,12:45:09:026,right,12:45:09:727,,,2018_Jun_05_1236,59.9404996156,MP-Perception Experiment,xx09w23,
87,vgpdm_dyn(20)-lvm(20)_final(6).mov,True,left,0,training(40).mov,0,86,86,61,,,,,,,,12:45:10:504,12:45:11:228,12:45:14:231,left,12:45:14:981,,,2018_Jun_05_1236,59.9404996156,MP-Perception Experiment,xx09w23,
88,vgpdm_dyn(10)-lvm(30)_final(5).mov,False,left,0,training(29).mov,0,87,87,94,,,,,,,,12:45:15:734,12:45:16:482,12:45:19:502,left,12:45:20:186,,,2018_Jun_05_1236,59.9404996156,MP-Perception Experiment,xx09w23,
89,vcgpdm_dyn(20)-lvm(5)_final(8).mov,False,left,0,training(14).mov,0,88,88,141,,,,,,,,12:45:20:946,12:45:21:688,12:45:24:690,left,12:45:25:674,,,2018_Jun_05_1236,59.9404996156,MP-Perception Experiment,xx09w23,
90,vgpdm_dyn(20)-lvm(35)_final(8).mov,True,left,0,training(19).mov,0,89,89,154,,,,,,,,12:45:26:426,12:45:27:176,12:45:30:178,left,12:45:30:862,,,2018_Jun_05_1236,59.9404996156,MP-Perception Experiment,xx09w23,
91,tmp_numprim(8)_final(4).mov,False,left,0,training(2).mov,0,90,90,77,,,,,,,,12:45:31:627,12:45:32:363,12:45:35:366,right,12:45:35:966,,,2018_Jun_05_1236,59.9404996156,MP-Perception Experiment,xx09w23,
92,training(17).mov,False,right,0,vcgpdm_dyn(35)-lvm(5)_final(8).mov,0,91,91,11,,,,,,,,12:45:36:730,12:45:37:484,12:45:40:471,right,12:45:41:121,,,2018_Jun_05_1236,59.9404996156,MP-Perception Experiment,xx09w23,
93,training(19).mov,False,right,0,vgpdm_dyn(10)-lvm(30)_final(3).mov,0,92,92,152,,,,,,,,12:45:41:880,12:45:42:637,12:45:45:623,right,12:45:46:157,,,2018_Jun_05_1236,59.9404996156,MP-Perception Experiment,xx09w23,
94,vcgpdm_dyn(30)-lvm(25)_final(4).mov,True,left,0,training(23).mov,0,93,93,62,,,,,,,,12:45:46:913,12:45:47:658,12:45:50:660,left,12:45:51:194,,,2018_Jun_05_1236,59.9404996156,MP-Perception Experiment,xx09w23,
95,vcgpdm_dyn(10)-lvm(5)_final(4).mov,True,left,0,training(16).mov,0,94,94,38,,,,,,,,12:45:51:952,12:45:52:698,12:45:55:700,left,12:45:56:401,,,2018_Jun_05_1236,59.9404996156,MP-Perception Experiment,xx09w23,
96,training(48).mov,False,right,0,vcgpdm_dyn(15)-lvm(5)_final(5).mov,0,95,95,50,,,,,,,,12:45:57:165,12:45:57:902,12:46:00:922,right,12:46:01:605,,,2018_Jun_05_1236,59.9404996156,MP-Perception Experiment,xx09w23,
97,vgpdm_dyn(5)-lvm(15)_final(8).mov,False,left,0,training(33).mov,0,96,96,71,,,,,,,,12:46:02:363,12:46:03:106,12:46:06:126,left,12:46:06:676,,,2018_Jun_05_1236,59.9404996156,MP-Perception Experiment,xx09w23,
98,training(31).mov,True,right,0,vgpdm_dyn(25)-lvm(30)_final(6).mov,0,97,97,14,,,,,,,,12:46:07:434,12:46:08:195,12:46:11:180,right,12:46:11:780,,,2018_Jun_05_1236,59.9404996156,MP-Perception Experiment,xx09w23,
99,vgpdm_dyn(25)-lvm(35)_final(8).mov,False,left,0,training(5).mov,0,98,98,121,,,,,,,,12:46:12:552,12:46:13:281,12:46:16:285,right,12:46:17:569,,,2018_Jun_05_1236,59.9404996156,MP-Perception Experiment,xx09w23,
100,training(23).mov,True,right,0,vcgpdm_dyn(15)-lvm(10)_final(2).mov,0,99,99,47,,,,,,,,12:46:18:357,12:46:19:070,12:46:22:090,right,12:46:22:657,,,2018_Jun_05_1236,59.9404996156,MP-Perception Experiment,xx09w23,
101,vcgpdm_dyn(5)-lvm(10)_final(6).mov,True,left,0,training(26).mov,0,100,100,57,,,,,,,,12:46:23:427,12:46:24:158,12:46:27:177,left,12:46:27:744,,,2018_Jun_05_1236,59.9404996156,MP-Perception Experiment,xx09w23,
102,training(5).mov,False,right,0,vgpdm_dyn(25)-lvm(30)_final(2).mov,0,101,101,128,,,,,,,,12:46:28:512,12:46:29:262,12:46:32:247,left,12:46:32:931,,,2018_Jun_05_1236,59.9404996156,MP-Perception Experiment,xx09w23,
103,dmp_npsi(45)_final(0).mov,False,left,0,training(27).mov,0,102,102,44,,,,,,,,12:46:33:700,12:46:34:432,12:46:37:434,right,12:46:37:985,,,2018_Jun_05_1236,59.9404996156,MP-Perception Experiment,xx09w23,
104,vcgpdm_dyn(30)-lvm(25)_final(9).mov,True,left,0,training(36).mov,0,103,103,1,,,,,,,,12:46:38:750,12:46:39:486,12:46:42:489,left,12:46:43:072,,,2018_Jun_05_1236,59.9404996156,MP-Perception Experiment,xx09w23,
105,training(16).mov,False,right,0,vcgpdm_dyn(30)-lvm(35)_final(7).mov,0,104,104,90,,,,,,,,12:46:43:824,12:46:44:573,12:46:47:561,left,12:46:48:480,,,2018_Jun_05_1236,59.9404996156,MP-Perception Experiment,xx09w23,
106,training(14).mov,False,right,0,vcgpdm_dyn(35)-lvm(20)_final(6).mov,0,105,105,64,,,,,,,,12:46:49:248,12:46:49:997,12:46:52:983,right,12:46:53:600,,,2018_Jun_05_1236,59.9404996156,MP-Perception Experiment,xx09w23,
107,training(1).mov,True,right,0,map_gpdm_final(8).mov,0,106,106,70,,,,,,,,12:46:54:360,12:46:55:101,12:46:58:104,right,12:46:58:571,,,2018_Jun_05_1236,59.9404996156,MP-Perception Experiment,xx09w23,
108,tmp_numprim(5)_final(4).mov,True,left,0,training(9).mov,0,107,107,45,,,,,,,,12:46:59:314,12:47:00:072,12:47:03:092,right,12:47:03:859,,,2018_Jun_05_1236,59.9404996156,MP-Perception Experiment,xx09w23,
109,training(10).mov,False,right,0,vcgpdm_dyn(10)-lvm(5)_final(2).mov,0,108,108,81,,,,,,,,12:47:04:629,12:47:05:360,12:47:08:380,right,12:47:10:048,,,2018_Jun_05_1236,59.9404996156,MP-Perception Experiment,xx09w23,
110,vcgpdm_dyn(5)-lvm(20)_final(5).mov,True,left,0,training(29).mov,0,109,109,122,,,,,,,,12:47:10:797,12:47:11:549,12:47:14:568,left,12:47:15:102,,,2018_Jun_05_1236,59.9404996156,MP-Perception Experiment,xx09w23,
111,training(10).mov,False,right,0,tmp_numprim(2)_final(0).mov,0,110,110,144,,,,,,,,12:47:15:864,12:47:16:603,12:47:19:606,right,12:47:20:640,,,2018_Jun_05_1236,59.9404996156,MP-Perception Experiment,xx09w23,
112,training(2).mov,True,right,0,vgpdm_dyn(5)-lvm(20)_final(3).mov,0,111,111,139,,,,,,,,12:47:21:405,12:47:22:156,12:47:25:143,right,12:47:25:693,,,2018_Jun_05_1236,59.9404996156,MP-Perception Experiment,xx09w23,
113,vcgpdm_dyn(30)-lvm(30)_final(1).mov,True,left,0,training(8).mov,0,112,112,102,,,,,,,,12:47:26:465,12:47:27:211,12:47:30:197,left,12:47:30:480,,,2018_Jun_05_1236,59.9404996156,MP-Perception Experiment,xx09w23,
114,training(26).mov,True,right,0,vcgpdm_dyn(20)-lvm(30)_final(3).mov,0,113,113,105,,,,,,,,12:47:31:243,12:47:31:981,12:47:34:986,right,12:47:35:486,,,2018_Jun_05_1236,59.9404996156,MP-Perception Experiment,xx09w23,
115,vcgpdm_dyn(5)-lvm(5)_final(8).mov,True,left,0,training(33).mov,0,114,114,104,,,,,,,,12:47:36:256,12:47:37:004,12:47:39:990,right,12:47:41:058,,,2018_Jun_05_1236,59.9404996156,MP-Perception Experiment,xx09w23,
116,training(12).mov,True,right,0,vcgpdm_dyn(10)-lvm(30)_final(1).mov,0,115,115,24,,,,,,,,12:47:41:811,12:47:42:559,12:47:45:579,right,12:47:46:279,,,2018_Jun_05_1236,59.9404996156,MP-Perception Experiment,xx09w23,
117,vgpdm_dyn(35)-lvm(25)_final(6).mov,False,left,0,training(24).mov,0,116,116,156,,,,,,,,12:47:47:044,12:47:47:780,12:47:50:800,left,12:47:51:650,,,2018_Jun_05_1236,59.9404996156,MP-Perception Experiment,xx09w23,
118,map_cgpdm_final(8).mov,True,left,0,training(33).mov,0,117,117,142,,,,,,,,12:47:52:434,12:47:53:151,12:47:56:154,left,12:47:56:871,,,2018_Jun_05_1236,59.9404996156,MP-Perception Experiment,xx09w23,
119,dmp_npsi(40)_final(9).mov,False,left,0,training(24).mov,0,118,118,107,,,,,,,,12:47:57:628,12:47:58:372,12:48:01:376,left,12:48:02:143,,,2018_Jun_05_1236,59.9404996156,MP-Perception Experiment,xx09w23,
120,training(28).mov,True,right,0,vcgpdm_dyn(15)-lvm(30)_final(4).mov,0,119,119,157,,,,,,,,12:48:02:896,12:48:03:644,12:48:06:663,right,12:48:07:497,,,2018_Jun_05_1236,59.9404996156,MP-Perception Experiment,xx09w23,
121,training(10).mov,True,right,0,vgpdm_dyn(5)-lvm(30)_final(5).mov,0,120,120,40,,,,,,,,12:48:08:281,12:48:08:998,12:48:12:016,right,12:48:12:500,,,2018_Jun_05_1236,59.9404996156,MP-Perception Experiment,xx09w23,
122,training(1).mov,False,right,0,vgpdm_dyn(20)-lvm(25)_final(8).mov,0,121,121,108,,,,,,,,12:48:13:258,12:48:14:001,12:48:17:004,right,12:48:17:555,,,2018_Jun_05_1236,59.9404996156,MP-Perception Experiment,xx09w23,
123,vgpdm_dyn(15)-lvm(15)_final(1).mov,True,left,0,training(34).mov,0,122,122,13,,,,,,,,12:48:18:327,12:48:19:073,12:48:22:058,left,12:48:22:692,,,2018_Jun_05_1236,59.9404996156,MP-Perception Experiment,xx09w23,
124,training(29).mov,True,right,0,vcgpdm_dyn(10)-lvm(5)_final(7).mov,0,123,123,60,,,,,,,,12:48:23:471,12:48:24:195,12:48:27:181,left,12:48:27:865,,,2018_Jun_05_1236,59.9404996156,MP-Perception Experiment,xx09w23,
125,vgpdm_dyn(20)-lvm(5)_final(6).mov,False,left,0,training(35).mov,0,124,124,41,,,,,,,,12:48:28:634,12:48:29:382,12:48:32:369,right,12:48:33:186,,,2018_Jun_05_1236,59.9404996156,MP-Perception Experiment,xx09w23,
126,vgpdm_dyn(25)-lvm(5)_final(1).mov,False,left,0,training(20).mov,0,125,125,48,,,,,,,,12:48:33:949,12:48:34:688,12:48:37:691,right,12:48:38:257,,,2018_Jun_05_1236,59.9404996156,MP-Perception Experiment,xx09w23,
127,training(19).mov,True,right,0,dmp_npsi(15)_final(8).mov,0,126,126,28,,,,,,,,12:48:39:019,12:48:39:759,12:48:42:778,right,12:48:43:695,,,2018_Jun_05_1236,59.9404996156,MP-Perception Experiment,xx09w23,
128,vcgpdm_dyn(20)-lvm(10)_final(7).mov,False,left,0,training(11).mov,0,127,127,53,,,,,,,,12:48:44:466,12:48:45:196,12:48:48:216,right,12:48:49:200,,,2018_Jun_05_1236,59.9404996156,MP-Perception Experiment,xx09w23,
129,tmp_numprim(9)_final(4).mov,False,left,0,training(19).mov,0,128,128,59,,,,,,,,12:48:49:973,12:48:50:717,12:48:53:721,left,12:48:54:338,,,2018_Jun_05_1236,59.9404996156,MP-Perception Experiment,xx09w23,
130,vcgpdm_dyn(20)-lvm(5)_final(8).mov,True,left,0,training(40).mov,0,129,129,65,,,,,,,,12:48:55:100,12:48:55:839,12:48:58:859,left,12:48:59:626,,,2018_Jun_05_1236,59.9404996156,MP-Perception Experiment,xx09w23,
131,training(11).mov,False,right,0,vcgpdm_dyn(25)-lvm(10)_final(0).mov,0,130,130,29,,,,,,,,12:49:00:399,12:49:01:127,12:49:04:128,right,12:49:04:678,,,2018_Jun_05_1236,59.9404996156,MP-Perception Experiment,xx09w23,
132,training(0).mov,False,right,0,vgpdm_dyn(10)-lvm(20)_final(7).mov,0,131,131,118,,,,,,,,12:49:05:429,12:49:06:179,12:49:09:183,right,12:49:09:399,,,2018_Jun_05_1236,59.9404996156,MP-Perception Experiment,xx09w23,
133,tmp_numprim(5)_final(7).mov,True,left,0,training(26).mov,0,132,132,49,,,,,,,,12:49:10:168,12:49:10:901,12:49:13:903,left,12:49:14:255,,,2018_Jun_05_1236,59.9404996156,MP-Perception Experiment,xx09w23,
134,vgpdm_dyn(25)-lvm(15)_final(1)_out_of_screen.mov,True,left,0,training(10).mov,0,133,133,113,,,,,,,,12:49:15:008,12:49:15:756,12:49:18:759,left,12:49:19:643,,,2018_Jun_05_1236,59.9404996156,MP-Perception Experiment,xx09w23,
135,vcgpdm_dyn(25)-lvm(5)_final(3).mov,True,left,0,training(25).mov,0,134,134,150,,,,,,,,12:49:20:419,12:49:21:144,12:49:24:147,left,12:49:24:897,,,2018_Jun_05_1236,59.9404996156,MP-Perception Experiment,xx09w23,
136,vcgpdm_dyn(15)-lvm(35)_final(9).mov,True,left,0,training(1).mov,0,135,135,101,,,,,,,,12:49:25:660,12:49:26:416,12:49:29:402,left,12:49:30:086,,,2018_Jun_05_1236,59.9404996156,MP-Perception Experiment,xx09w23,
137,tmp_numprim(8)_final(0).mov,False,left,0,training(17).mov,0,136,136,34,,,,,,,,12:49:30:844,12:49:31:587,12:49:34:589,right,12:49:35:123,,,2018_Jun_05_1236,59.9404996156,MP-Perception Experiment,xx09w23,
138,training(48).mov,True,right,0,vcgpdm_dyn(5)-lvm(25)_final(3).mov,0,137,137,120,,,,,,,,12:49:35:894,12:49:36:624,12:49:39:644,right,12:49:40:961,,,2018_Jun_05_1236,59.9404996156,MP-Perception Experiment,xx09w23,
139,training(31).mov,False,right,0,vcgpdm_dyn(20)-lvm(25)_final(5).mov,0,138,138,18,,,,,,,,12:49:41:712,12:49:42:462,12:49:45:483,right,12:49:45:966,,,2018_Jun_05_1236,59.9404996156,MP-Perception Experiment,xx09w23,
140,training(2).mov,False,right,0,vcgpdm_dyn(35)-lvm(25)_final(5).mov,0,139,139,127,,,,,,,,12:49:46:733,12:49:47:467,12:49:50:487,right,12:49:50:903,,,2018_Jun_05_1236,59.9404996156,MP-Perception Experiment,xx09w23,
141,training(16).mov,False,right,0,tmp_numprim(8)_final(5).mov,0,140,140,55,,,,,,,,12:49:51:663,12:49:52:419,12:49:55:405,right,12:49:55:639,,,2018_Jun_05_1236,59.9404996156,MP-Perception Experiment,xx09w23,
142,training(19).mov,False,right,0,vgpdm_dyn(35)-lvm(10)_final(2).mov,0,141,141,93,,,,,,,,12:49:56:410,12:49:57:140,12:50:00:143,right,12:50:00:593,,,2018_Jun_05_1236,59.9404996156,MP-Perception Experiment,xx09w23,
143,vcgpdm_dyn(15)-lvm(5)_final(2).mov,True,left,0,training(33).mov,0,142,142,72,,,,,,,,12:50:01:349,12:50:02:095,12:50:05:099,left,12:50:05:583,,,2018_Jun_05_1236,59.9404996156,MP-Perception Experiment,xx09w23,
144,vcgpdm_dyn(5)-lvm(30)_final(7)_bad.mov,True,left,0,training(3).mov,0,143,143,56,,,,,,,,12:50:06:346,12:50:07:101,12:50:10:087,left,12:50:10:854,,,2018_Jun_05_1236,59.9404996156,MP-Perception Experiment,xx09w23,
145,map_gpdm_final(0).mov,True,left,0,training(29).mov,0,144,144,143,,,,,,,,12:50:11:632,12:50:12:355,12:50:15:374,left,12:50:16:158,,,2018_Jun_05_1236,59.9404996156,MP-Perception Experiment,xx09w23,
146,vcgpdm_dyn(35)-lvm(5)_final(7).mov,False,left,0,training(14).mov,0,145,145,31,,,,,,,,12:50:16:923,12:50:17:659,12:50:20:663,right,12:50:21:697,,,2018_Jun_05_1236,59.9404996156,MP-Perception Experiment,xx09w23,
147,training(10).mov,False,right,0,vcgpdm_dyn(25)-lvm(30)_final(0).mov,0,146,146,131,,,,,,,,12:50:22:465,12:50:23:198,12:50:26:201,right,12:50:27:235,,,2018_Jun_05_1236,59.9404996156,MP-Perception Experiment,xx09w23,
148,vcgpdm_dyn(30)-lvm(35)_final(6).mov,True,left,0,training(26).mov,0,147,147,86,,,,,,,,12:50:27:997,12:50:28:736,12:50:31:739,right,12:50:32:356,,,2018_Jun_05_1236,59.9404996156,MP-Perception Experiment,xx09w23,
149,training(6).mov,False,right,0,vgpdm_dyn(20)-lvm(5)_final(1).mov,0,148,148,153,,,,,,,,12:50:33:102,12:50:33:857,12:50:36:877,left,12:50:37:261,,,2018_Jun_05_1236,59.9404996156,MP-Perception Experiment,xx09w23,
150,vcgpdm_dyn(30)-lvm(5)_final(7).mov,True,left,0,training(22).mov,0,149,149,95,,,,,,,,12:50:38:026,12:50:38:762,12:50:41:781,right,12:50:42:213,,,2018_Jun_05_1236,59.9404996156,MP-Perception Experiment,xx09w23,
151,training(8).mov,True,right,0,dmp_npsi(35)_final(6).mov,0,150,150,5,,,,,,,,12:50:42:967,12:50:43:714,12:50:46:717,right,12:50:47:067,,,2018_Jun_05_1236,59.9404996156,MP-Perception Experiment,xx09w23,
152,vcgpdm_dyn(15)-lvm(30)_final(5).mov,False,left,0,training(34).mov,0,151,151,145,,,,,,,,12:50:47:815,12:50:48:568,12:50:51:587,right,12:50:52:087,,,2018_Jun_05_1236,59.9404996156,MP-Perception Experiment,xx09w23,
153,vcgpdm_dyn(15)-lvm(20)_final(2).mov,True,left,0,training(40).mov,0,152,152,66,,,,,,,,12:50:52:848,12:50:53:590,12:50:56:577,left,12:50:57:228,,,2018_Jun_05_1236,59.9404996156,MP-Perception Experiment,xx09w23,
154,vcgpdm_dyn(25)-lvm(5)_final(9).mov,True,left,0,training(32).mov,0,153,153,33,,,,,,,,12:50:58:008,12:50:58:745,12:51:01:731,right,12:51:02:348,,,2018_Jun_05_1236,59.9404996156,MP-Perception Experiment,xx09w23,
155,tmp_numprim(3)_final(3).mov,False,left,0,training(4).mov,0,154,154,83,,,,,,,,12:51:03:112,12:51:03:850,12:51:06:869,left,12:51:07:386,,,2018_Jun_05_1236,59.9404996156,MP-Perception Experiment,xx09w23,
156,training(9).mov,False,right,0,vgpdm_dyn(30)-lvm(20)_final(9).mov,0,155,155,17,,,,,,,,12:51:08:134,12:51:08:904,12:51:11:891,right,12:51:12:324,,,2018_Jun_05_1236,59.9404996156,MP-Perception Experiment,xx09w23,
157,training(41).mov,False,right,0,vcgpdm_dyn(20)-lvm(35)_final(2).mov,0,156,156,134,,,,,,,,12:51:13:083,12:51:13:825,12:51:16:828,right,12:51:17:428,,,2018_Jun_05_1236,59.9404996156,MP-Perception Experiment,xx09w23,
158,vcgpdm_dyn(5)-lvm(25)_final(9).mov,True,left,0,training(31).mov,0,157,157,26,,,,,,,,12:51:18:232,12:51:18:929,12:51:21:949,left,12:51:22:482,,,2018_Jun_05_1236,59.9404996156,MP-Perception Experiment,xx09w23,
159,vcgpdm_dyn(30)-lvm(5)_final(6).mov,True,left,0,training(24).mov,0,158,158,16,,,,,,,,12:51:23:235,12:51:23:983,12:51:26:986,left,12:51:27:436,,,2018_Jun_05_1236,59.9404996156,MP-Perception Experiment,xx09w23,
160,vgpdm_dyn(35)-lvm(5)_final(0).mov,True,left,1,training(6).mov,0,0,0,97,,,,,,,,12:53:21:611,12:53:22:351,12:53:25:355,left,12:53:26:073,,,2018_Jun_05_1236,59.9404996156,MP-Perception Experiment,xx09w23,
161,vgpdm_dyn(35)-lvm(35)_final(7).mov,False,left,1,training(3).mov,0,1,1,106,,,,,,,,12:53:26:832,12:53:27:590,12:53:30:576,left,12:53:31:195,,,2018_Jun_05_1236,59.9404996156,MP-Perception Experiment,xx09w23,
162,training(1).mov,False,right,1,tmp_numprim(3)_final(5).mov,0,2,2,31,,,,,,,,12:53:31:935,12:53:32:712,12:53:35:698,right,12:53:36:398,,,2018_Jun_05_1236,59.9404996156,MP-Perception Experiment,xx09w23,
163,training(11).mov,True,right,1,vgpdm_dyn(10)-lvm(30)_final(3).mov,0,3,3,115,,,,,,,,12:53:37:152,12:53:37:900,12:53:40:919,right,12:53:41:619,,,2018_Jun_05_1236,59.9404996156,MP-Perception Experiment,xx09w23,
164,training(26).mov,True,right,1,tmp_numprim(9)_final(8).mov,0,4,4,62,,,,,,,,12:53:42:385,12:53:43:120,12:53:46:140,right,12:53:46:690,,,2018_Jun_05_1236,59.9404996156,MP-Perception Experiment,xx09w23,
165,vcgpdm_dyn(15)-lvm(15)_final(0).mov,False,left,1,training(30).mov,0,5,5,49,,,,,,,,12:53:47:458,12:53:48:209,12:53:51:196,right,12:53:51:695,,,2018_Jun_05_1236,59.9404996156,MP-Perception Experiment,xx09w23,
166,tmp_numprim(3)_final(6).mov,True,left,1,training(11).mov,0,6,6,150,,,,,,,,12:53:52:460,12:53:53:213,12:53:56:199,left,12:53:56:733,,,2018_Jun_05_1236,59.9404996156,MP-Perception Experiment,xx09w23,
167,dmp_npsi(45)_final(8).mov,True,left,1,training(9).mov,0,7,7,46,,,,,,,,12:53:57:498,12:53:58:234,12:54:01:253,left,12:54:02:703,,,2018_Jun_05_1236,59.9404996156,MP-Perception Experiment,xx09w23,
168,training(9).mov,True,right,1,vcgpdm_dyn(15)-lvm(15)_final(0).mov,0,8,8,19,,,,,,,,12:54:03:457,12:54:04:203,12:54:07:207,right,12:54:07:741,,,2018_Jun_05_1236,59.9404996156,MP-Perception Experiment,xx09w23,
169,training(3).mov,False,right,1,vcgpdm_dyn(20)-lvm(15)_final(6).mov,0,9,9,53,,,,,,,,12:54:08:533,12:54:09:259,12:54:12:244,left,12:54:12:795,,,2018_Jun_05_1236,59.9404996156,MP-Perception Experiment,xx09w23,
170,vgpdm_dyn(30)-lvm(30)_final(1).mov,True,left,1,training(33).mov,0,10,10,152,,,,,,,,12:54:13:539,12:54:14:298,12:54:17:283,left,12:54:18:134,,,2018_Jun_05_1236,59.9404996156,MP-Perception Experiment,xx09w23,
171,vcgpdm_dyn(30)-lvm(20)_final(7).mov,False,left,1,training(16).mov,0,11,11,98,,,,,,,,12:54:18:886,12:54:19:652,12:54:22:655,left,12:54:23:539,,,2018_Jun_05_1236,59.9404996156,MP-Perception Experiment,xx09w23,
172,training(19).mov,False,right,1,vgpdm_dyn(10)-lvm(25)_final(7).mov,0,12,12,105,,,,,,,,12:54:24:301,12:54:25:041,12:54:28:060,left,12:54:28:527,,,2018_Jun_05_1236,59.9404996156,MP-Perception Experiment,xx09w23,
173,vgpdm_dyn(10)-lvm(35)_final(2).mov,False,left,1,training(16).mov,0,13,13,136,,,,,,,,12:54:29:279,12:54:30:028,12:54:33:031,left,12:54:33:898,,,2018_Jun_05_1236,59.9404996156,MP-Perception Experiment,xx09w23,
174,map_gpdm_final(5).mov,False,left,1,training(48).mov,0,14,14,54,,,,,,,,12:54:34:659,12:54:35:399,12:54:38:418,left,12:54:38:919,,,2018_Jun_05_1236,59.9404996156,MP-Perception Experiment,xx09w23,
175,training(15).mov,False,right,1,dmp_npsi(25)_final(1).mov,0,15,15,103,,,,,,,,12:54:39:675,12:54:40:420,12:54:43:440,left,12:54:44:040,,,2018_Jun_05_1236,59.9404996156,MP-Perception Experiment,xx09w23,
176,vgpdm_dyn(35)-lvm(10)_final(6).mov,True,left,1,training(6).mov,0,16,16,6,,,,,,,,12:54:44:803,12:54:45:558,12:54:48:561,right,12:54:49:111,,,2018_Jun_05_1236,59.9404996156,MP-Perception Experiment,xx09w23,
177,vcgpdm_dyn(15)-lvm(15)_final(2).mov,True,left,1,training(1).mov,0,17,17,5,,,,,,,,12:54:49:861,12:54:50:612,12:54:53:613,left,12:54:53:997,,,2018_Jun_05_1236,59.9404996156,MP-Perception Experiment,xx09w23,
178,training(39).mov,True,right,1,vgpdm_dyn(15)-lvm(25)_final(5).mov,0,18,18,94,,,,,,,,12:54:54:755,12:54:55:498,12:54:58:501,left,12:54:58:702,,,2018_Jun_05_1236,59.9404996156,MP-Perception Experiment,xx09w23,
179,vcgpdm_dyn(20)-lvm(5)_final(6).mov,True,left,1,training(3).mov,0,19,19,36,,,,,,,,12:54:59:478,12:55:00:203,12:55:03:205,left,12:55:03:339,,,2018_Jun_05_1236,59.9404996156,MP-Perception Experiment,xx09w23,
180,training(4).mov,True,right,1,vgpdm_dyn(25)-lvm(30)_final(3).mov,0,20,20,120,,,,,,,,12:55:04:110,12:55:04:841,12:55:07:844,right,12:55:09:529,,,2018_Jun_05_1236,59.9404996156,MP-Perception Experiment,xx09w23,
181,vgpdm_dyn(20)-lvm(35)_final(3).mov,False,left,1,training(25).mov,0,21,21,147,,,,,,,,12:55:10:281,12:55:11:030,12:55:14:032,left,12:55:14:916,,,2018_Jun_05_1236,59.9404996156,MP-Perception Experiment,xx09w23,
182,training(32).mov,True,right,1,vgpdm_dyn(20)-lvm(5)_final(7).mov,0,22,22,125,,,,,,,,12:55:15:674,12:55:16:418,12:55:19:421,left,12:55:19:805,,,2018_Jun_05_1236,59.9404996156,MP-Perception Experiment,xx09w23,
183,training(11).mov,True,right,1,vgpdm_dyn(10)-lvm(5)_final(2).mov,0,23,23,91,,,,,,,,12:55:20:560,12:55:21:322,12:55:24:308,right,12:55:24:659,,,2018_Jun_05_1236,59.9404996156,MP-Perception Experiment,xx09w23,
184,vgpdm_dyn(5)-lvm(10)_final(8).mov,False,left,1,training(31).mov,0,24,24,42,,,,,,,,12:55:25:423,12:55:26:176,12:55:29:179,left,12:55:29:546,,,2018_Jun_05_1236,59.9404996156,MP-Perception Experiment,xx09w23,
185,training(24).mov,False,right,1,vcgpdm_dyn(35)-lvm(25)_final(1).mov,0,25,25,84,,,,,,,,12:55:30:337,12:55:31:047,12:55:34:068,right,12:55:34:418,,,2018_Jun_05_1236,59.9404996156,MP-Perception Experiment,xx09w23,
186,training(24).mov,True,right,1,map_cgpdm_final(7).mov,0,26,26,71,,,,,,,,12:55:35:143,12:55:35:935,12:55:38:921,right,12:55:39:455,,,2018_Jun_05_1236,59.9404996156,MP-Perception Experiment,xx09w23,
187,vgpdm_dyn(25)-lvm(5)_final(5).mov,False,left,1,training(39).mov,0,27,27,104,,,,,,,,12:55:41:144,12:55:41:144,12:55:43:957,left,12:55:44:674,,,2018_Jun_05_1236,59.9404996156,MP-Perception Experiment,xx09w23,
188,training(41).mov,True,right,1,tmp_numprim(10)_final(1).mov,0,28,28,29,,,,,,,,12:55:45:429,12:55:46:175,12:55:49:178,right,12:55:49:711,,,2018_Jun_05_1236,59.9404996156,MP-Perception Experiment,xx09w23,
189,training(48).mov,False,right,1,vcgpdm_dyn(30)-lvm(5)_final(4).mov,0,29,29,146,,,,,,,,12:55:50:475,12:55:51:214,12:55:54:201,left,12:55:54:852,,,2018_Jun_05_1236,59.9404996156,MP-Perception Experiment,xx09w23,
190,vgpdm_dyn(20)-lvm(15)_final(2).mov,True,left,1,training(15).mov,0,30,30,124,,,,,,,,12:55:55:603,12:55:56:353,12:55:59:372,left,12:56:00:256,,,2018_Jun_05_1236,59.9404996156,MP-Perception Experiment,xx09w23,
191,vgpdm_dyn(30)-lvm(25)_final(1).mov,True,left,1,training(20).mov,0,31,31,4,,,,,,,,12:56:01:016,12:56:01:757,12:56:04:760,left,12:56:05:560,,,2018_Jun_05_1236,59.9404996156,MP-Perception Experiment,xx09w23,
192,vgpdm_dyn(35)-lvm(10)_final(6).mov,False,left,1,training(13).mov,0,32,32,111,,,,,,,,12:56:06:329,12:56:07:061,12:56:10:082,right,12:56:10:732,,,2018_Jun_05_1236,59.9404996156,MP-Perception Experiment,xx09w23,
193,vcgpdm_dyn(35)-lvm(5)_final(4).mov,False,left,1,training(25).mov,0,33,33,118,,,,,,,,12:56:11:491,12:56:12:233,12:56:15:236,right,12:56:15:686,,,2018_Jun_05_1236,59.9404996156,MP-Perception Experiment,xx09w23,
194,training(15).mov,False,right,1,tmp_numprim(7)_final(2).mov,0,34,34,153,,,,,,,,12:56:16:460,12:56:17:187,12:56:20:206,right,12:56:20:674,,,2018_Jun_05_1236,59.9404996156,MP-Perception Experiment,xx09w23,
195,vgpdm_dyn(35)-lvm(5)_final(4).mov,False,left,1,training(11).mov,0,35,35,59,,,,,,,,12:56:21:425,12:56:22:174,12:56:25:194,right,12:56:26:046,,,2018_Jun_05_1236,59.9404996156,MP-Perception Experiment,xx09w23,
196,dmp_npsi(15)_final(9).mov,False,left,1,training(19).mov,0,36,36,129,,,,,,,,12:56:26:798,12:56:27:547,12:56:30:566,left,12:56:31:133,,,2018_Jun_05_1236,59.9404996156,MP-Perception Experiment,xx09w23,
197,training(10).mov,False,right,1,dmp_npsi(45)_final(8).mov,0,37,37,156,,,,,,,,12:56:31:872,12:56:32:649,12:56:35:635,right,12:56:36:152,,,2018_Jun_05_1236,59.9404996156,MP-Perception Experiment,xx09w23,
198,training(26).mov,False,right,1,vgpdm_dyn(30)-lvm(35)_final(4).mov,0,38,38,148,,,,,,,,12:56:36:916,12:56:37:653,12:56:40:655,left,12:56:41:106,,,2018_Jun_05_1236,59.9404996156,MP-Perception Experiment,xx09w23,
199,dmp_npsi(50)_final(5).mov,False,left,1,training(21).mov,0,39,39,143,,,,,,,,12:56:41:867,12:56:42:607,12:56:45:596,left,12:56:46:129,,,2018_Jun_05_1236,59.9404996156,MP-Perception Experiment,xx09w23,
200,tmp_numprim(4)_final(2).mov,True,left,1,training(32).mov,0,40,40,35,,,,,,,,12:56:46:885,12:56:47:630,12:56:50:633,left,12:56:51:217,,,2018_Jun_05_1236,59.9404996156,MP-Perception Experiment,xx09w23,
201,vcgpdm_dyn(30)-lvm(30)_final(6).mov,False,left,1,training(5).mov,0,41,41,101,,,,,,,,12:56:51:969,12:56:52:718,12:56:55:737,left,12:56:56:254,,,2018_Jun_05_1236,59.9404996156,MP-Perception Experiment,xx09w23,
202,training(15).mov,True,right,1,vcgpdm_dyn(20)-lvm(5)_final(9).mov,0,42,42,137,,,,,,,,12:56:57:012,12:56:57:755,12:57:00:776,right,12:57:01:209,,,2018_Jun_05_1236,59.9404996156,MP-Perception Experiment,xx09w23,
203,training(26).mov,False,right,1,vgpdm_dyn(10)-lvm(20)_final(7).mov,0,43,43,65,,,,,,,,12:57:01:961,12:57:02:710,12:57:05:713,left,12:57:06:313,,,2018_Jun_05_1236,59.9404996156,MP-Perception Experiment,xx09w23,
204,training(38).mov,True,right,1,vcgpdm_dyn(25)-lvm(10)_final(1).mov,0,44,44,154,,,,,,,,12:57:07:085,12:57:07:814,12:57:10:834,right,12:57:11:418,,,2018_Jun_05_1236,59.9404996156,MP-Perception Experiment,xx09w23,
205,vcgpdm_dyn(5)-lvm(10)_final(1).mov,False,left,1,training(1).mov,0,45,45,134,,,,,,,,12:57:12:182,12:57:12:918,12:57:15:921,left,12:57:16:355,,,2018_Jun_05_1236,59.9404996156,MP-Perception Experiment,xx09w23,
206,training(35).mov,True,right,1,tmp_numprim(4)_final(9).mov,0,46,46,2,,,,,,,,12:57:17:116,12:57:17:873,12:57:20:860,right,12:57:21:376,,,2018_Jun_05_1236,59.9404996156,MP-Perception Experiment,xx09w23,
207,dmp_npsi(20)_final(0).mov,True,left,1,training(12).mov,0,47,47,50,,,,,,,,12:57:22:148,12:57:22:892,12:57:25:878,left,12:57:26:345,,,2018_Jun_05_1236,59.9404996156,MP-Perception Experiment,xx09w23,
208,training(31).mov,True,right,1,vgpdm_dyn(20)-lvm(30)_final(0).mov,0,48,48,79,,,,,,,,12:57:27:096,12:57:27:846,12:57:30:849,left,12:57:32:584,,,2018_Jun_05_1236,59.9404996156,MP-Perception Experiment,xx09w23,
209,training(13).mov,True,right,1,vcgpdm_dyn(5)-lvm(15)_final(9).mov,0,49,49,51,,,,,,,,12:57:33:354,12:57:34:087,12:57:37:090,right,12:57:37:524,,,2018_Jun_05_1236,59.9404996156,MP-Perception Experiment,xx09w23,
210,vcgpdm_dyn(30)-lvm(25)_final(1).mov,False,left,1,training(48).mov,0,50,50,96,,,,,,,,12:57:38:296,12:57:39:025,12:57:42:044,right,12:57:42:411,,,2018_Jun_05_1236,59.9404996156,MP-Perception Experiment,xx09w23,
211,vcgpdm_dyn(25)-lvm(10)_final(4).mov,True,left,1,training(21).mov,0,51,51,142,,,,,,,,12:57:43:169,12:57:43:929,12:57:46:932,right,12:57:47:665,,,2018_Jun_05_1236,59.9404996156,MP-Perception Experiment,xx09w23,
212,vgpdm_dyn(30)-lvm(15)_final(7).mov,False,left,1,training(17).mov,0,52,52,48,,,,,,,,12:57:48:442,12:57:49:166,12:57:52:186,left,12:57:52:653,,,2018_Jun_05_1236,59.9404996156,MP-Perception Experiment,xx09w23,
213,training(2).mov,True,right,1,vgpdm_dyn(20)-lvm(15)_final(2).mov,0,53,53,32,,,,,,,,12:57:53:416,12:57:54:155,12:57:57:158,right,12:57:57:658,,,2018_Jun_05_1236,59.9404996156,MP-Perception Experiment,xx09w23,
214,vcgpdm_dyn(10)-lvm(25)_final(2).mov,True,left,1,training(25).mov,0,54,54,109,,,,,,,,12:57:58:447,12:57:59:159,12:58:02:162,left,12:58:02:795,,,2018_Jun_05_1236,59.9404996156,MP-Perception Experiment,xx09w23,
215,tmp_numprim(4)_final(6).mov,True,left,1,training(25).mov,0,55,55,70,,,,,,,,12:58:03:564,12:58:04:296,12:58:07:316,left,12:58:08:016,,,2018_Jun_05_1236,59.9404996156,MP-Perception Experiment,xx09w23,
216,training(0).mov,True,right,1,vgpdm_dyn(35)-lvm(35)_final(2).mov,0,56,56,92,,,,,,,,12:58:08:776,12:58:09:517,12:58:12:521,left,12:58:13:203,,,2018_Jun_05_1236,59.9404996156,MP-Perception Experiment,xx09w23,
217,training(20).mov,False,right,1,vcgpdm_dyn(30)-lvm(15)_final(2).mov,0,57,57,135,,,,,,,,12:58:13:967,12:58:14:704,12:58:17:706,right,12:58:18:141,,,2018_Jun_05_1236,59.9404996156,MP-Perception Experiment,xx09w23,
218,training(14).mov,True,right,1,vgpdm_dyn(10)-lvm(10)_final(3).mov,0,58,58,116,,,,,,,,12:58:18:904,12:58:19:658,12:58:22:644,left,12:58:23:128,,,2018_Jun_05_1236,59.9404996156,MP-Perception Experiment,xx09w23,
219,vcgpdm_dyn(10)-lvm(20)_final(1).mov,False,left,1,training(48).mov,0,59,59,60,,,,,,,,12:58:23:882,12:58:24:631,12:58:27:617,left,12:58:28:251,,,2018_Jun_05_1236,59.9404996156,MP-Perception Experiment,xx09w23,
220,training(0).mov,True,right,1,vgpdm_dyn(10)-lvm(10)_final(6).mov,0,60,60,73,,,,,,,,12:58:29:011,12:58:29:752,12:58:32:772,right,12:58:33:389,,,2018_Jun_05_1236,59.9404996156,MP-Perception Experiment,xx09w23,
221,training(23).mov,True,right,1,dmp_npsi(50)_final(3).mov,0,61,61,33,,,,,,,,12:58:34:144,12:58:34:890,12:58:37:892,left,12:58:38:610,,,2018_Jun_05_1236,59.9404996156,MP-Perception Experiment,xx09w23,
222,vcgpdm_dyn(35)-lvm(25)_final(0).mov,False,left,1,training(29).mov,0,62,62,7,,,,,,,,12:58:39:395,12:58:40:127,12:58:43:147,left,12:58:43:914,,,2018_Jun_05_1236,59.9404996156,MP-Perception Experiment,xx09w23,
223,vcgpdm_dyn(5)-lvm(20)_final(6).mov,False,left,1,training(22).mov,0,63,63,21,,,,,,,,12:58:44:676,12:58:45:433,12:58:48:435,left,12:58:49:036,,,2018_Jun_05_1236,59.9404996156,MP-Perception Experiment,xx09w23,
224,vcgpdm_dyn(15)-lvm(30)_final(4).mov,True,left,1,training(21).mov,0,64,64,127,,,,,,,,12:58:49:786,12:58:50:537,12:58:53:556,right,12:58:54:323,,,2018_Jun_05_1236,59.9404996156,MP-Perception Experiment,xx09w23,
225,training(34).mov,True,right,1,vcgpdm_dyn(15)-lvm(35)_final(0).mov,0,65,65,95,,,,,,,,12:58:55:085,12:58:55:824,12:58:58:844,right,12:58:59:477,,,2018_Jun_05_1236,59.9404996156,MP-Perception Experiment,xx09w23,
226,vgpdm_dyn(10)-lvm(20)_final(7).mov,False,left,1,training(29).mov,0,66,66,114,,,,,,,,12:59:00:233,12:59:00:978,12:59:03:980,right,12:59:04:447,,,2018_Jun_05_1236,59.9404996156,MP-Perception Experiment,xx09w23,
227,vcgpdm_dyn(10)-lvm(30)_final(8).mov,False,left,1,training(3).mov,0,67,67,23,,,,,,,,12:59:05:202,12:59:05:948,12:59:08:951,left,12:59:09:451,,,2018_Jun_05_1236,59.9404996156,MP-Perception Experiment,xx09w23,
228,vcgpdm_dyn(5)-lvm(5)_final(1).mov,True,left,1,training(6).mov,0,68,68,93,,,,,,,,12:59:10:213,12:59:10:953,12:59:13:955,left,12:59:14:474,,,2018_Jun_05_1236,59.9404996156,MP-Perception Experiment,xx09w23,
229,training(7).mov,True,right,1,tmp_numprim(5)_final(6).mov,0,69,69,24,,,,,,,,12:59:15:246,12:59:15:975,12:59:18:978,right,12:59:19:861,,,2018_Jun_05_1236,59.9404996156,MP-Perception Experiment,xx09w23,
230,training(36).mov,True,right,1,vgpdm_dyn(15)-lvm(5)_final(7).mov,0,70,70,123,,,,,,,,12:59:20:630,12:59:21:364,12:59:24:366,right,12:59:24:900,,,2018_Jun_05_1236,59.9404996156,MP-Perception Experiment,xx09w23,
231,vgpdm_dyn(35)-lvm(5)_final(6).mov,True,left,1,training(9).mov,0,71,71,45,,,,,,,,12:59:25:665,12:59:26:401,12:59:29:420,right,12:59:29:854,,,2018_Jun_05_1236,59.9404996156,MP-Perception Experiment,xx09w23,
232,vcgpdm_dyn(20)-lvm(30)_final(2).mov,False,left,1,training(20).mov,0,72,72,55,,,,,,,,12:59:30:613,12:59:31:355,12:59:34:374,left,12:59:34:825,,,2018_Jun_05_1236,59.9404996156,MP-Perception Experiment,xx09w23,
233,vcgpdm_dyn(25)-lvm(10)_final(6).mov,False,left,1,training(40).mov,0,73,73,69,,,,,,,,12:59:35:587,12:59:36:326,12:59:39:346,left,12:59:39:796,,,2018_Jun_05_1236,59.9404996156,MP-Perception Experiment,xx09w23,
234,vgpdm_dyn(30)-lvm(15)_final(0).mov,False,left,1,training(31).mov,0,74,74,8,,,,,,,,12:59:41:284,12:59:41:297,12:59:44:300,left,12:59:44:900,,,2018_Jun_05_1236,59.9404996156,MP-Perception Experiment,xx09w23,
235,training(33).mov,True,right,1,vcgpdm_dyn(20)-lvm(20)_final(2).mov,0,75,75,47,,,,,,,,12:59:45:669,12:59:46:401,12:59:49:421,right,12:59:49:854,,,2018_Jun_05_1236,59.9404996156,MP-Perception Experiment,xx09w23,
236,training(29).mov,False,right,1,vcgpdm_dyn(10)-lvm(30)_final(3).mov,0,76,76,15,,,,,,,,12:59:50:618,12:59:51:355,12:59:54:356,right,12:59:54:690,,,2018_Jun_05_1236,59.9404996156,MP-Perception Experiment,xx09w23,
237,vcgpdm_dyn(25)-lvm(25)_final(9).mov,False,left,1,training(5).mov,0,77,77,102,,,,,,,,12:59:55:451,12:59:56:192,12:59:59:194,right,12:59:59:561,,,2018_Jun_05_1236,59.9404996156,MP-Perception Experiment,xx09w23,
238,vcgpdm_dyn(25)-lvm(20)_final(4).mov,False,left,1,training(35).mov,0,78,78,139,,,,,,,,13:00:00:357,13:00:01:079,13:00:04:084,left,13:00:04:200,,,2018_Jun_05_1236,59.9404996156,MP-Perception Experiment,xx09w23,
239,training(37).mov,True,right,1,tmp_numprim(10)_final(2).mov,0,79,79,13,,,,,,,,13:00:04:981,13:00:05:718,13:00:08:704,left,13:00:09:188,,,2018_Jun_05_1236,59.9404996156,MP-Perception Experiment,xx09w23,
240,training(4).mov,False,right,1,dmp_npsi(35)_final(3).mov,0,80,80,26,,,,,,,,13:00:09:934,13:00:10:689,13:00:13:709,left,13:00:14:326,,,2018_Jun_05_1236,59.9404996156,MP-Perception Experiment,xx09w23,
241,vgpdm_dyn(35)-lvm(30)_final(2).mov,True,left,1,training(31).mov,0,81,81,14,,,,,,,,13:00:15:097,13:00:15:827,13:00:18:830,right,13:00:19:147,,,2018_Jun_05_1236,59.9404996156,MP-Perception Experiment,xx09w23,
242,vcgpdm_dyn(10)-lvm(20)_final(9).mov,False,left,1,training(38).mov,0,82,82,1,,,,,,,,13:00:19:895,13:00:20:648,13:00:23:650,left,13:00:24:084,,,2018_Jun_05_1236,59.9404996156,MP-Perception Experiment,xx09w23,
243,vcgpdm_dyn(20)-lvm(35)_final(0).mov,False,left,1,training(24).mov,0,83,83,144,,,,,,,,13:00:24:840,13:00:25:585,13:00:28:605,right,13:00:29:021,,,2018_Jun_05_1236,59.9404996156,MP-Perception Experiment,xx09w23,
244,training(28).mov,False,right,1,vgpdm_dyn(25)-lvm(30)_final(3).mov,0,84,84,9,,,,,,,,13:00:29:784,13:00:30:523,13:00:33:526,right,13:00:33:977,,,2018_Jun_05_1236,59.9404996156,MP-Perception Experiment,xx09w23,
245,training(34).mov,False,right,1,vgpdm_dyn(5)-lvm(10)_final(6).mov,0,85,85,155,,,,,,,,13:00:34:735,13:00:35:477,13:00:38:497,right,13:00:38:864,,,2018_Jun_05_1236,59.9404996156,MP-Perception Experiment,xx09w23,
246,training(33).mov,False,right,1,vcgpdm_dyn(15)-lvm(20)_final(7).mov,0,86,86,89,,,,,,,,13:00:39:643,13:00:40:365,13:00:43:365,right,13:00:43:749,,,2018_Jun_05_1236,59.9404996156,MP-Perception Experiment,xx09w23,
247,vcgpdm_dyn(30)-lvm(25)_final(1).mov,False,left,1,training(19).mov,0,87,87,113,,,,,,,,13:00:44:504,13:00:45:250,13:00:48:254,left,13:00:48:521,,,2018_Jun_05_1236,59.9404996156,MP-Perception Experiment,xx09w23,
248,tmp_numprim(8)_final(8).mov,False,left,1,training(39).mov,0,88,88,76,,,,,,,,13:00:49:296,13:00:50:022,13:00:53:024,left,13:00:53:408,,,2018_Jun_05_1236,59.9404996156,MP-Perception Experiment,xx09w23,
249,training(37).mov,True,right,1,map_cgpdm_final(3).mov,0,89,89,39,,,,,,,,13:00:54:184,13:00:54:911,13:00:57:897,right,13:00:58:464,,,2018_Jun_05_1236,59.9404996156,MP-Perception Experiment,xx09w23,
250,vcgpdm_dyn(10)-lvm(35)_final(7).mov,False,left,1,training(2).mov,0,90,90,99,,,,,,,,13:00:59:230,13:00:59:965,13:01:02:967,left,13:01:03:451,,,2018_Jun_05_1236,59.9404996156,MP-Perception Experiment,xx09w23,
251,training(33).mov,False,right,1,vcgpdm_dyn(10)-lvm(15)_final(2).mov,0,91,91,90,,,,,,,,13:01:04:214,13:01:04:952,13:01:07:973,right,13:01:08:707,,,2018_Jun_05_1236,59.9404996156,MP-Perception Experiment,xx09w23,
252,vgpdm_dyn(20)-lvm(30)_final(0).mov,False,left,1,training(9).mov,0,92,92,112,,,,,,,,13:01:09:458,13:01:10:207,13:01:13:210,right,13:01:13:977,,,2018_Jun_05_1236,59.9404996156,MP-Perception Experiment,xx09w23,
253,training(40).mov,False,right,1,vcgpdm_dyn(35)-lvm(30)_final(2).mov,0,93,93,80,,,,,,,,13:01:14:738,13:01:15:495,13:01:18:481,right,13:01:18:931,,,2018_Jun_05_1236,59.9404996156,MP-Perception Experiment,xx09w23,
254,vgpdm_dyn(35)-lvm(5)_final(9).mov,False,left,1,training(27).mov,0,94,94,100,,,,,,,,13:01:19:692,13:01:20:432,13:01:23:436,right,13:01:24:036,,,2018_Jun_05_1236,59.9404996156,MP-Perception Experiment,xx09w23,
255,training(11).mov,True,right,1,vcgpdm_dyn(35)-lvm(35)_final(1)_bad.mov,0,95,95,121,,,,,,,,13:01:24:815,13:01:25:537,13:01:28:540,right,13:01:29:291,,,2018_Jun_05_1236,59.9404996156,MP-Perception Experiment,xx09w23,
256,training(20).mov,False,right,1,dmp_npsi(20)_final(6).mov,0,96,96,117,,,,,,,,13:01:30:067,13:01:30:792,13:01:33:792,right,13:01:34:460,,,2018_Jun_05_1236,59.9404996156,MP-Perception Experiment,xx09w23,
257,vgpdm_dyn(15)-lvm(5)_final(6).mov,True,left,1,training(13).mov,0,97,97,27,,,,,,,,13:01:35:215,13:01:35:961,13:01:38:963,left,13:01:39:897,,,2018_Jun_05_1236,59.9404996156,MP-Perception Experiment,xx09w23,
258,vgpdm_dyn(10)-lvm(15)_final(6).mov,True,left,1,training(13).mov,0,98,98,88,,,,,,,,13:01:41:350,13:01:41:867,13:01:44:387,right,13:01:44:804,,,2018_Jun_05_1236,59.9404996156,MP-Perception Experiment,xx09w23,
259,vcgpdm_dyn(35)-lvm(10)_final(1).mov,True,left,1,training(16).mov,0,99,99,83,,,,,,,,13:01:45:566,13:01:46:305,13:01:49:325,left,13:01:49:842,,,2018_Jun_05_1236,59.9404996156,MP-Perception Experiment,xx09w23,
260,training(17).mov,False,right,1,dmp_npsi(25)_final(9).mov,0,100,100,74,,,,,,,,13:01:50:603,13:01:51:343,13:01:54:345,right,13:01:54:846,,,2018_Jun_05_1236,59.9404996156,MP-Perception Experiment,xx09w23,
261,vgpdm_dyn(20)-lvm(25)_final(2).mov,True,left,1,training(5).mov,0,101,101,12,,,,,,,,13:01:55:615,13:01:56:347,13:01:59:350,right,13:01:59:951,,,2018_Jun_05_1236,59.9404996156,MP-Perception Experiment,xx09w23,
262,training(39).mov,False,right,1,vcgpdm_dyn(15)-lvm(15)_final(2).mov,0,102,102,75,,,,,,,,13:02:00:702,13:02:01:452,13:02:04:471,right,13:02:04:888,,,2018_Jun_05_1236,59.9404996156,MP-Perception Experiment,xx09w23,
263,vgpdm_dyn(35)-lvm(10)_final(1).mov,False,left,1,training(37).mov,0,103,103,63,,,,,,,,13:02:05:652,13:02:06:389,13:02:09:409,right,13:02:10:442,,,2018_Jun_05_1236,59.9404996156,MP-Perception Experiment,xx09w23,
264,vgpdm_dyn(15)-lvm(30)_final(3).mov,True,left,1,training(26).mov,0,104,104,119,,,,,,,,13:02:11:203,13:02:11:943,13:02:14:963,left,13:02:15:397,,,2018_Jun_05_1236,59.9404996156,MP-Perception Experiment,xx09w23,
265,vcgpdm_dyn(35)-lvm(20)_final(2).mov,False,left,1,training(19).mov,0,105,105,30,,,,,,,,13:02:16:179,13:02:16:899,13:02:19:918,right,13:02:20:252,,,2018_Jun_05_1236,59.9404996156,MP-Perception Experiment,xx09w23,
266,vgpdm_dyn(15)-lvm(20)_final(4)_out_of_screen.mov,False,left,1,training(6).mov,0,106,106,3,,,,,,,,13:02:21:004,13:02:21:752,13:02:24:753,left,13:02:25:254,,,2018_Jun_05_1236,59.9404996156,MP-Perception Experiment,xx09w23,
267,tmp_numprim(3)_final(2).mov,False,left,1,training(14).mov,0,107,107,140,,,,,,,,13:02:26:012,13:02:26:755,13:02:29:757,left,13:02:30:308,,,2018_Jun_05_1236,59.9404996156,MP-Perception Experiment,xx09w23,
268,vcgpdm_dyn(25)-lvm(15)_final(2).mov,True,left,1,training(23).mov,0,108,108,16,,,,,,,,13:02:31:068,13:02:31:826,13:02:34:814,right,13:02:35:465,,,2018_Jun_05_1236,59.9404996156,MP-Perception Experiment,xx09w23,
269,training(39).mov,True,right,1,vcgpdm_dyn(25)-lvm(20)_final(7).mov,0,109,109,130,,,,,,,,13:02:36:239,13:02:36:966,13:02:39:985,right,13:02:40:619,,,2018_Jun_05_1236,59.9404996156,MP-Perception Experiment,xx09w23,
270,training(22).mov,True,right,1,vcgpdm_dyn(5)-lvm(15)_final(4).mov,0,110,110,86,,,,,,,,13:02:41:372,13:02:42:137,13:02:45:139,left,13:02:45:523,,,2018_Jun_05_1236,59.9404996156,MP-Perception Experiment,xx09w23,
271,training(19).mov,False,right,1,vgpdm_dyn(5)-lvm(10)_final(6).mov,0,111,111,44,,,,,,,,13:02:46:276,13:02:47:024,13:02:50:027,right,13:02:50:578,,,2018_Jun_05_1236,59.9404996156,MP-Perception Experiment,xx09w23,
272,vgpdm_dyn(10)-lvm(5)_final(4).mov,False,left,1,training(4).mov,0,112,112,43,,,,,,,,13:02:51:368,13:02:52:079,13:02:55:098,right,13:02:55:298,,,2018_Jun_05_1236,59.9404996156,MP-Perception Experiment,xx09w23,
273,vcgpdm_dyn(30)-lvm(10)_final(4).mov,False,left,1,training(38).mov,0,113,113,126,,,,,,,,13:02:56:071,13:02:56:799,13:02:59:819,right,13:03:00:336,,,2018_Jun_05_1236,59.9404996156,MP-Perception Experiment,xx09w23,
274,training(28).mov,False,right,1,vcgpdm_dyn(30)-lvm(10)_final(6).mov,0,114,114,66,,,,,,,,13:03:01:095,13:03:01:837,13:03:04:839,left,13:03:05:373,,,2018_Jun_05_1236,59.9404996156,MP-Perception Experiment,xx09w23,
275,vgpdm_dyn(10)-lvm(10)_final(2).mov,True,left,1,training(14).mov,0,115,115,0,,,,,,,,13:03:06:128,13:03:06:874,13:03:09:878,right,13:03:10:161,,,2018_Jun_05_1236,59.9404996156,MP-Perception Experiment,xx09w23,
276,vgpdm_dyn(20)-lvm(5)_final(9).mov,False,left,1,training(26).mov,0,116,116,28,,,,,,,,13:03:10:925,13:03:11:679,13:03:14:680,right,13:03:14:713,,,2018_Jun_05_1236,59.9404996156,MP-Perception Experiment,xx09w23,
277,vgpdm_dyn(5)-lvm(35)_final(9)_bad.mov,False,left,1,training(28).mov,0,117,117,72,,,,,,,,13:03:15:480,13:03:16:214,13:03:19:217,left,13:03:19:968,,,2018_Jun_05_1236,59.9404996156,MP-Perception Experiment,xx09w23,
278,training(11).mov,False,right,1,vgpdm_dyn(15)-lvm(25)_final(9).mov,0,118,118,11,,,,,,,,13:03:20:728,13:03:21:469,13:03:24:456,right,13:03:25:108,,,2018_Jun_05_1236,59.9404996156,MP-Perception Experiment,xx09w23,
279,training(32).mov,True,right,1,vgpdm_dyn(15)-lvm(25)_final(4).mov,0,119,119,81,,,,,,,,13:03:25:866,13:03:26:609,13:03:29:628,right,13:03:30:262,,,2018_Jun_05_1236,59.9404996156,MP-Perception Experiment,xx09w23,
280,vgpdm_dyn(30)-lvm(30)_final(5).mov,False,left,1,training(20).mov,0,120,120,17,,,,,,,,13:03:31:034,13:03:31:763,13:03:34:766,right,13:03:35:283,,,2018_Jun_05_1236,59.9404996156,MP-Perception Experiment,xx09w23,
281,training(25).mov,False,right,1,vcgpdm_dyn(10)-lvm(35)_final(6).mov,0,121,121,82,,,,,,,,13:03:36:034,13:03:36:784,13:03:39:786,right,13:03:40:270,,,2018_Jun_05_1236,59.9404996156,MP-Perception Experiment,xx09w23,
282,training(0).mov,False,right,1,vgpdm_dyn(15)-lvm(35)_final(7).mov,0,122,122,56,,,,,,,,13:03:41:372,13:03:41:888,13:03:44:775,right,13:03:44:958,,,2018_Jun_05_1236,59.9404996156,MP-Perception Experiment,xx09w23,
283,vcgpdm_dyn(30)-lvm(35)_final(5).mov,True,left,1,training(32).mov,0,123,123,10,,,,,,,,13:03:45:733,13:03:46:459,13:03:49:462,right,13:03:49:795,,,2018_Jun_05_1236,59.9404996156,MP-Perception Experiment,xx09w23,
284,vcgpdm_dyn(30)-lvm(10)_final(4).mov,True,left,1,training(13).mov,0,124,124,18,,,,,,,,13:03:50:550,13:03:51:296,13:03:54:316,left,13:03:54:766,,,2018_Jun_05_1236,59.9404996156,MP-Perception Experiment,xx09w23,
285,training(23).mov,False,right,1,dmp_npsi(30)_final(4).mov,0,125,125,78,,,,,,,,13:03:55:530,13:03:56:267,13:03:59:270,right,13:03:59:803,,,2018_Jun_05_1236,59.9404996156,MP-Perception Experiment,xx09w23,
286,vgpdm_dyn(5)-lvm(20)_final(0).mov,False,left,1,training(14).mov,0,126,126,77,,,,,,,,13:04:00:583,13:04:01:322,13:04:04:306,left,13:04:04:723,,,2018_Jun_05_1236,59.9404996156,MP-Perception Experiment,xx09w23,
287,training(38).mov,False,right,1,vgpdm_dyn(10)-lvm(10)_final(2).mov,0,127,127,68,,,,,,,,13:04:05:481,13:04:06:241,13:04:09:227,right,13:04:09:661,,,2018_Jun_05_1236,59.9404996156,MP-Perception Experiment,xx09w23,
288,vgpdm_dyn(10)-lvm(15)_final(3).mov,False,left,1,training(21).mov,0,128,128,149,,,,,,,,13:04:10:414,13:04:11:162,13:04:14:166,left,13:04:14:566,,,2018_Jun_05_1236,59.9404996156,MP-Perception Experiment,xx09w23,
289,vcgpdm_dyn(5)-lvm(10)_final(3).mov,True,left,1,training(11).mov,0,129,129,122,,,,,,,,13:04:15:332,13:04:16:067,13:04:19:088,left,13:04:19:738,,,2018_Jun_05_1236,59.9404996156,MP-Perception Experiment,xx09w23,
290,dmp_npsi(15)_final(6).mov,False,left,1,training(17).mov,0,130,130,110,,,,,,,,13:04:20:494,13:04:21:239,13:04:24:259,left,13:04:24:659,,,2018_Jun_05_1236,59.9404996156,MP-Perception Experiment,xx09w23,
291,training(2).mov,False,right,1,vcgpdm_dyn(25)-lvm(25)_final(2).mov,0,131,131,133,,,,,,,,13:04:25:419,13:04:26:161,13:04:29:163,right,13:04:29:246,,,2018_Jun_05_1236,59.9404996156,MP-Perception Experiment,xx09w23,
292,vgpdm_dyn(10)-lvm(35)_final(7).mov,False,left,1,training(25).mov,0,132,132,85,,,,,,,,13:04:30:009,13:04:30:747,13:04:33:750,left,13:04:34:167,,,2018_Jun_05_1236,59.9404996156,MP-Perception Experiment,xx09w23,
293,vgpdm_dyn(30)-lvm(35)_final(8).mov,True,left,1,training(25).mov,0,133,133,138,,,,,,,,13:04:34:934,13:04:35:669,13:04:38:688,left,13:04:39:038,,,2018_Jun_05_1236,59.9404996156,MP-Perception Experiment,xx09w23,
294,training(29).mov,False,right,1,vgpdm_dyn(15)-lvm(15)_final(1).mov,0,134,134,61,,,,,,,,13:04:39:802,13:04:40:556,13:04:43:542,right,13:04:44:142,,,2018_Jun_05_1236,59.9404996156,MP-Perception Experiment,xx09w23,
295,training(11).mov,True,right,1,vgpdm_dyn(5)-lvm(30)_final(6).mov,0,135,135,34,,,,,,,,13:04:44:898,13:04:45:643,13:04:48:646,right,13:04:49:146,,,2018_Jun_05_1236,59.9404996156,MP-Perception Experiment,xx09w23,
296,training(26).mov,False,right,1,vcgpdm_dyn(5)-lvm(20)_final(8).mov,0,136,136,64,,,,,,,,13:04:49:891,13:04:50:647,13:04:53:649,right,13:04:54:133,,,2018_Jun_05_1236,59.9404996156,MP-Perception Experiment,xx09w23,
297,training(28).mov,True,right,1,tmp_numprim(7)_final(8).mov,0,137,137,108,,,,,,,,13:04:54:877,13:04:55:634,13:04:58:636,left,13:04:58:970,,,2018_Jun_05_1236,59.9404996156,MP-Perception Experiment,xx09w23,
298,training(23).mov,False,right,1,vcgpdm_dyn(35)-lvm(30)_final(6).mov,0,138,138,145,,,,,,,,13:04:59:730,13:05:00:471,13:05:03:490,right,13:05:04:176,,,2018_Jun_05_1236,59.9404996156,MP-Perception Experiment,xx09w23,
299,training(26).mov,False,right,1,vcgpdm_dyn(30)-lvm(15)_final(6).mov,0,139,139,40,,,,,,,,13:05:04:941,13:05:05:677,13:05:08:696,right,13:05:09:230,,,2018_Jun_05_1236,59.9404996156,MP-Perception Experiment,xx09w23,
300,vgpdm_dyn(35)-lvm(30)_final(9).mov,True,left,1,training(36).mov,0,140,140,57,,,,,,,,13:05:09:982,13:05:10:732,13:05:13:752,left,13:05:15:053,,,2018_Jun_05_1236,59.9404996156,MP-Perception Experiment,xx09w23,
301,training(40).mov,False,right,1,vgpdm_dyn(25)-lvm(5)_final(3).mov,0,141,141,25,,,,,,,,13:05:15:827,13:05:16:554,13:05:19:556,left,13:05:20:040,,,2018_Jun_05_1236,59.9404996156,MP-Perception Experiment,xx09w23,
302,training(23).mov,True,right,1,vcgpdm_dyn(35)-lvm(30)_final(3).mov,0,142,142,87,,,,,,,,13:05:20:802,13:05:21:558,13:05:24:560,right,13:05:25:027,,,2018_Jun_05_1236,59.9404996156,MP-Perception Experiment,xx09w23,
303,vgpdm_dyn(5)-lvm(15)_final(3).mov,False,left,1,training(25).mov,0,143,143,37,,,,,,,,13:05:25:782,13:05:26:528,13:05:29:549,left,13:05:30:032,,,2018_Jun_05_1236,59.9404996156,MP-Perception Experiment,xx09w23,
304,vgpdm_dyn(10)-lvm(15)_final(5).mov,False,left,1,training(15).mov,0,144,144,107,,,,,,,,13:05:30:802,13:05:31:533,13:05:34:553,right,13:05:35:070,,,2018_Jun_05_1236,59.9404996156,MP-Perception Experiment,xx09w23,
305,vgpdm_dyn(5)-lvm(30)_final(6).mov,True,left,1,training(14).mov,0,145,145,58,,,,,,,,13:05:35:824,13:05:36:571,13:05:39:573,left,13:05:40:107,,,2018_Jun_05_1236,59.9404996156,MP-Perception Experiment,xx09w23,
306,vgpdm_dyn(15)-lvm(35)_final(1).mov,False,left,1,training(8).mov,0,146,146,22,,,,,,,,13:05:41:400,13:05:41:908,13:05:44:609,right,13:05:44:876,,,2018_Jun_05_1236,59.9404996156,MP-Perception Experiment,xx09w23,
307,training(4).mov,False,right,1,vgpdm_dyn(35)-lvm(10)_final(9).mov,0,147,147,38,,,,,,,,13:05:45:642,13:05:46:378,13:05:49:380,left,13:05:49:431,,,2018_Jun_05_1236,59.9404996156,MP-Perception Experiment,xx09w23,
308,training(48).mov,False,right,1,vcgpdm_dyn(5)-lvm(25)_final(6).mov,0,148,148,131,,,,,,,,13:05:50:212,13:05:50:932,13:05:53:934,right,13:05:54:254,,,2018_Jun_05_1236,59.9404996156,MP-Perception Experiment,xx09w23,
309,training(18).mov,True,right,1,vgpdm_dyn(10)-lvm(20)_final(7).mov,0,149,149,128,,,,,,,,13:05:55:022,13:05:55:754,13:05:58:773,right,13:05:59:257,,,2018_Jun_05_1236,59.9404996156,MP-Perception Experiment,xx09w23,
310,training(14).mov,False,right,1,vcgpdm_dyn(25)-lvm(15)_final(0).mov,0,150,150,158,,,,,,,,13:06:00:008,13:06:00:758,13:06:03:762,right,13:06:04:178,,,2018_Jun_05_1236,59.9404996156,MP-Perception Experiment,xx09w23,
311,training(21).mov,False,right,1,map_cgpdm_final(5).mov,0,151,151,151,,,,,,,,13:06:04:925,13:06:05:680,13:06:08:699,right,13:06:09:416,,,2018_Jun_05_1236,59.9404996156,MP-Perception Experiment,xx09w23,
312,training(1).mov,True,right,1,vcgpdm_dyn(15)-lvm(25)_final(0).mov,0,152,152,52,,,,,,,,13:06:10:181,13:06:10:917,13:06:13:920,right,13:06:14:403,,,2018_Jun_05_1236,59.9404996156,MP-Perception Experiment,xx09w23,
313,training(34).mov,False,right,1,vgpdm_dyn(30)-lvm(35)_final(9).mov,0,153,153,132,,,,,,,,13:06:15:154,13:06:15:921,13:06:18:907,right,13:06:19:291,,,2018_Jun_05_1236,59.9404996156,MP-Perception Experiment,xx09w23,
314,training(25).mov,True,right,1,tmp_numprim(8)_final(1).mov,0,154,154,41,,,,,,,,13:06:20:058,13:06:20:793,13:06:23:795,right,13:06:24:196,,,2018_Jun_05_1236,59.9404996156,MP-Perception Experiment,xx09w23,
315,training(7).mov,False,right,1,dmp_npsi(30)_final(7).mov,0,155,155,67,,,,,,,,13:06:24:963,13:06:25:697,13:06:28:716,right,13:06:29:233,,,2018_Jun_05_1236,59.9404996156,MP-Perception Experiment,xx09w23,
316,vgpdm_dyn(20)-lvm(25)_final(2).mov,False,left,1,training(33).mov,0,156,156,20,,,,,,,,13:06:29:997,13:06:30:751,13:06:33:752,left,13:06:34:235,,,2018_Jun_05_1236,59.9404996156,MP-Perception Experiment,xx09w23,
317,vcgpdm_dyn(15)-lvm(20)_final(1).mov,False,left,1,training(8).mov,0,157,157,157,,,,,,,,13:06:34:997,13:06:35:736,13:06:38:757,left,13:06:39:107,,,2018_Jun_05_1236,59.9404996156,MP-Perception Experiment,xx09w23,
318,vgpdm_dyn(10)-lvm(35)_final(7).mov,True,left,1,training(24).mov,0,158,158,141,,,,,,,,13:06:39:859,13:06:40:608,13:06:43:627,left,13:06:44:013,,,2018_Jun_05_1236,59.9404996156,MP-Perception Experiment,xx09w23,
319,vcgpdm_dyn(25)-lvm(35)_final(7).mov,False,left,2,training(38).mov,0,0,0,71,,,,,,,,13:08:10:417,13:08:11:138,13:08:14:122,right,13:08:15:390,,,2018_Jun_05_1236,59.9404996156,MP-Perception Experiment,xx09w23,
320,tmp_numprim(2)_final(9).mov,False,left,2,training(12).mov,0,1,1,117,,,,,,,,13:08:16:154,13:08:16:907,13:08:19:893,left,13:08:20:327,,,2018_Jun_05_1236,59.9404996156,MP-Perception Experiment,xx09w23,
321,training(32).mov,True,right,2,vcgpdm_dyn(10)-lvm(30)_final(1).mov,0,2,2,148,,,,,,,,13:08:21:085,13:08:21:828,13:08:24:816,right,13:08:25:284,,,2018_Jun_05_1236,59.9404996156,MP-Perception Experiment,xx09w23,
322,vgpdm_dyn(30)-lvm(10)_final(5).mov,False,left,2,training(21).mov,0,3,3,135,,,,,,,,13:08:26:030,13:08:26:785,13:08:29:804,left,13:08:30:271,,,2018_Jun_05_1236,59.9404996156,MP-Perception Experiment,xx09w23,
323,vcgpdm_dyn(30)-lvm(30)_final(3).mov,False,left,2,training(22).mov,0,4,4,120,,,,,,,,13:08:31:019,13:08:31:772,13:08:34:791,left,13:08:35:175,,,2018_Jun_05_1236,59.9404996156,MP-Perception Experiment,xx09w23,
324,vcgpdm_dyn(10)-lvm(10)_final(5).mov,False,left,2,training(6).mov,0,5,5,69,,,,,,,,13:08:35:931,13:08:36:676,13:08:39:695,right,13:08:40:113,,,2018_Jun_05_1236,59.9404996156,MP-Perception Experiment,xx09w23,
325,training(41).mov,True,right,2,vgpdm_dyn(35)-lvm(35)_final(7).mov,0,6,6,137,,,,,,,,13:08:40:889,13:08:41:614,13:08:44:617,right,13:08:44:967,,,2018_Jun_05_1236,59.9404996156,MP-Perception Experiment,xx09w23,
326,tmp_numprim(3)_final(9).mov,True,left,2,training(5).mov,0,7,7,129,,,,,,,,13:08:45:743,13:08:46:468,13:08:49:488,left,13:08:49:905,,,2018_Jun_05_1236,59.9404996156,MP-Perception Experiment,xx09w23,
327,training(34).mov,False,right,2,vcgpdm_dyn(25)-lvm(35)_final(2).mov,0,8,8,63,,,,,,,,13:08:50:681,13:08:51:406,13:08:54:425,right,13:08:54:825,,,2018_Jun_05_1236,59.9404996156,MP-Perception Experiment,xx09w23,
328,vcgpdm_dyn(25)-lvm(20)_final(2).mov,True,left,2,training(4).mov,0,9,9,26,,,,,,,,13:08:55:585,13:08:56:326,13:08:59:330,left,13:08:59:697,,,2018_Jun_05_1236,59.9404996156,MP-Perception Experiment,xx09w23,
329,vgpdm_dyn(5)-lvm(20)_final(3).mov,True,left,2,training(32).mov,0,10,10,153,,,,,,,,13:09:00:463,13:09:01:198,13:09:04:215,left,13:09:04:566,,,2018_Jun_05_1236,59.9404996156,MP-Perception Experiment,xx09w23,
330,training(40).mov,False,right,2,vcgpdm_dyn(5)-lvm(5)_final(7).mov,0,11,11,92,,,,,,,,13:09:05:336,13:09:06:067,13:09:09:069,right,13:09:09:420,,,2018_Jun_05_1236,59.9404996156,MP-Perception Experiment,xx09w23,
331,training(32).mov,False,right,2,vgpdm_dyn(20)-lvm(5)_final(3).mov,0,12,12,16,,,,,,,,13:09:10:179,13:09:10:921,13:09:13:923,right,13:09:14:175,,,2018_Jun_05_1236,59.9404996156,MP-Perception Experiment,xx09w23,
332,dmp_npsi(30)_final(4).mov,False,left,2,training(10).mov,0,13,13,93,,,,,,,,13:09:14:932,13:09:15:677,13:09:18:680,right,13:09:19:147,,,2018_Jun_05_1236,59.9404996156,MP-Perception Experiment,xx09w23,
333,training(2).mov,False,right,2,vcgpdm_dyn(30)-lvm(30)_final(8).mov,0,14,14,49,,,,,,,,13:09:19:930,13:09:20:648,13:09:23:667,right,13:09:24:018,,,2018_Jun_05_1236,59.9404996156,MP-Perception Experiment,xx09w23,
334,vgpdm_dyn(25)-lvm(35)_final(2).mov,True,left,2,training(21).mov,0,15,15,0,,,,,,,,13:09:24:774,13:09:25:519,13:09:28:521,right,13:09:28:938,,,2018_Jun_05_1236,59.9404996156,MP-Perception Experiment,xx09w23,
335,training(0).mov,False,right,2,vgpdm_dyn(15)-lvm(5)_final(5).mov,0,16,16,32,,,,,,,,13:09:29:705,13:09:30:439,13:09:33:443,left,13:09:34:027,,,2018_Jun_05_1236,59.9404996156,MP-Perception Experiment,xx09w23,
336,training(14).mov,True,right,2,map_gpdm_final(2).mov,0,17,17,72,,,,,,,,13:09:34:777,13:09:35:528,13:09:38:530,right,13:09:38:931,,,2018_Jun_05_1236,59.9404996156,MP-Perception Experiment,xx09w23,
337,vgpdm_dyn(30)-lvm(35)_final(8).mov,True,left,2,training(32).mov,0,18,18,67,,,,,,,,13:09:39:688,13:09:40:448,13:09:43:434,left,13:09:43:851,,,2018_Jun_05_1236,59.9404996156,MP-Perception Experiment,xx09w23,
338,training(14).mov,False,right,2,vcgpdm_dyn(10)-lvm(25)_final(8).mov,0,19,19,79,,,,,,,,13:09:44:608,13:09:45:352,13:09:48:371,right,13:09:48:772,,,2018_Jun_05_1236,59.9404996156,MP-Perception Experiment,xx09w23,
339,training(26).mov,True,right,2,vcgpdm_dyn(10)-lvm(15)_final(5).mov,0,20,20,156,,,,,,,,13:09:49:531,13:09:50:274,13:09:53:275,right,13:09:53:675,,,2018_Jun_05_1236,59.9404996156,MP-Perception Experiment,xx09w23,
340,training(0).mov,True,right,2,vcgpdm_dyn(35)-lvm(25)_final(0).mov,0,21,21,66,,,,,,,,13:09:54:442,13:09:55:193,13:09:58:195,right,13:09:58:579,,,2018_Jun_05_1236,59.9404996156,MP-Perception Experiment,xx09w23,
341,training(24).mov,False,right,2,vgpdm_dyn(30)-lvm(5)_final(1).mov,0,22,22,65,,,,,,,,13:09:59:355,13:10:00:080,13:10:03:082,right,13:10:03:466,,,2018_Jun_05_1236,59.9404996156,MP-Perception Experiment,xx09w23,
342,training(41).mov,True,right,2,vgpdm_dyn(15)-lvm(35)_final(1).mov,0,23,23,155,,,,,,,,13:10:04:249,13:10:04:969,13:10:07:956,right,13:10:08:306,,,2018_Jun_05_1236,59.9404996156,MP-Perception Experiment,xx09w23,
343,training(1).mov,True,right,2,vcgpdm_dyn(5)-lvm(25)_final(7).mov,0,24,24,145,,,,,,,,13:10:09:071,13:10:09:807,13:10:12:810,right,13:10:13:327,,,2018_Jun_05_1236,59.9404996156,MP-Perception Experiment,xx09w23,
344,training(17).mov,True,right,2,vcgpdm_dyn(20)-lvm(35)_final(2).mov,0,25,25,23,,,,,,,,13:10:14:116,13:10:14:845,13:10:17:831,right,13:10:18:131,,,2018_Jun_05_1236,59.9404996156,MP-Perception Experiment,xx09w23,
345,dmp_npsi(40)_final(8).mov,False,left,2,training(33).mov,0,26,26,10,,,,,,,,13:10:18:896,13:10:19:632,13:10:22:651,right,13:10:23:118,,,2018_Jun_05_1236,59.9404996156,MP-Perception Experiment,xx09w23,
346,vgpdm_dyn(10)-lvm(25)_final(8).mov,True,left,2,training(28).mov,0,27,27,90,,,,,,,,13:10:23:873,13:10:24:619,13:10:27:640,right,13:10:27:890,,,2018_Jun_05_1236,59.9404996156,MP-Perception Experiment,xx09w23,
347,vcgpdm_dyn(25)-lvm(5)_final(3).mov,False,left,2,training(5).mov,0,28,28,43,,,,,,,,13:10:28:669,13:10:29:391,13:10:32:393,right,13:10:32:777,,,2018_Jun_05_1236,59.9404996156,MP-Perception Experiment,xx09w23,
348,vcgpdm_dyn(15)-lvm(25)_final(0).mov,True,left,2,training(10).mov,0,29,29,61,,,,,,,,13:10:33:538,13:10:34:278,13:10:37:297,left,13:10:37:798,,,2018_Jun_05_1236,59.9404996156,MP-Perception Experiment,xx09w23,
349,vcgpdm_dyn(5)-lvm(15)_final(5).mov,False,left,2,training(21).mov,0,30,30,108,,,,,,,,13:10:38:545,13:10:39:299,13:10:42:320,right,13:10:42:753,,,2018_Jun_05_1236,59.9404996156,MP-Perception Experiment,xx09w23,
350,vgpdm_dyn(15)-lvm(30)_final(2).mov,False,left,2,training(41).mov,0,31,31,50,,,,,,,,13:10:43:521,13:10:44:269,13:10:47:271,left,13:10:47:722,,,2018_Jun_05_1236,59.9404996156,MP-Perception Experiment,xx09w23,
351,training(1).mov,False,right,2,vgpdm_dyn(35)-lvm(25)_final(0).mov,0,32,32,78,,,,,,,,13:10:48:474,13:10:49:223,13:10:52:225,right,13:10:52:609,,,2018_Jun_05_1236,59.9404996156,MP-Perception Experiment,xx09w23,
352,vgpdm_dyn(5)-lvm(30)_final(0).mov,True,left,2,training(22).mov,0,33,33,33,,,,,,,,13:10:53:370,13:10:54:110,13:10:57:097,left,13:10:57:615,,,2018_Jun_05_1236,59.9404996156,MP-Perception Experiment,xx09w23,
353,training(38).mov,False,right,2,dmp_npsi(40)_final(9).mov,0,34,34,45,,,,,,,,13:10:58:378,13:10:59:116,13:11:02:136,right,13:11:02:637,,,2018_Jun_05_1236,59.9404996156,MP-Perception Experiment,xx09w23,
354,vgpdm_dyn(30)-lvm(10)_final(4).mov,True,left,2,training(11).mov,0,35,35,136,,,,,,,,13:11:03:386,13:11:04:137,13:11:07:140,right,13:11:07:790,,,2018_Jun_05_1236,59.9404996156,MP-Perception Experiment,xx09w23,
355,training(6).mov,True,right,2,vcgpdm_dyn(20)-lvm(30)_final(3).mov,0,36,36,29,,,,,,,,13:11:08:545,13:11:09:308,13:11:12:311,right,13:11:12:611,,,2018_Jun_05_1236,59.9404996156,MP-Perception Experiment,xx09w23,
356,training(29).mov,False,right,2,vgpdm_dyn(15)-lvm(5)_final(6).mov,0,37,37,151,,,,,,,,13:11:13:380,13:11:14:112,13:11:17:116,right,13:11:17:666,,,2018_Jun_05_1236,59.9404996156,MP-Perception Experiment,xx09w23,
357,training(7).mov,False,right,2,tmp_numprim(9)_final(1).mov,0,38,38,57,,,,,,,,13:11:18:442,13:11:19:167,13:11:22:187,right,13:11:22:604,,,2018_Jun_05_1236,59.9404996156,MP-Perception Experiment,xx09w23,
358,training(39).mov,True,right,2,vcgpdm_dyn(20)-lvm(35)_final(5).mov,0,39,39,7,,,,,,,,13:11:23:371,13:11:24:105,13:11:27:124,right,13:11:27:491,,,2018_Jun_05_1236,59.9404996156,MP-Perception Experiment,xx09w23,
359,training(7).mov,False,right,2,vgpdm_dyn(25)-lvm(10)_final(2)_out_of_screen.mov,0,40,40,13,,,,,,,,13:11:28:261,13:11:28:992,13:11:31:994,right,13:11:32:311,,,2018_Jun_05_1236,59.9404996156,MP-Perception Experiment,xx09w23,
360,training(29).mov,True,right,2,vgpdm_dyn(20)-lvm(35)_final(7).mov,0,41,41,85,,,,,,,,13:11:33:077,13:11:33:827,13:11:36:814,right,13:11:37:231,,,2018_Jun_05_1236,59.9404996156,MP-Perception Experiment,xx09w23,
361,vgpdm_dyn(15)-lvm(35)_final(3).mov,True,left,2,training(9).mov,0,42,42,86,,,,,,,,13:11:37:995,13:11:38:732,13:11:41:751,left,13:11:41:835,,,2018_Jun_05_1236,59.9404996156,MP-Perception Experiment,xx09w23,
362,training(14).mov,False,right,2,vgpdm_dyn(30)-lvm(15)_final(0).mov,0,43,43,97,,,,,,,,13:11:42:583,13:11:43:336,13:11:46:340,right,13:11:46:741,,,2018_Jun_05_1236,59.9404996156,MP-Perception Experiment,xx09w23,
363,training(3).mov,False,right,2,dmp_npsi(15)_final(3).mov,0,44,44,110,,,,,,,,13:11:47:500,13:11:48:242,13:11:51:261,right,13:11:51:745,,,2018_Jun_05_1236,59.9404996156,MP-Perception Experiment,xx09w23,
364,vcgpdm_dyn(10)-lvm(10)_final(2).mov,False,left,2,training(16).mov,0,45,45,19,,,,,,,,13:11:52:501,13:11:53:247,13:11:56:266,right,13:11:56:733,,,2018_Jun_05_1236,59.9404996156,MP-Perception Experiment,xx09w23,
365,training(16).mov,False,right,2,map_cgpdm_final(4).mov,0,46,46,94,,,,,,,,13:11:57:495,13:11:58:234,13:12:01:237,right,13:12:01:604,,,2018_Jun_05_1236,59.9404996156,MP-Perception Experiment,xx09w23,
366,map_cgpdm_final(0).mov,True,left,2,training(38).mov,0,47,47,98,,,,,,,,13:12:02:361,13:12:03:105,13:12:06:124,left,13:12:06:875,,,2018_Jun_05_1236,59.9404996156,MP-Perception Experiment,xx09w23,
367,training(48).mov,False,right,2,vcgpdm_dyn(5)-lvm(20)_final(1).mov,0,48,48,14,,,,,,,,13:12:07:632,13:12:08:376,13:12:11:379,right,13:12:11:846,,,2018_Jun_05_1236,59.9404996156,MP-Perception Experiment,xx09w23,
368,vcgpdm_dyn(25)-lvm(10)_final(4).mov,True,left,2,training(33).mov,0,49,49,89,,,,,,,,13:12:12:612,13:12:13:347,13:12:16:350,left,13:12:17:618,,,2018_Jun_05_1236,59.9404996156,MP-Perception Experiment,xx09w23,
369,vgpdm_dyn(20)-lvm(15)_final(2).mov,True,left,2,training(23).mov,0,50,50,84,,,,,,,,13:12:18:394,13:12:19:119,13:12:22:121,right,13:12:22:455,,,2018_Jun_05_1236,59.9404996156,MP-Perception Experiment,xx09w23,
370,map_cgpdm_final(9).mov,False,left,2,training(15).mov,0,51,51,126,,,,,,,,13:12:23:226,13:12:23:971,13:12:26:957,left,13:12:27:258,,,2018_Jun_05_1236,59.9404996156,MP-Perception Experiment,xx09w23,
371,training(18).mov,False,right,2,vcgpdm_dyn(20)-lvm(20)_final(7).mov,0,52,52,58,,,,,,,,13:12:28:024,13:12:28:759,13:12:31:762,right,13:12:32:212,,,2018_Jun_05_1236,59.9404996156,MP-Perception Experiment,xx09w23,
372,vcgpdm_dyn(5)-lvm(10)_final(0).mov,False,left,2,training(35).mov,0,53,53,87,,,,,,,,13:12:32:986,13:12:33:713,13:12:36:701,right,13:12:37:218,,,2018_Jun_05_1236,59.9404996156,MP-Perception Experiment,xx09w23,
373,vcgpdm_dyn(15)-lvm(35)_final(2).mov,False,left,2,training(37).mov,0,54,54,134,,,,,,,,13:12:37:974,13:12:38:719,13:12:41:722,left,13:12:42:572,,,2018_Jun_05_1236,59.9404996156,MP-Perception Experiment,xx09w23,
374,training(1).mov,False,right,2,vcgpdm_dyn(30)-lvm(35)_final(7).mov,0,55,55,39,,,,,,,,13:12:43:322,13:12:44:073,13:12:47:093,right,13:12:47:844,,,2018_Jun_05_1236,59.9404996156,MP-Perception Experiment,xx09w23,
375,training(25).mov,True,right,2,tmp_numprim(10)_final(9).mov,0,56,56,133,,,,,,,,13:12:48:603,13:12:49:345,13:12:52:348,right,13:12:52:848,,,2018_Jun_05_1236,59.9404996156,MP-Perception Experiment,xx09w23,
376,vgpdm_dyn(25)-lvm(5)_final(8).mov,False,left,2,training(25).mov,0,57,57,46,,,,,,,,13:12:53:626,13:12:54:349,13:12:57:368,right,13:12:58:519,,,2018_Jun_05_1236,59.9404996156,MP-Perception Experiment,xx09w23,
377,vgpdm_dyn(15)-lvm(15)_final(8).mov,False,left,2,training(37).mov,0,58,58,101,,,,,,,,13:12:59:286,13:13:00:020,13:13:03:041,left,13:13:03:491,,,2018_Jun_05_1236,59.9404996156,MP-Perception Experiment,xx09w23,
378,training(40).mov,True,right,2,vgpdm_dyn(35)-lvm(25)_final(2).mov,0,59,59,59,,,,,,,,13:13:04:264,13:13:05:009,13:13:08:011,right,13:13:08:445,,,2018_Jun_05_1236,59.9404996156,MP-Perception Experiment,xx09w23,
379,training(33).mov,True,right,2,vgpdm_dyn(20)-lvm(35)_final(1).mov,0,60,60,30,,,,,,,,13:13:09:205,13:13:09:946,13:13:12:949,right,13:13:14:181,,,2018_Jun_05_1236,59.9404996156,MP-Perception Experiment,xx09w23,
380,training(23).mov,True,right,2,vcgpdm_dyn(20)-lvm(10)_final(1).mov,0,61,61,125,,,,,,,,13:13:14:938,13:13:15:682,13:13:18:685,right,13:13:19:019,,,2018_Jun_05_1236,59.9404996156,MP-Perception Experiment,xx09w23,
381,training(29).mov,True,right,2,vgpdm_dyn(20)-lvm(25)_final(0).mov,0,62,62,140,,,,,,,,13:13:19:785,13:13:20:521,13:13:23:523,right,13:13:24:123,,,2018_Jun_05_1236,59.9404996156,MP-Perception Experiment,xx09w23,
382,vcgpdm_dyn(20)-lvm(10)_final(9).mov,True,left,2,training(16).mov,0,63,63,35,,,,,,,,13:13:24:866,13:13:25:626,13:13:28:629,left,13:13:29:029,,,2018_Jun_05_1236,59.9404996156,MP-Perception Experiment,xx09w23,
383,training(24).mov,True,right,2,vgpdm_dyn(25)-lvm(30)_final(5).mov,0,64,64,56,,,,,,,,13:13:29:804,13:13:30:547,13:13:33:533,left,13:13:33:816,,,2018_Jun_05_1236,59.9404996156,MP-Perception Experiment,xx09w23,
384,training(26).mov,False,right,2,vgpdm_dyn(5)-lvm(5)_final(6)_out_of_screen.mov,0,65,65,75,,,,,,,,13:13:34:571,13:13:35:318,13:13:38:321,right,13:13:38:488,,,2018_Jun_05_1236,59.9404996156,MP-Perception Experiment,xx09w23,
385,training(35).mov,True,right,2,vcgpdm_dyn(20)-lvm(20)_final(0).mov,0,66,66,38,,,,,,,,13:13:39:270,13:13:39:989,13:13:42:992,right,13:13:43:258,,,2018_Jun_05_1236,59.9404996156,MP-Perception Experiment,xx09w23,
386,training(20).mov,True,right,2,map_gpdm_final(1).mov,0,67,67,105,,,,,,,,13:13:44:017,13:13:44:759,13:13:47:762,right,13:13:48:212,,,2018_Jun_05_1236,59.9404996156,MP-Perception Experiment,xx09w23,
387,vcgpdm_dyn(20)-lvm(5)_final(2).mov,False,left,2,training(48).mov,0,68,68,131,,,,,,,,13:13:48:969,13:13:49:713,13:13:52:716,right,13:13:53:083,,,2018_Jun_05_1236,59.9404996156,MP-Perception Experiment,xx09w23,
388,training(8).mov,False,right,2,vgpdm_dyn(30)-lvm(20)_final(1).mov,0,69,69,102,,,,,,,,13:13:53:878,13:13:54:602,13:13:57:605,right,13:13:58:188,,,2018_Jun_05_1236,59.9404996156,MP-Perception Experiment,xx09w23,
389,tmp_numprim(7)_final(7).mov,False,left,2,training(26).mov,0,70,70,150,,,,,,,,13:13:58:942,13:13:59:706,13:14:02:692,right,13:14:03:175,,,2018_Jun_05_1236,59.9404996156,MP-Perception Experiment,xx09w23,
390,training(13).mov,False,right,2,vgpdm_dyn(30)-lvm(15)_final(2).mov,0,71,71,104,,,,,,,,13:14:03:959,13:14:04:692,13:14:07:694,left,13:14:08:128,,,2018_Jun_05_1236,59.9404996156,MP-Perception Experiment,xx09w23,
391,training(17).mov,False,right,2,vcgpdm_dyn(25)-lvm(30)_final(7).mov,0,72,72,25,,,,,,,,13:14:08:903,13:14:09:629,13:14:12:632,right,13:14:12:983,,,2018_Jun_05_1236,59.9404996156,MP-Perception Experiment,xx09w23,
392,training(29).mov,False,right,2,vgpdm_dyn(5)-lvm(15)_final(4).mov,0,73,73,47,,,,,,,,13:14:13:762,13:14:14:500,13:14:17:471,right,13:14:17:922,,,2018_Jun_05_1236,59.9404996156,MP-Perception Experiment,xx09w23,
393,training(41).mov,True,right,2,vcgpdm_dyn(20)-lvm(15)_final(2).mov,0,74,74,41,,,,,,,,13:14:18:682,13:14:19:423,13:14:22:425,right,13:14:22:759,,,2018_Jun_05_1236,59.9404996156,MP-Perception Experiment,xx09w23,
394,tmp_numprim(6)_final(1).mov,False,left,2,training(23).mov,0,75,75,157,,,,,,,,13:14:23:540,13:14:24:277,13:14:27:263,right,13:14:27:546,,,2018_Jun_05_1236,59.9404996156,MP-Perception Experiment,xx09w23,
395,vgpdm_dyn(10)-lvm(30)_final(8).mov,True,left,2,training(2).mov,0,76,76,142,,,,,,,,13:14:28:329,13:14:29:047,13:14:32:068,left,13:14:32:501,,,2018_Jun_05_1236,59.9404996156,MP-Perception Experiment,xx09w23,
396,vcgpdm_dyn(25)-lvm(25)_final(3).mov,True,left,2,training(41).mov,0,77,77,81,,,,,,,,13:14:33:271,13:14:34:019,13:14:37:005,left,13:14:37:388,,,2018_Jun_05_1236,59.9404996156,MP-Perception Experiment,xx09w23,
397,training(16).mov,False,right,2,vgpdm_dyn(25)-lvm(35)_final(6).mov,0,78,78,36,,,,,,,,13:14:38:156,13:14:38:890,13:14:41:909,right,13:14:42:292,,,2018_Jun_05_1236,59.9404996156,MP-Perception Experiment,xx09w23,
398,dmp_npsi(45)_final(1).mov,True,left,2,training(38).mov,0,79,79,80,,,,,,,,13:14:43:049,13:14:43:793,13:14:46:813,right,13:14:47:181,,,2018_Jun_05_1236,59.9404996156,MP-Perception Experiment,xx09w23,
399,training(41).mov,False,right,2,tmp_numprim(6)_final(8).mov,0,80,80,124,,,,,,,,13:14:47:954,13:14:48:682,13:14:51:701,right,13:14:52:001,,,2018_Jun_05_1236,59.9404996156,MP-Perception Experiment,xx09w23,
400,vcgpdm_dyn(5)-lvm(20)_final(4).mov,False,left,2,training(12).mov,0,81,81,130,,,,,,,,13:14:52:760,13:14:53:517,13:14:56:503,left,13:14:56:903,,,2018_Jun_05_1236,59.9404996156,MP-Perception Experiment,xx09w23,
401,training(36).mov,False,right,2,vgpdm_dyn(15)-lvm(5)_final(8).mov,0,82,82,52,,,,,,,,13:14:57:666,13:14:58:404,13:15:01:407,right,13:15:01:824,,,2018_Jun_05_1236,59.9404996156,MP-Perception Experiment,xx09w23,
402,vcgpdm_dyn(15)-lvm(25)_final(1).mov,True,left,2,training(11).mov,0,83,83,76,,,,,,,,13:15:02:612,13:15:03:325,13:15:06:314,left,13:15:06:764,,,2018_Jun_05_1236,59.9404996156,MP-Perception Experiment,xx09w23,
403,vgpdm_dyn(20)-lvm(30)_final(8).mov,False,left,2,training(1).mov,0,84,84,17,,,,,,,,13:15:07:528,13:15:08:282,13:15:11:268,right,13:15:11:601,,,2018_Jun_05_1236,59.9404996156,MP-Perception Experiment,xx09w23,
404,vgpdm_dyn(30)-lvm(15)_final(0).mov,True,left,2,training(24).mov,0,85,85,9,,,,,,,,13:15:12:353,13:15:13:102,13:15:16:105,left,13:15:16:689,,,2018_Jun_05_1236,59.9404996156,MP-Perception Experiment,xx09w23,
405,tmp_numprim(8)_final(8).mov,True,left,2,training(33).mov,0,86,86,3,,,,,,,,13:15:17:442,13:15:18:190,13:15:21:192,right,13:15:21:610,,,2018_Jun_05_1236,59.9404996156,MP-Perception Experiment,xx09w23,
406,vcgpdm_dyn(10)-lvm(20)_final(3).mov,True,left,2,training(32).mov,0,87,87,48,,,,,,,,13:15:22:373,13:15:23:111,13:15:26:131,left,13:15:26:615,,,2018_Jun_05_1236,59.9404996156,MP-Perception Experiment,xx09w23,
407,training(3).mov,False,right,2,vgpdm_dyn(15)-lvm(30)_final(8).mov,0,88,88,77,,,,,,,,13:15:27:389,13:15:28:116,13:15:31:118,right,13:15:31:452,,,2018_Jun_05_1236,59.9404996156,MP-Perception Experiment,xx09w23,
408,vcgpdm_dyn(30)-lvm(10)_final(2).mov,False,left,2,training(35).mov,0,89,89,18,,,,,,,,13:15:32:216,13:15:32:953,13:15:35:955,left,13:15:36:289,,,2018_Jun_05_1236,59.9404996156,MP-Perception Experiment,xx09w23,
409,training(39).mov,True,right,2,vgpdm_dyn(35)-lvm(30)_final(2).mov,0,90,90,15,,,,,,,,13:15:37:063,13:15:37:790,13:15:40:794,right,13:15:41:344,,,2018_Jun_05_1236,59.9404996156,MP-Perception Experiment,xx09w23,
410,vgpdm_dyn(15)-lvm(15)_final(5).mov,False,left,2,training(32).mov,0,91,91,88,,,,,,,,13:15:42:106,13:15:42:845,13:15:45:846,right,13:15:46:263,,,2018_Jun_05_1236,59.9404996156,MP-Perception Experiment,xx09w23,
411,vcgpdm_dyn(15)-lvm(30)_final(6).mov,False,left,2,training(15).mov,0,92,92,119,,,,,,,,13:15:47:023,13:15:47:764,13:15:50:766,right,13:15:50:967,,,2018_Jun_05_1236,59.9404996156,MP-Perception Experiment,xx09w23,
412,training(36).mov,True,right,2,vgpdm_dyn(20)-lvm(10)_final(7)_out_of_screen.mov,0,93,93,121,,,,,,,,13:15:51:729,13:15:52:484,13:15:55:472,right,13:15:56:123,,,2018_Jun_05_1236,59.9404996156,MP-Perception Experiment,xx09w23,
413,training(38).mov,False,right,2,vgpdm_dyn(20)-lvm(15)_final(2).mov,0,94,94,106,,,,,,,,13:15:56:883,13:15:57:625,13:16:00:627,right,13:16:01:211,,,2018_Jun_05_1236,59.9404996156,MP-Perception Experiment,xx09w23,
414,vcgpdm_dyn(25)-lvm(5)_final(2).mov,False,left,2,training(9).mov,0,95,95,99,,,,,,,,13:16:01:969,13:16:02:729,13:16:05:715,right,13:16:06:032,,,2018_Jun_05_1236,59.9404996156,MP-Perception Experiment,xx09w23,
415,tmp_numprim(2)_final(8).mov,False,left,2,training(15).mov,0,96,96,143,,,,,,,,13:16:06:800,13:16:07:533,13:16:10:552,left,13:16:10:936,,,2018_Jun_05_1236,59.9404996156,MP-Perception Experiment,xx09w23,
416,training(39).mov,False,right,2,vgpdm_dyn(30)-lvm(15)_final(7).mov,0,97,97,113,,,,,,,,13:16:11:698,13:16:12:453,13:16:15:440,right,13:16:15:757,,,2018_Jun_05_1236,59.9404996156,MP-Perception Experiment,xx09w23,
417,dmp_npsi(20)_final(3).mov,True,left,2,training(15).mov,0,98,98,111,,,,,,,,13:16:16:516,13:16:17:258,13:16:20:277,left,13:16:20:561,,,2018_Jun_05_1236,59.9404996156,MP-Perception Experiment,xx09w23,
418,vcgpdm_dyn(35)-lvm(10)_final(7).mov,False,left,2,training(3).mov,0,99,99,139,,,,,,,,13:16:21:328,13:16:22:062,13:16:25:082,left,13:16:25:465,,,2018_Jun_05_1236,59.9404996156,MP-Perception Experiment,xx09w23,
419,training(41).mov,False,right,2,vcgpdm_dyn(5)-lvm(20)_final(9).mov,0,100,100,70,,,,,,,,13:16:26:238,13:16:26:966,13:16:29:969,right,13:16:30:636,,,2018_Jun_05_1236,59.9404996156,MP-Perception Experiment,xx09w23,
420,vgpdm_dyn(35)-lvm(25)_final(8).mov,False,left,2,training(16).mov,0,101,101,103,,,,,,,,13:16:31:394,13:16:32:138,13:16:35:139,right,13:16:35:606,,,2018_Jun_05_1236,59.9404996156,MP-Perception Experiment,xx09w23,
421,training(15).mov,True,right,2,vcgpdm_dyn(25)-lvm(30)_final(5).mov,0,102,102,122,,,,,,,,13:16:36:367,13:16:37:124,13:16:40:109,right,13:16:40:393,,,2018_Jun_05_1236,59.9404996156,MP-Perception Experiment,xx09w23,
422,vcgpdm_dyn(10)-lvm(35)_final(4).mov,False,left,2,training(35).mov,0,103,103,128,,,,,,,,13:16:41:435,13:16:41:944,13:16:44:897,left,13:16:45:315,,,2018_Jun_05_1236,59.9404996156,MP-Perception Experiment,xx09w23,
423,vcgpdm_dyn(20)-lvm(15)_final(3).mov,False,left,2,training(13).mov,0,104,104,53,,,,,,,,13:16:46:077,13:16:46:816,13:16:49:820,left,13:16:50:387,,,2018_Jun_05_1236,59.9404996156,MP-Perception Experiment,xx09w23,
424,vcgpdm_dyn(15)-lvm(10)_final(8).mov,True,left,2,training(23).mov,0,105,105,8,,,,,,,,13:16:51:148,13:16:51:888,13:16:54:891,right,13:16:55:241,,,2018_Jun_05_1236,59.9404996156,MP-Perception Experiment,xx09w23,
425,vcgpdm_dyn(5)-lvm(15)_final(2).mov,True,left,2,training(41).mov,0,106,106,100,,,,,,,,13:16:56:025,13:16:56:759,13:16:59:745,left,13:17:00:062,,,2018_Jun_05_1236,59.9404996156,MP-Perception Experiment,xx09w23,
426,vgpdm_dyn(10)-lvm(5)_final(8).mov,False,left,2,training(19).mov,0,107,107,27,,,,,,,,13:17:00:826,13:17:01:563,13:17:04:565,right,13:17:04:966,,,2018_Jun_05_1236,59.9404996156,MP-Perception Experiment,xx09w23,
427,training(48).mov,True,right,2,vcgpdm_dyn(20)-lvm(25)_final(1).mov,0,108,108,141,,,,,,,,13:17:05:730,13:17:06:467,13:17:09:487,right,13:17:09:838,,,2018_Jun_05_1236,59.9404996156,MP-Perception Experiment,xx09w23,
428,vcgpdm_dyn(10)-lvm(25)_final(7).mov,False,left,2,training(3).mov,0,109,109,20,,,,,,,,13:17:10:611,13:17:11:355,13:17:14:341,left,13:17:14:658,,,2018_Jun_05_1236,59.9404996156,MP-Perception Experiment,xx09w23,
429,training(14).mov,True,right,2,dmp_npsi(40)_final(5).mov,0,110,110,68,,,,,,,,13:17:15:426,13:17:16:159,13:17:19:161,right,13:17:19:595,,,2018_Jun_05_1236,59.9404996156,MP-Perception Experiment,xx09w23,
430,vgpdm_dyn(30)-lvm(20)_final(3).mov,True,left,2,training(8).mov,0,111,111,109,,,,,,,,13:17:20:348,13:17:21:096,13:17:24:097,right,13:17:24:432,,,2018_Jun_05_1236,59.9404996156,MP-Perception Experiment,xx09w23,
431,training(24).mov,False,right,2,vgpdm_dyn(30)-lvm(35)_final(9).mov,0,112,112,4,,,,,,,,13:17:25:200,13:17:25:933,13:17:28:935,left,13:17:29:252,,,2018_Jun_05_1236,59.9404996156,MP-Perception Experiment,xx09w23,
432,dmp_npsi(10)_final(4)_bad.mov,True,left,2,training(29).mov,0,113,113,127,,,,,,,,13:17:30:020,13:17:30:754,13:17:33:772,left,13:17:34:240,,,2018_Jun_05_1236,59.9404996156,MP-Perception Experiment,xx09w23,
433,vcgpdm_dyn(5)-lvm(35)_final(6)_bad.mov,True,left,2,training(48).mov,0,114,114,138,,,,,,,,13:17:35:003,13:17:35:742,13:17:38:728,left,13:17:39:312,,,2018_Jun_05_1236,59.9404996156,MP-Perception Experiment,xx09w23,
434,vgpdm_dyn(20)-lvm(35)_final(1).mov,True,left,2,training(22).mov,0,115,115,107,,,,,,,,13:17:40:074,13:17:40:813,13:17:43:833,left,13:17:44:267,,,2018_Jun_05_1236,59.9404996156,MP-Perception Experiment,xx09w23,
435,vgpdm_dyn(25)-lvm(35)_final(8).mov,False,left,2,training(37).mov,0,116,116,149,,,,,,,,13:17:45:020,13:17:45:768,13:17:48:771,right,13:17:49:221,,,2018_Jun_05_1236,59.9404996156,MP-Perception Experiment,xx09w23,
436,training(26).mov,False,right,2,vcgpdm_dyn(20)-lvm(5)_final(0).mov,0,117,117,96,,,,,,,,13:17:49:984,13:17:50:722,13:17:53:741,left,13:17:54:041,,,2018_Jun_05_1236,59.9404996156,MP-Perception Experiment,xx09w23,
437,training(28).mov,True,right,2,vcgpdm_dyn(20)-lvm(25)_final(8).mov,0,118,118,116,,,,,,,,13:17:54:825,13:17:55:543,13:17:58:562,right,13:17:58:845,,,2018_Jun_05_1236,59.9404996156,MP-Perception Experiment,xx09w23,
438,vcgpdm_dyn(30)-lvm(15)_final(8).mov,False,left,2,training(0).mov,0,119,119,132,,,,,,,,13:17:59:612,13:18:00:348,13:18:03:350,right,13:18:03:950,,,2018_Jun_05_1236,59.9404996156,MP-Perception Experiment,xx09w23,
439,vgpdm_dyn(5)-lvm(25)_final(2)_out_of_screen.mov,True,left,2,training(36).mov,0,120,120,24,,,,,,,,13:18:04:719,13:18:05:468,13:18:08:454,left,13:18:09:155,,,2018_Jun_05_1236,59.9404996156,MP-Perception Experiment,xx09w23,
440,training(19).mov,False,right,2,vcgpdm_dyn(35)-lvm(25)_final(3).mov,0,121,121,152,,,,,,,,13:18:09:931,13:18:10:656,13:18:13:656,right,13:18:14:007,,,2018_Jun_05_1236,59.9404996156,MP-Perception Experiment,xx09w23,
441,vgpdm_dyn(10)-lvm(15)_final(8).mov,False,left,2,training(4).mov,0,122,122,147,,,,,,,,13:18:14:765,13:18:15:508,13:18:18:511,right,13:18:18:812,,,2018_Jun_05_1236,59.9404996156,MP-Perception Experiment,xx09w23,
442,training(27).mov,False,right,2,vgpdm_dyn(35)-lvm(10)_final(3).mov,0,123,123,42,,,,,,,,13:18:19:596,13:18:20:329,13:18:23:315,right,13:18:23:682,,,2018_Jun_05_1236,59.9404996156,MP-Perception Experiment,xx09w23,
443,vgpdm_dyn(25)-lvm(35)_final(1).mov,True,left,2,training(17).mov,0,124,124,6,,,,,,,,13:18:24:458,13:18:25:183,13:18:28:171,left,13:18:28:638,,,2018_Jun_05_1236,59.9404996156,MP-Perception Experiment,xx09w23,
444,vcgpdm_dyn(5)-lvm(15)_final(4).mov,False,left,2,training(4).mov,0,125,125,1,,,,,,,,13:18:29:399,13:18:30:139,13:18:33:158,left,13:18:33:692,,,2018_Jun_05_1236,59.9404996156,MP-Perception Experiment,xx09w23,
445,training(19).mov,False,right,2,vcgpdm_dyn(30)-lvm(20)_final(2).mov,0,126,126,64,,,,,,,,13:18:34:453,13:18:35:211,13:18:38:197,left,13:18:38:548,,,2018_Jun_05_1236,59.9404996156,MP-Perception Experiment,xx09w23,
446,vcgpdm_dyn(20)-lvm(25)_final(6).mov,False,left,2,training(41).mov,0,127,127,12,,,,,,,,13:18:39:307,13:18:40:065,13:18:43:067,left,13:18:43:685,,,2018_Jun_05_1236,59.9404996156,MP-Perception Experiment,xx09w23,
447,training(30).mov,False,right,2,vgpdm_dyn(5)-lvm(15)_final(1).mov,0,128,128,112,,,,,,,,13:18:44:464,13:18:45:186,13:18:48:205,right,13:18:48:555,,,2018_Jun_05_1236,59.9404996156,MP-Perception Experiment,xx09w23,
448,training(20).mov,True,right,2,vcgpdm_dyn(5)-lvm(10)_final(9).mov,0,129,129,37,,,,,,,,13:18:49:333,13:18:50:056,13:18:53:076,right,13:18:53:460,,,2018_Jun_05_1236,59.9404996156,MP-Perception Experiment,xx09w23,
449,training(5).mov,True,right,2,vcgpdm_dyn(35)-lvm(20)_final(6).mov,0,130,130,21,,,,,,,,13:18:54:220,13:18:54:961,13:18:57:981,right,13:18:58:281,,,2018_Jun_05_1236,59.9404996156,MP-Perception Experiment,xx09w23,
450,map_gpdm_final(9).mov,True,left,2,training(41).mov,0,131,131,55,,,,,,,,13:18:59:065,13:18:59:798,13:19:02:784,left,13:19:03:168,,,2018_Jun_05_1236,59.9404996156,MP-Perception Experiment,xx09w23,
451,vcgpdm_dyn(25)-lvm(30)_final(9).mov,False,left,2,training(0).mov,0,132,132,73,,,,,,,,13:19:03:942,13:19:04:684,13:19:07:686,right,13:19:07:970,,,2018_Jun_05_1236,59.9404996156,MP-Perception Experiment,xx09w23,
452,training(36).mov,True,right,2,vgpdm_dyn(5)-lvm(10)_final(0).mov,0,133,133,74,,,,,,,,13:19:08:742,13:19:09:472,13:19:12:475,right,13:19:12:842,,,2018_Jun_05_1236,59.9404996156,MP-Perception Experiment,xx09w23,
453,training(10).mov,True,right,2,vcgpdm_dyn(10)-lvm(25)_final(9).mov,0,134,134,40,,,,,,,,13:19:13:618,13:19:14:359,13:19:17:347,right,13:19:17:664,,,2018_Jun_05_1236,59.9404996156,MP-Perception Experiment,xx09w23,
454,training(25).mov,True,right,2,vgpdm_dyn(30)-lvm(30)_final(1).mov,0,135,135,5,,,,,,,,13:19:18:428,13:19:19:165,13:19:22:168,left,13:19:22:601,,,2018_Jun_05_1236,59.9404996156,MP-Perception Experiment,xx09w23,
455,vgpdm_dyn(15)-lvm(35)_final(8).mov,False,left,2,training(8).mov,0,136,136,118,,,,,,,,13:19:23:371,13:19:24:102,13:19:27:123,right,13:19:27:656,,,2018_Jun_05_1236,59.9404996156,MP-Perception Experiment,xx09w23,
456,vcgpdm_dyn(15)-lvm(15)_final(2).mov,True,left,2,training(11).mov,0,137,137,82,,,,,,,,13:19:28:417,13:19:29:157,13:19:32:177,left,13:19:32:277,,,2018_Jun_05_1236,59.9404996156,MP-Perception Experiment,xx09w23,
457,training(19).mov,True,right,2,vgpdm_dyn(10)-lvm(35)_final(7).mov,0,138,138,44,,,,,,,,13:19:33:043,13:19:33:795,13:19:36:781,right,13:19:37:147,,,2018_Jun_05_1236,59.9404996156,MP-Perception Experiment,xx09w23,
458,vcgpdm_dyn(25)-lvm(35)_final(8).mov,True,left,2,training(5).mov,0,139,139,34,,,,,,,,13:19:37:915,13:19:38:648,13:19:41:651,left,13:19:41:968,,,2018_Jun_05_1236,59.9404996156,MP-Perception Experiment,xx09w23,
459,vgpdm_dyn(10)-lvm(5)_final(7).mov,True,left,2,training(29).mov,0,140,140,2,,,,,,,,13:19:42:733,13:19:43:469,13:19:46:489,left,13:19:46:956,,,2018_Jun_05_1236,59.9404996156,MP-Perception Experiment,xx09w23,
460,training(29).mov,False,right,2,vcgpdm_dyn(30)-lvm(30)_final(0).mov,0,141,141,31,,,,,,,,13:19:47:721,13:19:48:457,13:19:51:460,right,13:19:51:777,,,2018_Jun_05_1236,59.9404996156,MP-Perception Experiment,xx09w23,
461,dmp_npsi(20)_final(8).mov,False,left,2,training(40).mov,0,142,142,91,,,,,,,,13:19:52:559,13:19:53:278,13:19:56:279,left,13:19:56:662,,,2018_Jun_05_1236,59.9404996156,MP-Perception Experiment,xx09w23,
462,training(34).mov,True,right,2,vcgpdm_dyn(10)-lvm(20)_final(3).mov,0,143,143,28,,,,,,,,13:19:57:417,13:19:58:164,13:20:01:166,right,13:20:01:483,,,2018_Jun_05_1236,59.9404996156,MP-Perception Experiment,xx09w23,
463,vgpdm_dyn(20)-lvm(30)_final(9).mov,True,left,2,training(25).mov,0,144,144,144,,,,,,,,13:20:02:246,13:20:02:985,13:20:05:989,left,13:20:06:556,,,2018_Jun_05_1236,59.9404996156,MP-Perception Experiment,xx09w23,
464,vgpdm_dyn(15)-lvm(15)_final(8).mov,True,left,2,training(20).mov,0,145,145,154,,,,,,,,13:20:07:315,13:20:08:074,13:20:11:077,left,13:20:11:410,,,2018_Jun_05_1236,59.9404996156,MP-Perception Experiment,xx09w23,
465,tmp_numprim(7)_final(5).mov,True,left,2,training(30).mov,0,146,146,11,,,,,,,,13:20:12:174,13:20:12:911,13:20:15:931,left,13:20:16:298,,,2018_Jun_05_1236,59.9404996156,MP-Perception Experiment,xx09w23,
466,vcgpdm_dyn(20)-lvm(10)_final(0).mov,False,left,2,training(8).mov,0,147,147,158,,,,,,,,13:20:17:061,13:20:17:799,13:20:20:819,left,13:20:21:287,,,2018_Jun_05_1236,59.9404996156,MP-Perception Experiment,xx09w23,
467,training(41).mov,True,right,2,vgpdm_dyn(30)-lvm(20)_final(1).mov,0,148,148,60,,,,,,,,13:20:22:049,13:20:22:804,13:20:25:790,right,13:20:26:207,,,2018_Jun_05_1236,59.9404996156,MP-Perception Experiment,xx09w23,
468,vcgpdm_dyn(5)-lvm(10)_final(2).mov,True,left,2,training(7).mov,0,149,149,62,,,,,,,,13:20:26:970,13:20:27:708,13:20:30:710,left,13:20:31:060,,,2018_Jun_05_1236,59.9404996156,MP-Perception Experiment,xx09w23,
469,vcgpdm_dyn(25)-lvm(30)_final(3).mov,False,left,2,training(30).mov,0,150,150,95,,,,,,,,13:20:31:822,13:20:32:562,13:20:35:564,right,13:20:36:048,,,2018_Jun_05_1236,59.9404996156,MP-Perception Experiment,xx09w23,
470,training(10).mov,True,right,2,vcgpdm_dyn(35)-lvm(10)_final(4).mov,0,151,151,51,,,,,,,,13:20:36:824,13:20:37:550,13:20:40:569,right,13:20:41:003,,,2018_Jun_05_1236,59.9404996156,MP-Perception Experiment,xx09w23,
