trial_number,right,flipped,correct,block,left,trials.thisRepN,trials.thisTrialN,trials.thisN,trials.thisIndex,flipwelcome.keys,flipwelcome.corr,flipwelcome.rt,flippreparations.keys,flippreparations.rt,flipInstructions.keys,flipInstructions.rt,time_at_fixation_cross_onset,time_at_videoonset,time_at_videoend,participant_key_response,time_at_key_response,key_resp_4.keys,date,frameRate,expName,participant,
,,,,,,,,,,space,0,59.166869907,,,,,,,,,,,2018_Jun_05_1457,59.9339536646,MP-Perception Experiment,xx10m25,
,,,,,,,,,,,,,space,14.1970743631,,,,,,,,,2018_Jun_05_1457,59.9339536646,MP-Perception Experiment,xx10m25,
,,,,,,,,,,,,,,,space,13.4616914797,,,,,,,2018_Jun_05_1457,59.9339536646,MP-Perception Experiment,xx10m25,
1,vcgpdm_dyn(5)-lvm(10)_final(4).mov,False,left,0,training(10).mov,0,0,0,43,,,,,,,,14:59:28:645,14:59:29:253,14:59:32:239,right,14:59:33:173,,2018_Jun_05_1457,59.9339536646,MP-Perception Experiment,xx10m25,
2,training(12).mov,True,right,0,dmp_npsi(10)_final(4)_bad.mov,0,1,1,115,,,,,,,,14:59:33:940,14:59:34:691,14:59:37:676,right,14:59:38:427,,2018_Jun_05_1457,59.9339536646,MP-Perception Experiment,xx10m25,
3,tmp_numprim(8)_final(6).mov,False,left,0,training(20).mov,0,2,2,20,,,,,,,,14:59:39:178,14:59:39:929,14:59:42:930,right,14:59:45:065,,2018_Jun_05_1457,59.9339536646,MP-Perception Experiment,xx10m25,
4,training(37).mov,True,right,0,dmp_npsi(15)_final(9).mov,0,3,3,39,,,,,,,,14:59:45:826,14:59:46:586,14:59:49:569,right,14:59:50:286,,2018_Jun_05_1457,59.9339536646,MP-Perception Experiment,xx10m25,
5,training(0).mov,True,right,0,tmp_numprim(5)_final(9).mov,0,4,4,63,,,,,,,,14:59:51:059,14:59:51:787,14:59:54:775,right,14:59:56:576,,2018_Jun_05_1457,59.9339536646,MP-Perception Experiment,xx10m25,
6,vgpdm_dyn(35)-lvm(35)_final(9).mov,True,left,0,training(13).mov,0,5,5,131,,,,,,,,14:59:57:340,14:59:58:078,15:00:01:080,left,15:00:03:599,,2018_Jun_05_1457,59.9339536646,MP-Perception Experiment,xx10m25,
7,training(6).mov,True,right,0,vcgpdm_dyn(10)-lvm(20)_final(4).mov,0,6,6,145,,,,,,,,15:00:04:367,15:00:05:101,15:00:08:103,right,15:00:08:737,,2018_Jun_05_1457,59.9339536646,MP-Perception Experiment,xx10m25,
8,vgpdm_dyn(35)-lvm(35)_final(9).mov,True,left,0,training(22).mov,0,7,7,72,,,,,,,,15:00:09:491,15:00:10:238,15:00:13:240,right,15:00:16:061,,2018_Jun_05_1457,59.9339536646,MP-Perception Experiment,xx10m25,
9,vgpdm_dyn(10)-lvm(35)_final(1).mov,True,left,0,training(5).mov,0,8,8,25,,,,,,,,15:00:16:820,15:00:17:578,15:00:20:564,left,15:00:21:115,,2018_Jun_05_1457,59.9339536646,MP-Perception Experiment,xx10m25,
10,training(26).mov,True,right,0,vcgpdm_dyn(30)-lvm(20)_final(7).mov,0,9,9,137,,,,,,,,15:00:21:873,15:00:22:616,15:00:25:618,right,15:00:27:103,,2018_Jun_05_1457,59.9339536646,MP-Perception Experiment,xx10m25,
11,training(12).mov,False,right,0,vcgpdm_dyn(30)-lvm(10)_final(4).mov,0,10,10,45,,,,,,,,15:00:27:849,15:00:28:604,15:00:31:604,left,15:00:32:238,,2018_Jun_05_1457,59.9339536646,MP-Perception Experiment,xx10m25,
12,vgpdm_dyn(35)-lvm(10)_final(6).mov,True,left,0,training(21).mov,0,11,11,79,,,,,,,,15:00:32:989,15:00:33:757,15:00:36:743,right,15:00:38:394,,2018_Jun_05_1457,59.9339536646,MP-Perception Experiment,xx10m25,
13,training(34).mov,False,right,0,dmp_npsi(30)_final(1).mov,0,12,12,146,,,,,,,,15:00:39:154,15:00:39:896,15:00:42:900,right,15:00:43:334,,2018_Jun_05_1457,59.9339536646,MP-Perception Experiment,xx10m25,
14,vgpdm_dyn(20)-lvm(20)_final(3).mov,False,left,0,training(48).mov,0,13,13,31,,,,,,,,15:00:44:089,15:00:44:835,15:00:47:837,left,15:00:49:071,,2018_Jun_05_1457,59.9339536646,MP-Perception Experiment,xx10m25,
15,vgpdm_dyn(20)-lvm(5)_final(6).mov,True,left,0,training(0).mov,0,14,14,99,,,,,,,,15:00:49:822,15:00:50:574,15:00:53:576,right,15:00:56:328,,2018_Jun_05_1457,59.9339536646,MP-Perception Experiment,xx10m25,
16,training(25).mov,False,right,0,vcgpdm_dyn(5)-lvm(5)_final(3).mov,0,15,15,81,,,,,,,,15:00:57:085,15:00:57:829,15:01:00:832,right,15:01:01:249,,2018_Jun_05_1457,59.9339536646,MP-Perception Experiment,xx10m25,
17,training(1).mov,True,right,0,vcgpdm_dyn(5)-lvm(25)_final(6).mov,0,16,16,19,,,,,,,,15:01:02:008,15:01:02:750,15:01:05:769,right,15:01:06:270,,2018_Jun_05_1457,59.9339536646,MP-Perception Experiment,xx10m25,
18,vgpdm_dyn(5)-lvm(30)_final(6).mov,False,left,0,training(2).mov,0,17,17,109,,,,,,,,15:01:07:090,15:01:07:788,15:01:10:791,left,15:01:11:208,,2018_Jun_05_1457,59.9339536646,MP-Perception Experiment,xx10m25,
19,training(9).mov,False,right,0,vcgpdm_dyn(10)-lvm(5)_final(7).mov,0,18,18,101,,,,,,,,15:01:11:962,15:01:12:709,15:01:15:712,left,15:01:17:913,,2018_Jun_05_1457,59.9339536646,MP-Perception Experiment,xx10m25,
20,vgpdm_dyn(15)-lvm(20)_final(3)_out_of_screen.mov,True,left,0,training(16).mov,0,19,19,126,,,,,,,,15:01:18:666,15:01:19:414,15:01:22:415,left,15:01:22:916,,2018_Jun_05_1457,59.9339536646,MP-Perception Experiment,xx10m25,
21,vgpdm_dyn(20)-lvm(5)_final(3).mov,False,left,0,training(3).mov,0,20,20,46,,,,,,,,15:01:23:684,15:01:24:417,15:01:27:420,left,15:01:32:376,,2018_Jun_05_1457,59.9339536646,MP-Perception Experiment,xx10m25,
22,training(40).mov,False,right,0,vgpdm_dyn(5)-lvm(10)_final(0).mov,0,21,21,78,,,,,,,,15:01:33:134,15:01:33:877,15:01:36:880,right,15:01:37:380,,2018_Jun_05_1457,59.9339536646,MP-Perception Experiment,xx10m25,
23,vcgpdm_dyn(20)-lvm(25)_final(2).mov,True,left,0,training(35).mov,0,22,22,104,,,,,,,,15:01:38:138,15:01:38:881,15:01:41:884,left,15:01:45:171,,2018_Jun_05_1457,59.9339536646,MP-Perception Experiment,xx10m25,
24,vgpdm_dyn(20)-lvm(15)_final(2).mov,True,left,0,training(36).mov,0,23,23,32,,,,,,,,15:01:45:976,15:01:46:688,15:01:49:691,right,15:01:51:426,,2018_Jun_05_1457,59.9339536646,MP-Perception Experiment,xx10m25,
25,vcgpdm_dyn(10)-lvm(5)_final(3).mov,False,left,0,training(33).mov,0,24,24,82,,,,,,,,15:01:52:184,15:01:52:927,15:01:55:930,left,15:01:57:014,,2018_Jun_05_1457,59.9339536646,MP-Perception Experiment,xx10m25,
26,training(0).mov,True,right,0,vgpdm_dyn(35)-lvm(25)_final(7).mov,0,25,25,91,,,,,,,,15:01:57:771,15:01:58:515,15:02:01:518,left,15:02:02:970,,2018_Jun_05_1457,59.9339536646,MP-Perception Experiment,xx10m25,
27,training(8).mov,False,right,0,vgpdm_dyn(15)-lvm(5)_final(8).mov,0,26,26,16,,,,,,,,15:02:03:751,15:02:04:470,15:02:07:473,right,15:02:08:357,,2018_Jun_05_1457,59.9339536646,MP-Perception Experiment,xx10m25,
28,vgpdm_dyn(10)-lvm(15)_final(9).mov,False,left,0,training(40).mov,0,27,27,154,,,,,,,,15:02:09:112,15:02:09:858,15:02:12:859,right,15:02:13:710,,2018_Jun_05_1457,59.9339536646,MP-Perception Experiment,xx10m25,
29,vcgpdm_dyn(5)-lvm(15)_final(8).mov,True,left,0,training(4).mov,0,28,28,138,,,,,,,,15:02:14:487,15:02:15:211,15:02:18:214,left,15:02:18:615,,2018_Jun_05_1457,59.9339536646,MP-Perception Experiment,xx10m25,
30,training(29).mov,False,right,0,vgpdm_dyn(10)-lvm(20)_final(2).mov,0,29,29,113,,,,,,,,15:02:19:395,15:02:20:116,15:02:23:118,right,15:02:23:418,,2018_Jun_05_1457,59.9339536646,MP-Perception Experiment,xx10m25,
31,vcgpdm_dyn(25)-lvm(15)_final(8).mov,False,left,0,training(20).mov,0,30,30,96,,,,,,,,15:02:24:187,15:02:24:921,15:02:27:907,right,15:02:29:042,,2018_Jun_05_1457,59.9339536646,MP-Perception Experiment,xx10m25,
32,training(0).mov,False,right,0,vgpdm_dyn(35)-lvm(25)_final(6).mov,0,31,31,144,,,,,,,,15:02:29:816,15:02:30:543,15:02:33:545,left,15:02:35:148,,2018_Jun_05_1457,59.9339536646,MP-Perception Experiment,xx10m25,
33,vcgpdm_dyn(10)-lvm(30)_final(1).mov,True,left,0,training(2).mov,0,32,32,65,,,,,,,,15:02:35:908,15:02:36:649,15:02:39:668,right,15:02:40:101,,2018_Jun_05_1457,59.9339536646,MP-Perception Experiment,xx10m25,
34,tmp_numprim(10)_final(7).mov,False,left,0,training(33).mov,0,33,33,84,,,,,,,,15:02:40:867,15:02:41:603,15:02:44:622,right,15:02:45:206,,2018_Jun_05_1457,59.9339536646,MP-Perception Experiment,xx10m25,
35,vgpdm_dyn(15)-lvm(25)_final(4).mov,True,left,0,training(0).mov,0,34,34,127,,,,,,,,15:02:45:954,15:02:46:707,15:02:49:709,left,15:02:52:095,,2018_Jun_05_1457,59.9339536646,MP-Perception Experiment,xx10m25,
36,training(2).mov,False,right,0,vcgpdm_dyn(20)-lvm(15)_final(2).mov,0,35,35,106,,,,,,,,15:02:52:852,15:02:53:597,15:02:56:616,right,15:03:01:701,,2018_Jun_05_1457,59.9339536646,MP-Perception Experiment,xx10m25,
37,training(23).mov,True,right,0,vcgpdm_dyn(25)-lvm(30)_final(7).mov,0,36,36,68,,,,,,,,15:03:02:471,15:03:03:203,15:03:06:205,left,15:03:06:722,,2018_Jun_05_1457,59.9339536646,MP-Perception Experiment,xx10m25,
38,vcgpdm_dyn(15)-lvm(10)_final(1).mov,True,left,0,training(9).mov,0,37,37,134,,,,,,,,15:03:07:456,15:03:08:223,15:03:11:227,left,15:03:11:827,,2018_Jun_05_1457,59.9339536646,MP-Perception Experiment,xx10m25,
39,training(16).mov,True,right,0,map_cgpdm_final(3).mov,0,38,38,47,,,,,,,,15:03:12:591,15:03:13:330,15:03:16:333,left,15:03:23:288,,2018_Jun_05_1457,59.9339536646,MP-Perception Experiment,xx10m25,
40,training(9).mov,True,right,0,vcgpdm_dyn(35)-lvm(10)_final(4).mov,0,39,39,114,,,,,,,,15:03:24:049,15:03:24:806,15:03:27:793,right,15:03:28:277,,2018_Jun_05_1457,59.9339536646,MP-Perception Experiment,xx10m25,
41,training(17).mov,True,right,0,vcgpdm_dyn(30)-lvm(15)_final(0).mov,0,40,40,85,,,,,,,,15:03:29:055,15:03:29:778,15:03:32:780,right,15:03:33:348,,2018_Jun_05_1457,59.9339536646,MP-Perception Experiment,xx10m25,
42,training(14).mov,True,right,0,tmp_numprim(8)_final(8).mov,0,41,41,8,,,,,,,,15:03:34:127,15:03:34:849,15:03:37:851,right,15:03:39:002,,2018_Jun_05_1457,59.9339536646,MP-Perception Experiment,xx10m25,
43,vgpdm_dyn(35)-lvm(10)_final(1).mov,True,left,0,training(21).mov,0,42,42,139,,,,,,,,15:03:39:744,15:03:40:503,15:03:43:506,right,15:03:44:123,,2018_Jun_05_1457,59.9339536646,MP-Perception Experiment,xx10m25,
44,vcgpdm_dyn(15)-lvm(5)_final(7).mov,True,left,0,training(23).mov,0,43,43,67,,,,,,,,15:03:44:894,15:03:45:641,15:03:48:628,left,15:03:50:143,,2018_Jun_05_1457,59.9339536646,MP-Perception Experiment,xx10m25,
45,tmp_numprim(10)_final(9).mov,True,left,0,training(22).mov,0,44,44,121,,,,,,,,15:03:50:910,15:03:51:661,15:03:54:647,right,15:03:55:031,,2018_Jun_05_1457,59.9339536646,MP-Perception Experiment,xx10m25,
46,training(22).mov,True,right,0,vcgpdm_dyn(35)-lvm(30)_final(9).mov,0,45,45,1,,,,,,,,15:03:55:798,15:03:56:532,15:03:59:534,left,15:04:00:068,,2018_Jun_05_1457,59.9339536646,MP-Perception Experiment,xx10m25,
47,vgpdm_dyn(10)-lvm(5)_final(8).mov,True,left,0,training(18).mov,0,46,46,153,,,,,,,,15:04:00:825,15:04:01:569,15:04:04:558,left,15:04:05:809,,2018_Jun_05_1457,59.9339536646,MP-Perception Experiment,xx10m25,
48,training(33).mov,False,right,0,vcgpdm_dyn(30)-lvm(10)_final(1).mov,0,47,47,155,,,,,,,,15:04:06:552,15:04:07:310,15:04:10:313,left,15:04:14:566,,2018_Jun_05_1457,59.9339536646,MP-Perception Experiment,xx10m25,
49,vcgpdm_dyn(10)-lvm(20)_final(3).mov,True,left,0,training(4).mov,0,48,48,71,,,,,,,,15:04:15:322,15:04:16:067,15:04:19:086,left,15:04:19:754,,2018_Jun_05_1457,59.9339536646,MP-Perception Experiment,xx10m25,
50,vgpdm_dyn(25)-lvm(35)_final(5).mov,False,left,0,training(4).mov,0,49,49,120,,,,,,,,15:04:20:535,15:04:21:272,15:04:24:259,right,15:04:25:176,,2018_Jun_05_1457,59.9339536646,MP-Perception Experiment,xx10m25,
51,vgpdm_dyn(35)-lvm(5)_final(8).mov,True,left,0,training(5).mov,0,50,50,90,,,,,,,,15:04:25:950,15:04:26:677,15:04:29:679,left,15:04:30:313,,2018_Jun_05_1457,59.9339536646,MP-Perception Experiment,xx10m25,
52,vgpdm_dyn(20)-lvm(30)_final(8).mov,True,left,0,training(40).mov,0,51,51,152,,,,,,,,15:04:31:072,15:04:31:831,15:04:34:817,right,15:04:35:684,,2018_Jun_05_1457,59.9339536646,MP-Perception Experiment,xx10m25,
53,vgpdm_dyn(5)-lvm(15)_final(4).mov,False,left,0,training(41).mov,0,52,52,98,,,,,,,,15:04:36:449,15:04:37:186,15:04:40:187,left,15:04:40:721,,2018_Jun_05_1457,59.9339536646,MP-Perception Experiment,xx10m25,
54,dmp_npsi(50)_final(4).mov,False,left,0,training(26).mov,0,53,53,10,,,,,,,,15:04:41:478,15:04:42:222,15:04:45:224,left,15:04:46:892,,2018_Jun_05_1457,59.9339536646,MP-Perception Experiment,xx10m25,
55,training(33).mov,False,right,0,vgpdm_dyn(35)-lvm(35)_final(9).mov,0,54,54,14,,,,,,,,15:04:47:640,15:04:48:393,15:04:51:396,right,15:04:51:713,,2018_Jun_05_1457,59.9339536646,MP-Perception Experiment,xx10m25,
56,vgpdm_dyn(35)-lvm(20)_final(7)_out_of_screen.mov,True,left,0,training(14).mov,0,55,55,42,,,,,,,,15:04:52:476,15:04:53:231,15:04:56:219,left,15:04:56:753,,2018_Jun_05_1457,59.9339536646,MP-Perception Experiment,xx10m25,
57,vcgpdm_dyn(20)-lvm(30)_final(4).mov,False,left,0,training(9).mov,0,56,56,108,,,,,,,,15:04:57:514,15:04:58:254,15:05:01:257,right,15:05:01:790,,2018_Jun_05_1457,59.9339536646,MP-Perception Experiment,xx10m25,
58,training(22).mov,False,right,0,vgpdm_dyn(15)-lvm(15)_final(2).mov,0,57,57,135,,,,,,,,15:05:02:561,15:05:03:292,15:05:06:294,left,15:05:09:030,,2018_Jun_05_1457,59.9339536646,MP-Perception Experiment,xx10m25,
59,vcgpdm_dyn(25)-lvm(10)_final(9).mov,True,left,0,training(38).mov,0,58,58,151,,,,,,,,15:05:09:791,15:05:10:531,15:05:13:534,left,15:05:17:421,,2018_Jun_05_1457,59.9339536646,MP-Perception Experiment,xx10m25,
60,training(26).mov,False,right,0,vcgpdm_dyn(5)-lvm(20)_final(4).mov,0,59,59,149,,,,,,,,15:05:18:205,15:05:18:922,15:05:21:924,left,15:05:30:514,,2018_Jun_05_1457,59.9339536646,MP-Perception Experiment,xx10m25,
61,vgpdm_dyn(20)-lvm(35)_final(1).mov,False,left,0,training(16).mov,0,60,60,88,,,,,,,,15:05:31:285,15:05:32:015,15:05:35:017,right,15:05:36:402,,2018_Jun_05_1457,59.9339536646,MP-Perception Experiment,xx10m25,
62,training(40).mov,True,right,0,tmp_numprim(5)_final(9).mov,0,61,61,2,,,,,,,,15:05:37:156,15:05:37:903,15:05:40:906,left,15:05:41:223,,2018_Jun_05_1457,59.9339536646,MP-Perception Experiment,xx10m25,
63,training(37).mov,True,right,0,vcgpdm_dyn(5)-lvm(25)_final(8).mov,0,62,62,30,,,,,,,,15:05:42:000,15:05:42:725,15:05:45:711,right,15:05:46:295,,2018_Jun_05_1457,59.9339536646,MP-Perception Experiment,xx10m25,
64,vcgpdm_dyn(25)-lvm(20)_final(3).mov,False,left,0,training(16).mov,0,63,63,150,,,,,,,,15:05:47:056,15:05:47:797,15:05:50:800,left,15:05:51:717,,2018_Jun_05_1457,59.9339536646,MP-Perception Experiment,xx10m25,
65,training(39).mov,True,right,0,vcgpdm_dyn(10)-lvm(15)_final(0).mov,0,64,64,64,,,,,,,,15:05:52:476,15:05:53:218,15:05:56:221,right,15:05:59:373,,2018_Jun_05_1457,59.9339536646,MP-Perception Experiment,xx10m25,
66,vgpdm_dyn(15)-lvm(15)_final(8).mov,True,left,0,training(36).mov,0,65,65,133,,,,,,,,15:06:00:110,15:06:00:874,15:06:03:877,left,15:06:04:411,,2018_Jun_05_1457,59.9339536646,MP-Perception Experiment,xx10m25,
67,training(37).mov,False,right,0,vgpdm_dyn(10)-lvm(25)_final(1).mov,0,66,66,59,,,,,,,,15:06:05:166,15:06:05:913,15:06:08:915,left,15:06:09:449,,2018_Jun_05_1457,59.9339536646,MP-Perception Experiment,xx10m25,
68,vgpdm_dyn(20)-lvm(25)_final(0).mov,False,left,0,training(22).mov,0,67,67,74,,,,,,,,15:06:10:216,15:06:10:950,15:06:13:953,left,15:06:14:503,,2018_Jun_05_1457,59.9339536646,MP-Perception Experiment,xx10m25,
69,vcgpdm_dyn(15)-lvm(20)_final(2).mov,False,left,0,training(13).mov,0,68,68,141,,,,,,,,15:06:15:272,15:06:16:004,15:06:19:007,left,15:06:21:340,,2018_Jun_05_1457,59.9339536646,MP-Perception Experiment,xx10m25,
70,training(28).mov,True,right,0,dmp_npsi(45)_final(4).mov,0,69,69,156,,,,,,,,15:06:22:105,15:06:22:842,15:06:25:845,left,15:06:26:595,,2018_Jun_05_1457,59.9339536646,MP-Perception Experiment,xx10m25,
71,training(8).mov,False,right,0,dmp_npsi(40)_final(4).mov,0,70,70,157,,,,,,,,15:06:27:378,15:06:28:097,15:06:31:099,right,15:06:31:566,,2018_Jun_05_1457,59.9339536646,MP-Perception Experiment,xx10m25,
72,vcgpdm_dyn(25)-lvm(10)_final(3).mov,True,left,0,training(35).mov,0,71,71,142,,,,,,,,15:06:32:320,15:06:33:069,15:06:36:071,right,15:06:38:640,,2018_Jun_05_1457,59.9339536646,MP-Perception Experiment,xx10m25,
73,training(17).mov,True,right,0,vcgpdm_dyn(25)-lvm(35)_final(9).mov,0,72,72,28,,,,,,,,15:06:39:419,15:06:40:142,15:06:43:145,right,15:06:44:329,,2018_Jun_05_1457,59.9339536646,MP-Perception Experiment,xx10m25,
74,vcgpdm_dyn(30)-lvm(30)_final(8).mov,True,left,0,training(5).mov,0,73,73,130,,,,,,,,15:06:45:096,15:06:45:830,15:06:48:833,left,15:06:49:116,,2018_Jun_05_1457,59.9339536646,MP-Perception Experiment,xx10m25,
75,vcgpdm_dyn(30)-lvm(25)_final(6).mov,False,left,0,training(9).mov,0,74,74,94,,,,,,,,15:06:49:869,15:06:50:634,15:06:53:620,right,15:06:55:523,,2018_Jun_05_1457,59.9339536646,MP-Perception Experiment,xx10m25,
76,training(38).mov,True,right,0,vgpdm_dyn(5)-lvm(10)_final(9).mov,0,75,75,54,,,,,,,,15:06:56:292,15:06:57:040,15:07:00:043,right,15:07:00:727,,2018_Jun_05_1457,59.9339536646,MP-Perception Experiment,xx10m25,
77,training(7).mov,True,right,0,vcgpdm_dyn(30)-lvm(35)_final(2).mov,0,76,76,57,,,,,,,,15:07:01:513,15:07:02:245,15:07:05:230,left,15:07:10:299,,2018_Jun_05_1457,59.9339536646,MP-Perception Experiment,xx10m25,
78,vcgpdm_dyn(30)-lvm(15)_final(6).mov,True,left,0,training(41).mov,0,77,77,75,,,,,,,,15:07:11:043,15:07:11:801,15:07:14:804,right,15:07:16:989,,2018_Jun_05_1457,59.9339536646,MP-Perception Experiment,xx10m25,
79,vcgpdm_dyn(30)-lvm(30)_final(4).mov,False,left,0,training(13).mov,0,78,78,61,,,,,,,,15:07:17:740,15:07:18:490,15:07:21:493,left,15:07:21:995,,2018_Jun_05_1457,59.9339536646,MP-Perception Experiment,xx10m25,
80,vgpdm_dyn(35)-lvm(25)_final(0).mov,False,left,0,training(16).mov,0,79,79,50,,,,,,,,15:07:22:761,15:07:23:496,15:07:26:498,right,15:07:27:099,,2018_Jun_05_1457,59.9339536646,MP-Perception Experiment,xx10m25,
81,training(34).mov,True,right,0,vcgpdm_dyn(20)-lvm(15)_final(2).mov,0,80,80,44,,,,,,,,15:07:27:849,15:07:28:600,15:07:31:620,left,15:07:32:354,,2018_Jun_05_1457,59.9339536646,MP-Perception Experiment,xx10m25,
82,vgpdm_dyn(25)-lvm(30)_final(3).mov,True,left,0,training(6).mov,0,81,81,110,,,,,,,,15:07:33:123,15:07:33:855,15:07:36:874,left,15:07:37:392,,2018_Jun_05_1457,59.9339536646,MP-Perception Experiment,xx10m25,
83,training(35).mov,True,right,0,vgpdm_dyn(35)-lvm(10)_final(4).mov,0,82,82,13,,,,,,,,15:07:38:149,15:07:38:893,15:07:41:912,right,15:07:43:547,,2018_Jun_05_1457,59.9339536646,MP-Perception Experiment,xx10m25,
84,dmp_npsi(45)_final(4).mov,False,left,0,training(41).mov,0,83,83,128,,,,,,,,15:07:44:299,15:07:45:048,15:07:48:050,left,15:07:48:468,,2018_Jun_05_1457,59.9339536646,MP-Perception Experiment,xx10m25,
85,vgpdm_dyn(15)-lvm(30)_final(8).mov,True,left,0,training(40).mov,0,84,84,3,,,,,,,,15:07:49:230,15:07:49:986,15:07:52:989,left,15:07:53:389,,2018_Jun_05_1457,59.9339536646,MP-Perception Experiment,xx10m25,
86,training(0).mov,False,right,0,vgpdm_dyn(30)-lvm(5)_final(9).mov,0,85,85,123,,,,,,,,15:07:54:155,15:07:54:907,15:07:57:892,right,15:07:59:110,,2018_Jun_05_1457,59.9339536646,MP-Perception Experiment,xx10m25,
87,training(17).mov,True,right,0,vcgpdm_dyn(15)-lvm(30)_final(6).mov,0,86,86,77,,,,,,,,15:07:59:872,15:08:00:626,15:08:03:612,left,15:08:03:879,,2018_Jun_05_1457,59.9339536646,MP-Perception Experiment,xx10m25,
88,vcgpdm_dyn(25)-lvm(15)_final(7).mov,True,left,0,training(30).mov,0,87,87,122,,,,,,,,15:08:04:660,15:08:05:380,15:08:08:384,right,15:08:10:285,,2018_Jun_05_1457,59.9339536646,MP-Perception Experiment,xx10m25,
89,training(48).mov,True,right,0,vgpdm_dyn(5)-lvm(30)_final(4).mov,0,88,88,56,,,,,,,,15:08:11:033,15:08:11:786,15:08:14:774,right,15:08:15:391,,2018_Jun_05_1457,59.9339536646,MP-Perception Experiment,xx10m25,
90,training(13).mov,False,right,0,tmp_numprim(9)_final(7).mov,0,89,89,60,,,,,,,,15:08:16:148,15:08:16:909,15:08:19:895,left,15:08:21:096,,2018_Jun_05_1457,59.9339536646,MP-Perception Experiment,xx10m25,
91,training(3).mov,False,right,0,vcgpdm_dyn(20)-lvm(15)_final(0).mov,0,90,90,89,,,,,,,,15:08:21:863,15:08:22:597,15:08:25:600,right,15:08:26:901,,2018_Jun_05_1457,59.9339536646,MP-Perception Experiment,xx10m25,
92,vcgpdm_dyn(25)-lvm(35)_final(6).mov,True,left,0,training(34).mov,0,91,91,111,,,,,,,,15:08:27:657,15:08:28:402,15:08:31:405,left,15:08:31:805,,2018_Jun_05_1457,59.9339536646,MP-Perception Experiment,xx10m25,
93,tmp_numprim(4)_final(3).mov,False,left,0,training(4).mov,0,92,92,117,,,,,,,,15:08:32:579,15:08:33:306,15:08:36:309,right,15:08:36:727,,2018_Jun_05_1457,59.9339536646,MP-Perception Experiment,xx10m25,
94,training(32).mov,True,right,0,vgpdm_dyn(20)-lvm(25)_final(0).mov,0,93,93,83,,,,,,,,15:08:37:511,15:08:38:260,15:08:41:246,left,15:08:41:680,,2018_Jun_05_1457,59.9339536646,MP-Perception Experiment,xx10m25,
95,training(25).mov,False,right,0,vgpdm_dyn(25)-lvm(5)_final(3).mov,0,94,94,69,,,,,,,,15:08:42:431,15:08:43:182,15:08:46:185,right,15:08:46:668,,2018_Jun_05_1457,59.9339536646,MP-Perception Experiment,xx10m25,
96,vcgpdm_dyn(30)-lvm(35)_final(6).mov,False,left,0,training(18).mov,0,95,95,76,,,,,,,,15:08:47:429,15:08:48:169,15:08:51:170,left,15:08:52:421,,2018_Jun_05_1457,59.9339536646,MP-Perception Experiment,xx10m25,
97,training(13).mov,True,right,0,vcgpdm_dyn(30)-lvm(30)_final(1).mov,0,96,96,73,,,,,,,,15:08:53:178,15:08:53:922,15:08:56:925,right,15:08:57:225,,2018_Jun_05_1457,59.9339536646,MP-Perception Experiment,xx10m25,
98,training(17).mov,False,right,0,vgpdm_dyn(5)-lvm(20)_final(7).mov,0,97,97,34,,,,,,,,15:08:57:979,15:08:58:743,15:09:01:730,right,15:09:01:930,,2018_Jun_05_1457,59.9339536646,MP-Perception Experiment,xx10m25,
99,training(2).mov,True,right,0,vcgpdm_dyn(15)-lvm(5)_final(7).mov,0,98,98,87,,,,,,,,15:09:02:706,15:09:03:448,15:09:06:419,right,15:09:08:437,,2018_Jun_05_1457,59.9339536646,MP-Perception Experiment,xx10m25,
100,training(21).mov,False,right,0,vcgpdm_dyn(20)-lvm(20)_final(9).mov,0,99,99,66,,,,,,,,15:09:09:183,15:09:09:938,15:09:12:940,right,15:09:14:659,,2018_Jun_05_1457,59.9339536646,MP-Perception Experiment,xx10m25,
101,training(39).mov,False,right,0,vcgpdm_dyn(35)-lvm(10)_final(1).mov,0,100,100,86,,,,,,,,15:09:15:411,15:09:16:160,15:09:19:163,left,15:09:22:666,,2018_Jun_05_1457,59.9339536646,MP-Perception Experiment,xx10m25,
102,training(23).mov,True,right,0,map_cgpdm_final(8).mov,0,101,101,102,,,,,,,,15:09:23:428,15:09:24:167,15:09:27:170,right,15:09:28:337,,2018_Jun_05_1457,59.9339536646,MP-Perception Experiment,xx10m25,
103,training(37).mov,True,right,0,tmp_numprim(6)_final(2).mov,0,102,102,147,,,,,,,,15:09:29:109,15:09:29:872,15:09:32:857,right,15:09:38:780,,2018_Jun_05_1457,59.9339536646,MP-Perception Experiment,xx10m25,
104,training(19).mov,True,right,0,vgpdm_dyn(20)-lvm(30)_final(4).mov,0,103,103,55,,,,,,,,15:09:39:558,15:09:40:281,15:09:43:282,right,15:09:46:635,,2018_Jun_05_1457,59.9339536646,MP-Perception Experiment,xx10m25,
105,vcgpdm_dyn(35)-lvm(5)_final(7).mov,False,left,0,training(34).mov,0,104,104,136,,,,,,,,15:09:47:397,15:09:48:136,15:09:51:138,right,15:09:51:422,,2018_Jun_05_1457,59.9339536646,MP-Perception Experiment,xx10m25,
106,training(9).mov,True,right,0,vgpdm_dyn(15)-lvm(30)_final(8).mov,0,105,105,129,,,,,,,,15:09:52:195,15:09:52:926,15:09:55:911,right,15:09:56:279,,2018_Jun_05_1457,59.9339536646,MP-Perception Experiment,xx10m25,
107,training(48).mov,False,right,0,vgpdm_dyn(30)-lvm(15)_final(2).mov,0,106,106,38,,,,,,,,15:09:57:051,15:09:57:780,15:10:00:782,right,15:10:02:066,,2018_Jun_05_1457,59.9339536646,MP-Perception Experiment,xx10m25,
108,vgpdm_dyn(25)-lvm(20)_final(2).mov,True,left,0,training(19).mov,0,107,107,27,,,,,,,,15:10:02:831,15:10:03:584,15:10:06:570,right,15:10:08:822,,2018_Jun_05_1457,59.9339536646,MP-Perception Experiment,xx10m25,
109,vgpdm_dyn(15)-lvm(25)_final(9).mov,True,left,0,training(22).mov,0,108,108,15,,,,,,,,15:10:09:571,15:10:10:341,15:10:13:343,right,15:10:13:644,,2018_Jun_05_1457,59.9339536646,MP-Perception Experiment,xx10m25,
110,vcgpdm_dyn(10)-lvm(25)_final(8).mov,False,left,0,training(17).mov,0,109,109,148,,,,,,,,15:10:14:406,15:10:15:145,15:10:18:147,left,15:10:18:514,,2018_Jun_05_1457,59.9339536646,MP-Perception Experiment,xx10m25,
111,vcgpdm_dyn(25)-lvm(10)_final(9).mov,True,left,0,training(3).mov,0,110,110,36,,,,,,,,15:10:19:267,15:10:20:032,15:10:23:018,left,15:10:24:602,,2018_Jun_05_1457,59.9339536646,MP-Perception Experiment,xx10m25,
112,training(3).mov,True,right,0,tmp_numprim(5)_final(1).mov,0,111,111,140,,,,,,,,15:10:25:355,15:10:26:104,15:10:29:107,left,15:10:34:393,,2018_Jun_05_1457,59.9339536646,MP-Perception Experiment,xx10m25,
113,vgpdm_dyn(15)-lvm(25)_final(0).mov,True,left,0,training(9).mov,0,112,112,107,,,,,,,,15:10:35:150,15:10:35:894,15:10:38:896,right,15:10:39:147,,2018_Jun_05_1457,59.9339536646,MP-Perception Experiment,xx10m25,
114,training(31).mov,False,right,0,tmp_numprim(9)_final(3).mov,0,113,113,95,,,,,,,,15:10:39:946,15:10:40:648,15:10:43:652,right,15:10:43:986,,2018_Jun_05_1457,59.9339536646,MP-Perception Experiment,xx10m25,
115,vcgpdm_dyn(35)-lvm(10)_final(5).mov,False,left,0,training(33).mov,0,114,114,143,,,,,,,,15:10:44:754,15:10:45:488,15:10:48:490,right,15:10:48:924,,2018_Jun_05_1457,59.9339536646,MP-Perception Experiment,xx10m25,
116,vgpdm_dyn(35)-lvm(5)_final(4).mov,False,left,0,training(21).mov,0,115,115,35,,,,,,,,15:10:49:680,15:10:50:425,15:10:53:445,left,15:10:54:979,,2018_Jun_05_1457,59.9339536646,MP-Perception Experiment,xx10m25,
117,training(21).mov,True,right,0,vgpdm_dyn(25)-lvm(5)_final(5).mov,0,116,116,119,,,,,,,,15:10:55:731,15:10:56:480,15:10:59:482,left,15:11:02:302,,2018_Jun_05_1457,59.9339536646,MP-Perception Experiment,xx10m25,
118,vcgpdm_dyn(25)-lvm(5)_final(5).mov,False,left,0,training(22).mov,0,117,117,52,,,,,,,,15:11:03:068,15:11:03:820,15:11:06:806,right,15:11:11:293,,2018_Jun_05_1457,59.9339536646,MP-Perception Experiment,xx10m25,
119,training(39).mov,False,right,0,vgpdm_dyn(15)-lvm(5)_final(0).mov,0,118,118,41,,,,,,,,15:11:12:056,15:11:12:811,15:11:15:797,left,15:11:16:848,,2018_Jun_05_1457,59.9339536646,MP-Perception Experiment,xx10m25,
120,vgpdm_dyn(10)-lvm(25)_final(3).mov,True,left,0,training(39).mov,0,119,119,97,,,,,,,,15:11:17:609,15:11:18:349,15:11:21:367,left,15:11:21:734,,2018_Jun_05_1457,59.9339536646,MP-Perception Experiment,xx10m25,
121,vcgpdm_dyn(30)-lvm(30)_final(3).mov,True,left,0,training(17).mov,0,120,120,125,,,,,,,,15:11:22:506,15:11:23:235,15:11:26:238,left,15:11:26:488,,2018_Jun_05_1457,59.9339536646,MP-Perception Experiment,xx10m25,
122,training(31).mov,False,right,0,vgpdm_dyn(15)-lvm(30)_final(6).mov,0,121,121,12,,,,,,,,15:11:27:273,15:11:27:989,15:11:30:991,right,15:11:31:175,,2018_Jun_05_1457,59.9339536646,MP-Perception Experiment,xx10m25,
123,training(32).mov,True,right,0,vgpdm_dyn(15)-lvm(15)_final(1).mov,0,122,122,24,,,,,,,,15:11:31:945,15:11:32:678,15:11:35:664,right,15:11:36:248,,2018_Jun_05_1457,59.9339536646,MP-Perception Experiment,xx10m25,
124,training(3).mov,True,right,0,vcgpdm_dyn(5)-lvm(5)_final(6).mov,0,123,123,33,,,,,,,,15:11:37:003,15:11:37:750,15:11:40:752,left,15:11:41:236,,2018_Jun_05_1457,59.9339536646,MP-Perception Experiment,xx10m25,
125,vgpdm_dyn(10)-lvm(35)_final(8).mov,False,left,0,training(4).mov,0,124,124,7,,,,,,,,15:11:42:008,15:11:42:737,15:11:45:739,left,15:11:46:123,,2018_Jun_05_1457,59.9339536646,MP-Perception Experiment,xx10m25,
126,map_gpdm_final(0).mov,False,left,0,training(26).mov,0,125,125,158,,,,,,,,15:11:46:895,15:11:47:625,15:11:50:627,left,15:11:51:494,,2018_Jun_05_1457,59.9339536646,MP-Perception Experiment,xx10m25,
127,training(33).mov,False,right,0,tmp_numprim(10)_final(7).mov,0,126,126,132,,,,,,,,15:11:52:241,15:11:52:995,15:11:55:999,left,15:11:58:701,,2018_Jun_05_1457,59.9339536646,MP-Perception Experiment,xx10m25,
128,training(41).mov,True,right,0,vcgpdm_dyn(25)-lvm(15)_final(5).mov,0,127,127,6,,,,,,,,15:11:59:462,15:12:00:202,15:12:03:221,left,15:12:04:305,,2018_Jun_05_1457,59.9339536646,MP-Perception Experiment,xx10m25,
129,map_gpdm_final(1).mov,False,left,0,training(27).mov,0,128,128,103,,,,,,,,15:12:05:057,15:12:05:807,15:12:08:826,left,15:12:09:243,,2018_Jun_05_1457,59.9339536646,MP-Perception Experiment,xx10m25,
130,training(20).mov,False,right,0,vgpdm_dyn(20)-lvm(25)_final(0).mov,0,129,129,62,,,,,,,,15:12:09:995,15:12:10:759,15:12:13:746,left,15:12:14:647,,2018_Jun_05_1457,59.9339536646,MP-Perception Experiment,xx10m25,
131,training(2).mov,True,right,0,vcgpdm_dyn(10)-lvm(10)_final(4).mov,0,130,130,80,,,,,,,,15:12:15:412,15:12:16:148,15:12:19:167,left,15:12:19:917,,2018_Jun_05_1457,59.9339536646,MP-Perception Experiment,xx10m25,
132,vgpdm_dyn(5)-lvm(20)_final(8).mov,True,left,0,training(39).mov,0,131,131,11,,,,,,,,15:12:20:706,15:12:21:435,15:12:24:406,left,15:12:24:706,,2018_Jun_05_1457,59.9339536646,MP-Perception Experiment,xx10m25,
133,tmp_numprim(9)_final(2).mov,False,left,0,training(11).mov,0,132,132,37,,,,,,,,15:12:25:466,15:12:26:207,15:12:29:211,right,15:12:29:795,,2018_Jun_05_1457,59.9339536646,MP-Perception Experiment,xx10m25,
134,training(33).mov,False,right,0,vcgpdm_dyn(20)-lvm(10)_final(8).mov,0,133,133,118,,,,,,,,15:12:30:569,15:12:31:296,15:12:34:298,left,15:12:34:682,,2018_Jun_05_1457,59.9339536646,MP-Perception Experiment,xx10m25,
135,training(15).mov,False,right,0,vcgpdm_dyn(10)-lvm(35)_final(0).mov,0,134,134,116,,,,,,,,15:12:35:478,15:12:36:183,15:12:39:186,right,15:12:39:703,,2018_Jun_05_1457,59.9339536646,MP-Perception Experiment,xx10m25,
136,vcgpdm_dyn(15)-lvm(35)_final(3).mov,True,left,0,training(19).mov,0,135,135,9,,,,,,,,15:12:40:459,15:12:41:204,15:12:44:206,left,15:12:44:507,,2018_Jun_05_1457,59.9339536646,MP-Perception Experiment,xx10m25,
137,training(32).mov,True,right,0,vgpdm_dyn(5)-lvm(30)_final(5).mov,0,136,136,22,,,,,,,,15:12:45:273,15:12:46:008,15:12:49:011,right,15:12:49:412,,2018_Jun_05_1457,59.9339536646,MP-Perception Experiment,xx10m25,
138,vgpdm_dyn(10)-lvm(35)_final(5).mov,False,left,0,training(18).mov,0,137,137,4,,,,,,,,15:12:50:165,15:12:50:913,15:12:53:915,left,15:12:54:566,,2018_Jun_05_1457,59.9339536646,MP-Perception Experiment,xx10m25,
139,vcgpdm_dyn(20)-lvm(10)_final(3).mov,False,left,0,training(7).mov,0,138,138,23,,,,,,,,15:12:55:334,15:12:56:084,15:12:59:069,right,15:13:01:470,,2018_Jun_05_1457,59.9339536646,MP-Perception Experiment,xx10m25,
140,vcgpdm_dyn(30)-lvm(20)_final(5).mov,True,left,0,training(35).mov,0,139,139,58,,,,,,,,15:13:02:257,15:13:02:971,15:13:05:974,left,15:13:06:291,,2018_Jun_05_1457,59.9339536646,MP-Perception Experiment,xx10m25,
141,training(0).mov,False,right,0,vgpdm_dyn(10)-lvm(15)_final(6).mov,0,140,140,92,,,,,,,,15:13:07:066,15:13:07:792,15:13:10:795,right,15:13:11:162,,2018_Jun_05_1457,59.9339536646,MP-Perception Experiment,xx10m25,
142,training(5).mov,True,right,0,tmp_numprim(7)_final(6).mov,0,141,141,26,,,,,,,,15:13:11:924,15:13:12:665,15:13:15:667,right,15:13:17:102,,2018_Jun_05_1457,59.9339536646,MP-Perception Experiment,xx10m25,
143,vgpdm_dyn(10)-lvm(15)_final(8).mov,False,left,0,training(16).mov,0,142,142,53,,,,,,,,15:13:17:857,15:13:18:603,15:13:21:606,left,15:13:23:224,,2018_Jun_05_1457,59.9339536646,MP-Perception Experiment,xx10m25,
144,training(22).mov,False,right,0,vgpdm_dyn(25)-lvm(30)_final(0).mov,0,143,143,5,,,,,,,,15:13:23:987,15:13:24:725,15:13:27:728,right,15:13:33:149,,2018_Jun_05_1457,59.9339536646,MP-Perception Experiment,xx10m25,
145,training(11).mov,False,right,0,vgpdm_dyn(15)-lvm(35)_final(1).mov,0,144,144,51,,,,,,,,15:13:33:905,15:13:34:650,15:13:37:652,right,15:13:38:320,,2018_Jun_05_1457,59.9339536646,MP-Perception Experiment,xx10m25,
146,training(36).mov,True,right,0,vcgpdm_dyn(10)-lvm(5)_final(2).mov,0,145,145,48,,,,,,,,15:13:39:061,15:13:39:822,15:13:42:841,left,15:13:43:809,,2018_Jun_05_1457,59.9339536646,MP-Perception Experiment,xx10m25,
147,vgpdm_dyn(25)-lvm(35)_final(2).mov,True,left,0,training(38).mov,0,146,146,17,,,,,,,,15:13:44:594,15:13:45:310,15:13:48:312,right,15:13:50:097,,2018_Jun_05_1457,59.9339536646,MP-Perception Experiment,xx10m25,
148,training(14).mov,True,right,0,vcgpdm_dyn(35)-lvm(10)_final(1).mov,0,147,147,105,,,,,,,,15:13:50:875,15:13:51:613,15:13:54:615,left,15:13:55:082,,2018_Jun_05_1457,59.9339536646,MP-Perception Experiment,xx10m25,
149,training(5).mov,True,right,0,vgpdm_dyn(35)-lvm(25)_final(9).mov,0,148,148,21,,,,,,,,15:13:55:856,15:13:56:585,15:13:59:604,right,15:13:59:904,,2018_Jun_05_1457,59.9339536646,MP-Perception Experiment,xx10m25,
150,training(21).mov,False,right,0,vgpdm_dyn(35)-lvm(5)_final(7).mov,0,149,149,93,,,,,,,,15:14:00:664,15:14:01:405,15:14:04:410,right,15:14:04:943,,2018_Jun_05_1457,59.9339536646,MP-Perception Experiment,xx10m25,
151,training(26).mov,False,right,0,vgpdm_dyn(10)-lvm(15)_final(1).mov,0,150,150,112,,,,,,,,15:14:05:699,15:14:06:444,15:14:09:447,right,15:14:09:847,,2018_Jun_05_1457,59.9339536646,MP-Perception Experiment,xx10m25,
152,dmp_npsi(35)_final(1).mov,False,left,0,training(5).mov,0,151,151,18,,,,,,,,15:14:10:621,15:14:11:348,15:14:14:368,right,15:14:16:003,,2018_Jun_05_1457,59.9339536646,MP-Perception Experiment,xx10m25,
153,vgpdm_dyn(15)-lvm(35)_final(7).mov,False,left,0,training(17).mov,0,152,152,29,,,,,,,,15:14:16:756,15:14:17:504,15:14:20:507,right,15:14:22:508,,2018_Jun_05_1457,59.9339536646,MP-Perception Experiment,xx10m25,
154,vcgpdm_dyn(15)-lvm(5)_final(8).mov,True,left,0,training(1).mov,0,153,153,70,,,,,,,,15:14:23:273,15:14:24:010,15:14:27:029,left,15:14:27:830,,2018_Jun_05_1457,59.9339536646,MP-Perception Experiment,xx10m25,
155,training(26).mov,False,right,0,vcgpdm_dyn(15)-lvm(25)_final(6).mov,0,154,154,0,,,,,,,,15:14:28:595,15:14:29:347,15:14:32:334,right,15:14:32:701,,2018_Jun_05_1457,59.9339536646,MP-Perception Experiment,xx10m25,
156,training(20).mov,True,right,0,vgpdm_dyn(25)-lvm(15)_final(3)_out_of_screen.mov,0,155,155,124,,,,,,,,15:14:33:454,15:14:34:202,15:14:37:221,right,15:14:38:072,,2018_Jun_05_1457,59.9339536646,MP-Perception Experiment,xx10m25,
157,vcgpdm_dyn(25)-lvm(15)_final(7).mov,True,left,0,training(20).mov,0,156,156,100,,,,,,,,15:14:38:840,15:14:39:590,15:14:42:574,left,15:14:45:994,,2018_Jun_05_1457,59.9339536646,MP-Perception Experiment,xx10m25,
158,training(3).mov,False,right,0,vgpdm_dyn(15)-lvm(25)_final(2).mov,0,157,157,49,,,,,,,,15:14:46:760,15:14:47:512,15:14:50:498,right,15:14:51:299,,2018_Jun_05_1457,59.9339536646,MP-Perception Experiment,xx10m25,
159,training(8).mov,True,right,0,vcgpdm_dyn(10)-lvm(30)_final(8).mov,0,158,158,40,,,,,,,,15:14:52:050,15:14:52:801,15:14:55:787,left,15:14:56:271,,2018_Jun_05_1457,59.9339536646,MP-Perception Experiment,xx10m25,
160,training(6).mov,False,right,1,tmp_numprim(8)_final(3).mov,0,0,0,106,,,,,,,,15:17:06:937,15:17:07:717,15:17:10:702,right,15:17:12:154,,2018_Jun_05_1457,59.9339536646,MP-Perception Experiment,xx10m25,
161,training(22).mov,False,right,1,vcgpdm_dyn(20)-lvm(10)_final(5).mov,0,1,1,20,,,,,,,,15:17:12:915,15:17:13:671,15:17:16:657,right,15:17:17:024,,2018_Jun_05_1457,59.9339536646,MP-Perception Experiment,xx10m25,
162,training(11).mov,True,right,1,vgpdm_dyn(35)-lvm(25)_final(7).mov,0,2,2,139,,,,,,,,15:17:17:780,15:17:18:525,15:17:21:528,right,15:17:21:845,,2018_Jun_05_1457,59.9339536646,MP-Perception Experiment,xx10m25,
163,vcgpdm_dyn(25)-lvm(30)_final(6).mov,True,left,1,training(8).mov,0,3,3,4,,,,,,,,15:17:22:604,15:17:23:348,15:17:26:350,left,15:17:26:801,,2018_Jun_05_1457,59.9339536646,MP-Perception Experiment,xx10m25,
164,vgpdm_dyn(10)-lvm(20)_final(2).mov,False,left,1,training(26).mov,0,4,4,35,,,,,,,,15:17:27:554,15:17:28:303,15:17:31:305,left,15:17:31:639,,2018_Jun_05_1457,59.9339536646,MP-Perception Experiment,xx10m25,
165,vgpdm_dyn(10)-lvm(25)_final(8).mov,True,left,1,training(14).mov,0,5,5,50,,,,,,,,15:17:32:406,15:17:33:140,15:17:36:142,right,15:17:37:844,,2018_Jun_05_1457,59.9339536646,MP-Perception Experiment,xx10m25,
166,training(10).mov,False,right,1,vgpdm_dyn(20)-lvm(15)_final(7).mov,0,6,6,32,,,,,,,,15:17:38:601,15:17:39:361,15:17:42:347,left,15:17:42:881,,2018_Jun_05_1457,59.9339536646,MP-Perception Experiment,xx10m25,
167,training(3).mov,False,right,1,map_cgpdm_final(7).mov,0,7,7,73,,,,,,,,15:17:43:663,15:17:44:383,15:17:47:386,left,15:17:48:103,,2018_Jun_05_1457,59.9339536646,MP-Perception Experiment,xx10m25,
168,vgpdm_dyn(5)-lvm(5)_final(9)_out_of_screen.mov,False,left,1,training(23).mov,0,8,8,33,,,,,,,,15:17:48:883,15:17:49:604,15:17:52:623,left,15:17:52:974,,2018_Jun_05_1457,59.9339536646,MP-Perception Experiment,xx10m25,
169,dmp_npsi(45)_final(5).mov,True,left,1,training(41).mov,0,9,9,37,,,,,,,,15:17:53:736,15:17:54:491,15:17:57:494,left,15:17:57:828,,2018_Jun_05_1457,59.9339536646,MP-Perception Experiment,xx10m25,
170,dmp_npsi(30)_final(3).mov,False,left,1,training(26).mov,0,10,10,132,,,,,,,,15:17:58:602,15:17:59:329,15:18:02:330,left,15:18:02:581,,2018_Jun_05_1457,59.9339536646,MP-Perception Experiment,xx10m25,
171,vcgpdm_dyn(20)-lvm(20)_final(3).mov,True,left,1,training(20).mov,0,11,11,5,,,,,,,,15:18:03:343,15:18:04:082,15:18:07:084,left,15:18:07:334,,2018_Jun_05_1457,59.9339536646,MP-Perception Experiment,xx10m25,
172,training(27).mov,False,right,1,dmp_npsi(20)_final(0).mov,0,12,12,98,,,,,,,,15:18:08:107,15:18:08:836,15:18:11:838,right,15:18:12:405,,2018_Jun_05_1457,59.9339536646,MP-Perception Experiment,xx10m25,
173,vgpdm_dyn(10)-lvm(35)_final(0).mov,False,left,1,training(24).mov,0,13,13,62,,,,,,,,15:18:13:168,15:18:13:906,15:18:16:894,left,15:18:19:464,,2018_Jun_05_1457,59.9339536646,MP-Perception Experiment,xx10m25,
174,training(28).mov,True,right,1,vgpdm_dyn(30)-lvm(20)_final(9).mov,0,14,14,24,,,,,,,,15:18:20:218,15:18:20:981,15:18:23:967,right,15:18:26:303,,2018_Jun_05_1457,59.9339536646,MP-Perception Experiment,xx10m25,
175,training(32).mov,False,right,1,vgpdm_dyn(10)-lvm(15)_final(9).mov,0,15,15,131,,,,,,,,15:18:27:053,15:18:27:804,15:18:30:806,left,15:18:31:990,,2018_Jun_05_1457,59.9339536646,MP-Perception Experiment,xx10m25,
176,training(2).mov,True,right,1,vgpdm_dyn(5)-lvm(20)_final(4).mov,0,16,16,94,,,,,,,,15:18:32:758,15:18:33:492,15:18:36:512,right,15:18:37:129,,2018_Jun_05_1457,59.9339536646,MP-Perception Experiment,xx10m25,
177,training(41).mov,True,right,1,vgpdm_dyn(10)-lvm(10)_final(2).mov,0,17,17,143,,,,,,,,15:18:37:876,15:18:38:630,15:18:41:632,right,15:18:44:385,,2018_Jun_05_1457,59.9339536646,MP-Perception Experiment,xx10m25,
178,vcgpdm_dyn(25)-lvm(5)_final(9).mov,True,left,1,training(28).mov,0,18,18,123,,,,,,,,15:18:45:143,15:18:45:886,15:18:48:888,left,15:18:49:289,,2018_Jun_05_1457,59.9339536646,MP-Perception Experiment,xx10m25,
179,vcgpdm_dyn(15)-lvm(30)_final(2).mov,False,left,1,training(5).mov,0,19,19,19,,,,,,,,15:18:50:040,15:18:50:805,15:18:53:792,right,15:18:55:376,,2018_Jun_05_1457,59.9339536646,MP-Perception Experiment,xx10m25,
180,training(11).mov,False,right,1,vcgpdm_dyn(10)-lvm(15)_final(2).mov,0,20,20,92,,,,,,,,15:18:56:129,15:18:56:877,15:18:59:880,right,15:18:59:947,,2018_Jun_05_1457,59.9339536646,MP-Perception Experiment,xx10m25,
181,vcgpdm_dyn(20)-lvm(15)_final(1).mov,False,left,1,training(10).mov,0,21,21,119,,,,,,,,15:19:00:715,15:19:01:464,15:19:04:452,right,15:19:04:869,,2018_Jun_05_1457,59.9339536646,MP-Perception Experiment,xx10m25,
182,training(17).mov,True,right,1,tmp_numprim(4)_final(5).mov,0,22,22,104,,,,,,,,15:19:05:634,15:19:06:371,15:19:09:373,right,15:19:09:906,,2018_Jun_05_1457,59.9339536646,MP-Perception Experiment,xx10m25,
183,vcgpdm_dyn(30)-lvm(30)_final(6).mov,False,left,1,training(11).mov,0,23,23,91,,,,,,,,15:19:10:686,15:19:11:408,15:19:14:411,left,15:19:16:196,,2018_Jun_05_1457,59.9339536646,MP-Perception Experiment,xx10m25,
184,training(27).mov,False,right,1,vgpdm_dyn(20)-lvm(5)_final(1).mov,0,24,24,9,,,,,,,,15:19:16:961,15:19:17:697,15:19:20:716,right,15:19:21:300,,2018_Jun_05_1457,59.9339536646,MP-Perception Experiment,xx10m25,
185,vcgpdm_dyn(15)-lvm(35)_final(5).mov,True,left,1,training(18).mov,0,25,25,54,,,,,,,,15:19:22:059,15:19:22:801,15:19:25:803,right,15:19:26:237,,2018_Jun_05_1457,59.9339536646,MP-Perception Experiment,xx10m25,
186,vcgpdm_dyn(15)-lvm(30)_final(6).mov,True,left,1,training(38).mov,0,26,26,155,,,,,,,,15:19:27:010,15:19:27:738,15:19:30:742,left,15:19:31:276,,2018_Jun_05_1457,59.9339536646,MP-Perception Experiment,xx10m25,
187,training(0).mov,False,right,1,map_gpdm_final(2).mov,0,27,27,27,,,,,,,,15:19:32:054,15:19:32:793,15:19:35:779,right,15:19:36:213,,2018_Jun_05_1457,59.9339536646,MP-Perception Experiment,xx10m25,
188,training(17).mov,False,right,1,dmp_npsi(40)_final(1).mov,0,28,28,14,,,,,,,,15:19:36:974,15:19:37:714,15:19:40:715,right,15:19:41:299,,2018_Jun_05_1457,59.9339536646,MP-Perception Experiment,xx10m25,
189,training(33).mov,False,right,1,dmp_npsi(20)_final(9).mov,0,29,29,136,,,,,,,,15:19:42:053,15:19:42:800,15:19:45:803,right,15:19:46:136,,2018_Jun_05_1457,59.9339536646,MP-Perception Experiment,xx10m25,
190,dmp_npsi(30)_final(2).mov,True,left,1,training(15).mov,0,30,30,113,,,,,,,,15:19:46:917,15:19:47:638,15:19:50:640,left,15:19:51:157,,2018_Jun_05_1457,59.9339536646,MP-Perception Experiment,xx10m25,
191,training(20).mov,True,right,1,vcgpdm_dyn(15)-lvm(35)_final(3).mov,0,31,31,49,,,,,,,,15:19:51:917,15:19:52:659,15:19:55:646,left,15:19:56:247,,2018_Jun_05_1457,59.9339536646,MP-Perception Experiment,xx10m25,
192,vcgpdm_dyn(5)-lvm(15)_final(4).mov,False,left,1,training(30).mov,0,32,32,82,,,,,,,,15:19:57:027,15:19:57:748,15:20:00:750,left,15:20:01:351,,2018_Jun_05_1457,59.9339536646,MP-Perception Experiment,xx10m25,
193,vgpdm_dyn(10)-lvm(10)_final(9).mov,False,left,1,training(33).mov,0,33,33,58,,,,,,,,15:20:02:111,15:20:02:852,15:20:05:856,right,15:20:07:240,,2018_Jun_05_1457,59.9339536646,MP-Perception Experiment,xx10m25,
194,training(18).mov,True,right,1,vcgpdm_dyn(35)-lvm(25)_final(5).mov,0,34,34,125,,,,,,,,15:20:07:992,15:20:08:741,15:20:11:743,right,15:20:12:244,,2018_Jun_05_1457,59.9339536646,MP-Perception Experiment,xx10m25,
195,training(18).mov,False,right,1,vcgpdm_dyn(10)-lvm(35)_final(8).mov,0,35,35,157,,,,,,,,15:20:13:001,15:20:13:763,15:20:16:748,right,15:20:17:248,,2018_Jun_05_1457,59.9339536646,MP-Perception Experiment,xx10m25,
196,training(1).mov,False,right,1,tmp_numprim(5)_final(4).mov,0,36,36,30,,,,,,,,15:20:18:004,15:20:18:749,15:20:21:769,right,15:20:22:120,,2018_Jun_05_1457,59.9339536646,MP-Perception Experiment,xx10m25,
197,training(0).mov,False,right,1,vgpdm_dyn(35)-lvm(15)_final(0)_out_of_screen.mov,0,37,37,77,,,,,,,,15:20:22:872,15:20:23:621,15:20:26:623,right,15:20:26:923,,2018_Jun_05_1457,59.9339536646,MP-Perception Experiment,xx10m25,
198,vgpdm_dyn(20)-lvm(30)_final(5).mov,True,left,1,training(9).mov,0,38,38,128,,,,,,,,15:20:27:679,15:20:28:425,15:20:31:425,left,15:20:31:926,,2018_Jun_05_1457,59.9339536646,MP-Perception Experiment,xx10m25,
199,training(2).mov,True,right,1,vcgpdm_dyn(35)-lvm(5)_final(3).mov,0,39,39,97,,,,,,,,15:20:32:685,15:20:33:444,15:20:36:429,left,15:20:37:714,,2018_Jun_05_1457,59.9339536646,MP-Perception Experiment,xx10m25,
200,training(33).mov,True,right,1,vgpdm_dyn(15)-lvm(15)_final(1).mov,0,40,40,31,,,,,,,,15:20:38:475,15:20:39:216,15:20:42:203,right,15:20:42:654,,2018_Jun_05_1457,59.9339536646,MP-Perception Experiment,xx10m25,
201,training(41).mov,True,right,1,vcgpdm_dyn(20)-lvm(20)_final(8).mov,0,41,41,70,,,,,,,,15:20:43:710,15:20:44:222,15:20:47:157,right,15:20:53:630,,2018_Jun_05_1457,59.9339536646,MP-Perception Experiment,xx10m25,
202,vcgpdm_dyn(10)-lvm(30)_final(6).mov,False,left,1,training(25).mov,0,42,42,126,,,,,,,,15:20:54:380,15:20:55:147,15:20:58:134,right,15:20:58:468,,2018_Jun_05_1457,59.9339536646,MP-Perception Experiment,xx10m25,
203,training(29).mov,False,right,1,vcgpdm_dyn(30)-lvm(25)_final(4).mov,0,43,43,89,,,,,,,,15:20:59:247,15:20:59:969,15:21:02:971,right,15:21:03:405,,2018_Jun_05_1457,59.9339536646,MP-Perception Experiment,xx10m25,
204,training(22).mov,False,right,1,vcgpdm_dyn(25)-lvm(25)_final(9).mov,0,44,44,63,,,,,,,,15:21:04:158,15:21:04:906,15:21:07:909,right,15:21:08:844,,2018_Jun_05_1457,59.9339536646,MP-Perception Experiment,xx10m25,
205,training(23).mov,True,right,1,tmp_numprim(3)_final(2).mov,0,45,45,114,,,,,,,,15:21:09:621,15:21:10:377,15:21:13:380,right,15:21:13:748,,2018_Jun_05_1457,59.9339536646,MP-Perception Experiment,xx10m25,
206,training(30).mov,True,right,1,vcgpdm_dyn(35)-lvm(30)_final(0).mov,0,46,46,137,,,,,,,,15:21:14:506,15:21:15:249,15:21:18:251,right,15:21:18:602,,2018_Jun_05_1457,59.9339536646,MP-Perception Experiment,xx10m25,
207,vcgpdm_dyn(35)-lvm(10)_final(6).mov,False,left,1,training(38).mov,0,47,47,46,,,,,,,,15:21:19:357,15:21:20:103,15:21:23:103,right,15:21:23:404,,2018_Jun_05_1457,59.9339536646,MP-Perception Experiment,xx10m25,
208,training(20).mov,False,right,1,vcgpdm_dyn(25)-lvm(5)_final(3).mov,0,48,48,102,,,,,,,,15:21:24:169,15:21:24:905,15:21:27:907,right,15:21:28:208,,2018_Jun_05_1457,59.9339536646,MP-Perception Experiment,xx10m25,
209,training(7).mov,True,right,1,map_cgpdm_final(0).mov,0,49,49,87,,,,,,,,15:21:28:958,15:21:29:709,15:21:32:712,right,15:21:33:113,,2018_Jun_05_1457,59.9339536646,MP-Perception Experiment,xx10m25,
210,training(20).mov,True,right,1,vgpdm_dyn(30)-lvm(10)_final(6).mov,0,50,50,3,,,,,,,,15:21:33:881,15:21:34:630,15:21:37:635,right,15:21:38:285,,2018_Jun_05_1457,59.9339536646,MP-Perception Experiment,xx10m25,
211,tmp_numprim(6)_final(5).mov,False,left,1,training(17).mov,0,51,51,100,,,,,,,,15:21:39:035,15:21:39:786,15:21:42:789,right,15:21:53:348,,2018_Jun_05_1457,59.9339536646,MP-Perception Experiment,xx10m25,
212,vcgpdm_dyn(35)-lvm(20)_final(1).mov,True,left,1,training(36).mov,0,52,52,147,,,,,,,,15:21:54:117,15:21:54:849,15:21:57:852,right,15:21:58:286,,2018_Jun_05_1457,59.9339536646,MP-Perception Experiment,xx10m25,
213,vcgpdm_dyn(20)-lvm(10)_final(6).mov,True,left,1,training(48).mov,0,53,53,152,,,,,,,,15:21:59:044,15:21:59:787,15:22:02:789,right,15:22:03:423,,2018_Jun_05_1457,59.9339536646,MP-Perception Experiment,xx10m25,
214,vcgpdm_dyn(15)-lvm(10)_final(7).mov,False,left,1,training(1).mov,0,54,54,134,,,,,,,,15:22:04:185,15:22:04:924,15:22:07:944,left,15:22:08:312,,2018_Jun_05_1457,59.9339536646,MP-Perception Experiment,xx10m25,
215,vgpdm_dyn(30)-lvm(25)_final(1).mov,True,left,1,training(48).mov,0,55,55,13,,,,,,,,15:22:09:063,15:22:09:812,15:22:12:813,left,15:22:15:682,,2018_Jun_05_1457,59.9339536646,MP-Perception Experiment,xx10m25,
216,vcgpdm_dyn(30)-lvm(5)_final(7).mov,True,left,1,training(8).mov,0,56,56,86,,,,,,,,15:22:16:446,15:22:17:200,15:22:20:186,left,15:22:20:519,,2018_Jun_05_1457,59.9339536646,MP-Perception Experiment,xx10m25,
217,vgpdm_dyn(30)-lvm(25)_final(0).mov,True,left,1,training(22).mov,0,57,57,36,,,,,,,,15:22:21:282,15:22:22:023,15:22:25:009,left,15:22:25:393,,2018_Jun_05_1457,59.9339536646,MP-Perception Experiment,xx10m25,
218,dmp_npsi(35)_final(5).mov,False,left,1,training(23).mov,0,58,58,111,,,,,,,,15:22:26:143,15:22:26:894,15:22:29:896,right,15:22:30:447,,2018_Jun_05_1457,59.9339536646,MP-Perception Experiment,xx10m25,
219,training(7).mov,True,right,1,vgpdm_dyn(15)-lvm(5)_final(6).mov,0,59,59,75,,,,,,,,15:22:31:207,15:22:31:965,15:22:34:950,right,15:22:35:585,,2018_Jun_05_1457,59.9339536646,MP-Perception Experiment,xx10m25,
220,vcgpdm_dyn(35)-lvm(10)_final(7).mov,True,left,1,training(25).mov,0,60,60,120,,,,,,,,15:22:36:354,15:22:37:102,15:22:40:105,left,15:22:40:488,,2018_Jun_05_1457,59.9339536646,MP-Perception Experiment,xx10m25,
221,training(30).mov,True,right,1,vgpdm_dyn(30)-lvm(10)_final(6).mov,0,61,61,108,,,,,,,,15:22:41:259,15:22:41:990,15:22:44:993,right,15:22:45:343,,2018_Jun_05_1457,59.9339536646,MP-Perception Experiment,xx10m25,
222,training(33).mov,False,right,1,vcgpdm_dyn(10)-lvm(10)_final(6).mov,0,62,62,149,,,,,,,,15:22:46:109,15:22:46:845,15:22:49:864,left,15:22:50:447,,2018_Jun_05_1457,59.9339536646,MP-Perception Experiment,xx10m25,
223,training(16).mov,False,right,1,vgpdm_dyn(30)-lvm(35)_final(2).mov,0,63,63,146,,,,,,,,15:22:51:202,15:22:51:948,15:22:54:951,right,15:22:55:435,,2018_Jun_05_1457,59.9339536646,MP-Perception Experiment,xx10m25,
224,training(20).mov,False,right,1,vcgpdm_dyn(25)-lvm(15)_final(5).mov,0,64,64,142,,,,,,,,15:22:56:182,15:22:56:936,15:22:59:956,right,15:23:00:373,,2018_Jun_05_1457,59.9339536646,MP-Perception Experiment,xx10m25,
225,vcgpdm_dyn(20)-lvm(5)_final(5).mov,False,left,1,training(15).mov,0,65,65,25,,,,,,,,15:23:01:146,15:23:01:889,15:23:04:892,left,15:23:06:060,,2018_Jun_05_1457,59.9339536646,MP-Perception Experiment,xx10m25,
226,vgpdm_dyn(20)-lvm(20)_final(0).mov,False,left,1,training(9).mov,0,66,66,103,,,,,,,,15:23:06:826,15:23:07:560,15:23:10:563,right,15:23:10:847,,2018_Jun_05_1457,59.9339536646,MP-Perception Experiment,xx10m25,
227,vcgpdm_dyn(35)-lvm(15)_final(1)_out_of_screen.mov,True,left,1,training(35).mov,0,67,67,81,,,,,,,,15:23:11:642,15:23:12:349,15:23:15:352,left,15:23:15:802,,2018_Jun_05_1457,59.9339536646,MP-Perception Experiment,xx10m25,
228,training(1).mov,True,right,1,vgpdm_dyn(25)-lvm(35)_final(3).mov,0,68,68,121,,,,,,,,15:23:16:567,15:23:17:304,15:23:20:307,right,15:23:21:475,,2018_Jun_05_1457,59.9339536646,MP-Perception Experiment,xx10m25,
229,tmp_numprim(8)_final(5).mov,False,left,1,training(30).mov,0,69,69,84,,,,,,,,15:23:22:235,15:23:22:976,15:23:25:978,right,15:23:27:613,,2018_Jun_05_1457,59.9339536646,MP-Perception Experiment,xx10m25,
230,training(3).mov,False,right,1,tmp_numprim(7)_final(1).mov,0,70,70,59,,,,,,,,15:23:28:376,15:23:29:114,15:23:32:116,right,15:23:32:750,,2018_Jun_05_1457,59.9339536646,MP-Perception Experiment,xx10m25,
231,training(29).mov,True,right,1,vcgpdm_dyn(5)-lvm(25)_final(8).mov,0,71,71,65,,,,,,,,15:23:33:509,15:23:34:252,15:23:37:255,right,15:23:37:689,,2018_Jun_05_1457,59.9339536646,MP-Perception Experiment,xx10m25,
232,map_gpdm_final(4).mov,False,left,1,training(8).mov,0,72,72,151,,,,,,,,15:23:38:467,15:23:39:190,15:23:42:209,left,15:23:42:609,,2018_Jun_05_1457,59.9339536646,MP-Perception Experiment,xx10m25,
233,training(31).mov,False,right,1,vgpdm_dyn(30)-lvm(15)_final(0).mov,0,73,73,8,,,,,,,,15:23:43:649,15:23:44:160,15:23:47:113,right,15:23:47:663,,2018_Jun_05_1457,59.9339536646,MP-Perception Experiment,xx10m25,
234,training(37).mov,False,right,1,vcgpdm_dyn(5)-lvm(5)_final(9).mov,0,74,74,16,,,,,,,,15:23:48:430,15:23:49:164,15:23:52:166,right,15:23:52:633,,2018_Jun_05_1457,59.9339536646,MP-Perception Experiment,xx10m25,
235,vgpdm_dyn(10)-lvm(5)_final(9).mov,True,left,1,training(28).mov,0,75,75,6,,,,,,,,15:23:53:388,15:23:54:134,15:23:57:137,left,15:23:57:354,,2018_Jun_05_1457,59.9339536646,MP-Perception Experiment,xx10m25,
236,vgpdm_dyn(20)-lvm(35)_final(6).mov,False,left,1,training(4).mov,0,76,76,72,,,,,,,,15:23:58:124,15:23:58:855,15:24:01:857,left,15:24:02:860,,2018_Jun_05_1457,59.9339536646,MP-Perception Experiment,xx10m25,
237,training(8).mov,False,right,1,vcgpdm_dyn(25)-lvm(15)_final(3).mov,0,77,77,22,,,,,,,,15:24:03:608,15:24:04:378,15:24:07:380,right,15:24:08:281,,2018_Jun_05_1457,59.9339536646,MP-Perception Experiment,xx10m25,
238,dmp_npsi(40)_final(9).mov,True,left,1,training(3).mov,0,78,78,43,,,,,,,,15:24:09:043,15:24:09:800,15:24:12:785,left,15:24:13:486,,2018_Jun_05_1457,59.9339536646,MP-Perception Experiment,xx10m25,
239,training(7).mov,True,right,1,dmp_npsi(25)_final(3).mov,0,79,79,79,,,,,,,,15:24:14:243,15:24:14:987,15:24:17:990,right,15:24:19:875,,2018_Jun_05_1457,59.9339536646,MP-Perception Experiment,xx10m25,
240,vcgpdm_dyn(5)-lvm(35)_final(1)_bad.mov,True,left,1,training(26).mov,0,80,80,57,,,,,,,,15:24:20:678,15:24:21:376,15:24:24:395,left,15:24:24:912,,2018_Jun_05_1457,59.9339536646,MP-Perception Experiment,xx10m25,
241,training(28).mov,False,right,1,vcgpdm_dyn(30)-lvm(5)_final(6).mov,0,81,81,1,,,,,,,,15:24:25:672,15:24:26:414,15:24:29:433,right,15:24:32:419,,2018_Jun_05_1457,59.9339536646,MP-Perception Experiment,xx10m25,
242,training(24).mov,False,right,1,vgpdm_dyn(30)-lvm(10)_final(1).mov,0,82,82,130,,,,,,,,15:24:33:176,15:24:33:920,15:24:36:923,right,15:24:37:356,,2018_Jun_05_1457,59.9339536646,MP-Perception Experiment,xx10m25,
243,vcgpdm_dyn(5)-lvm(20)_final(9).mov,False,left,1,training(5).mov,0,83,83,112,,,,,,,,15:24:38:104,15:24:38:857,15:24:41:858,right,15:24:42:142,,2018_Jun_05_1457,59.9339536646,MP-Perception Experiment,xx10m25,
244,dmp_npsi(25)_final(2).mov,False,left,1,training(25).mov,0,84,84,66,,,,,,,,15:24:43:710,15:24:43:710,15:24:46:646,left,15:24:46:980,,2018_Jun_05_1457,59.9339536646,MP-Perception Experiment,xx10m25,
245,training(0).mov,False,right,1,vgpdm_dyn(35)-lvm(5)_final(3).mov,0,85,85,68,,,,,,,,15:24:47:745,15:24:48:481,15:24:51:484,right,15:24:51:867,,2018_Jun_05_1457,59.9339536646,MP-Perception Experiment,xx10m25,
246,training(30).mov,False,right,1,dmp_npsi(25)_final(6).mov,0,86,86,60,,,,,,,,15:24:52:666,15:24:53:368,15:24:56:373,right,15:24:56:656,,2018_Jun_05_1457,59.9339536646,MP-Perception Experiment,xx10m25,
247,training(38).mov,True,right,1,vgpdm_dyn(25)-lvm(20)_final(3).mov,0,87,87,42,,,,,,,,15:24:57:419,15:24:58:157,15:25:01:161,right,15:25:01:661,,2018_Jun_05_1457,59.9339536646,MP-Perception Experiment,xx10m25,
248,training(29).mov,True,right,1,vgpdm_dyn(30)-lvm(20)_final(5).mov,0,88,88,90,,,,,,,,15:25:02:429,15:25:03:162,15:25:06:165,left,15:25:08:233,,2018_Jun_05_1457,59.9339536646,MP-Perception Experiment,xx10m25,
249,dmp_npsi(20)_final(8).mov,False,left,1,training(2).mov,0,89,89,47,,,,,,,,15:25:08:982,15:25:09:734,15:25:12:753,left,15:25:13:254,,2018_Jun_05_1457,59.9339536646,MP-Perception Experiment,xx10m25,
250,training(23).mov,True,right,1,vgpdm_dyn(15)-lvm(30)_final(0).mov,0,90,90,12,,,,,,,,15:25:14:011,15:25:14:772,15:25:17:774,right,15:25:20:194,,2018_Jun_05_1457,59.9339536646,MP-Perception Experiment,xx10m25,
251,training(29).mov,False,right,1,vgpdm_dyn(20)-lvm(25)_final(2).mov,0,91,91,48,,,,,,,,15:25:20:957,15:25:21:695,15:25:24:714,right,15:25:25:248,,2018_Jun_05_1457,59.9339536646,MP-Perception Experiment,xx10m25,
252,training(16).mov,False,right,1,vcgpdm_dyn(15)-lvm(15)_final(0).mov,0,92,92,18,,,,,,,,15:25:26:013,15:25:26:749,15:25:29:751,left,15:25:30:185,,2018_Jun_05_1457,59.9339536646,MP-Perception Experiment,xx10m25,
253,vcgpdm_dyn(15)-lvm(10)_final(2).mov,True,left,1,training(10).mov,0,93,93,107,,,,,,,,15:25:30:935,15:25:31:701,15:25:34:687,left,15:25:35:388,,2018_Jun_05_1457,59.9339536646,MP-Perception Experiment,xx10m25,
254,vgpdm_dyn(10)-lvm(35)_final(9).mov,False,left,1,training(33).mov,0,94,94,122,,,,,,,,15:25:36:145,15:25:36:890,15:25:39:892,left,15:25:40:459,,2018_Jun_05_1457,59.9339536646,MP-Perception Experiment,xx10m25,
255,vcgpdm_dyn(20)-lvm(25)_final(3).mov,False,left,1,training(8).mov,0,95,95,116,,,,,,,,15:25:41:214,15:25:41:961,15:25:44:965,right,15:25:46:500,,2018_Jun_05_1457,59.9339536646,MP-Perception Experiment,xx10m25,
256,training(14).mov,True,right,1,dmp_npsi(5)_final(6)_bad.mov,0,96,96,118,,,,,,,,15:25:47:266,15:25:48:017,15:25:51:003,right,15:25:51:670,,2018_Jun_05_1457,59.9339536646,MP-Perception Experiment,xx10m25,
257,vcgpdm_dyn(5)-lvm(5)_final(9).mov,True,left,1,training(3).mov,0,97,97,85,,,,,,,,15:25:52:428,15:25:53:171,15:25:56:175,left,15:25:58:210,,2018_Jun_05_1457,59.9339536646,MP-Perception Experiment,xx10m25,
258,vcgpdm_dyn(20)-lvm(35)_final(2).mov,True,left,1,training(3).mov,0,98,98,93,,,,,,,,15:25:58:969,15:25:59:711,15:26:02:730,right,15:26:03:497,,2018_Jun_05_1457,59.9339536646,MP-Perception Experiment,xx10m25,
259,vcgpdm_dyn(35)-lvm(35)_final(7)_bad.mov,True,left,1,training(25).mov,0,99,99,156,,,,,,,,15:26:04:262,15:26:04:999,15:26:08:001,left,15:26:09:552,,2018_Jun_05_1457,59.9339536646,MP-Perception Experiment,xx10m25,
260,training(28).mov,False,right,1,vgpdm_dyn(30)-lvm(20)_final(9).mov,0,100,100,11,,,,,,,,15:26:10:308,15:26:11:054,15:26:14:057,left,15:26:16:276,,2018_Jun_05_1457,59.9339536646,MP-Perception Experiment,xx10m25,
261,vcgpdm_dyn(10)-lvm(35)_final(8).mov,False,left,1,training(30).mov,0,101,101,67,,,,,,,,15:26:17:034,15:26:17:777,15:26:20:796,left,15:26:21:812,,2018_Jun_05_1457,59.9339536646,MP-Perception Experiment,xx10m25,
262,dmp_npsi(15)_final(4).mov,True,left,1,training(33).mov,0,102,102,40,,,,,,,,15:26:22:580,15:26:23:313,15:26:26:315,left,15:26:26:799,,2018_Jun_05_1457,59.9339536646,MP-Perception Experiment,xx10m25,
263,vcgpdm_dyn(35)-lvm(5)_final(6).mov,True,left,1,training(9).mov,0,103,103,141,,,,,,,,15:26:27:558,15:26:28:300,15:26:31:303,left,15:26:32:073,,2018_Jun_05_1457,59.9339536646,MP-Perception Experiment,xx10m25,
264,training(36).mov,True,right,1,vcgpdm_dyn(10)-lvm(5)_final(4).mov,0,104,104,55,,,,,,,,15:26:32:831,15:26:33:574,15:26:36:593,left,15:26:38:027,,2018_Jun_05_1457,59.9339536646,MP-Perception Experiment,xx10m25,
265,vgpdm_dyn(25)-lvm(20)_final(0).mov,False,left,1,training(20).mov,0,105,105,39,,,,,,,,15:26:38:801,15:26:39:545,15:26:42:531,right,15:26:46:452,,2018_Jun_05_1457,59.9339536646,MP-Perception Experiment,xx10m25,
266,training(36).mov,False,right,1,vcgpdm_dyn(25)-lvm(5)_final(9).mov,0,106,106,144,,,,,,,,15:26:47:202,15:26:47:953,15:26:50:955,right,15:26:51:473,,2018_Jun_05_1457,59.9339536646,MP-Perception Experiment,xx10m25,
267,training(26).mov,True,right,1,tmp_numprim(6)_final(6).mov,0,107,107,78,,,,,,,,15:26:52:230,15:26:52:974,15:26:55:976,left,15:26:56:710,,2018_Jun_05_1457,59.9339536646,MP-Perception Experiment,xx10m25,
268,training(22).mov,True,right,1,vgpdm_dyn(30)-lvm(30)_final(2).mov,0,108,108,127,,,,,,,,15:26:57:480,15:26:58:211,15:27:01:214,right,15:27:03:900,,2018_Jun_05_1457,59.9339536646,MP-Perception Experiment,xx10m25,
269,vgpdm_dyn(20)-lvm(10)_final(1)_out_of_screen.mov,False,left,1,training(4).mov,0,109,109,88,,,,,,,,15:27:04:660,15:27:05:401,15:27:08:404,left,15:27:09:271,,2018_Jun_05_1457,59.9339536646,MP-Perception Experiment,xx10m25,
270,training(10).mov,True,right,1,vcgpdm_dyn(5)-lvm(20)_final(6).mov,0,110,110,45,,,,,,,,15:27:10:033,15:27:10:772,15:27:13:773,right,15:27:14:090,,2018_Jun_05_1457,59.9339536646,MP-Perception Experiment,xx10m25,
271,vcgpdm_dyn(15)-lvm(20)_final(3).mov,True,left,1,training(24).mov,0,111,111,41,,,,,,,,15:27:14:853,15:27:15:591,15:27:18:594,right,15:27:21:113,,2018_Jun_05_1457,59.9339536646,MP-Perception Experiment,xx10m25,
272,vcgpdm_dyn(25)-lvm(25)_final(4).mov,True,left,1,training(12).mov,0,112,112,69,,,,,,,,15:27:21:879,15:27:22:616,15:27:25:619,left,15:27:28:755,,2018_Jun_05_1457,59.9339536646,MP-Perception Experiment,xx10m25,
273,training(31).mov,False,right,1,vcgpdm_dyn(30)-lvm(25)_final(3).mov,0,113,113,80,,,,,,,,15:27:29:516,15:27:30:272,15:27:33:275,left,15:27:33:892,,2018_Jun_05_1457,59.9339536646,MP-Perception Experiment,xx10m25,
274,vcgpdm_dyn(20)-lvm(30)_final(0).mov,True,left,1,training(31).mov,0,114,114,135,,,,,,,,15:27:34:653,15:27:35:393,15:27:38:397,left,15:27:38:747,,2018_Jun_05_1457,59.9339536646,MP-Perception Experiment,xx10m25,
275,vcgpdm_dyn(15)-lvm(15)_final(2).mov,False,left,1,training(14).mov,0,115,115,138,,,,,,,,15:27:39:539,15:27:40:248,15:27:43:251,left,15:27:43:618,,2018_Jun_05_1457,59.9339536646,MP-Perception Experiment,xx10m25,
276,dmp_npsi(25)_final(3).mov,False,left,1,training(48).mov,0,116,116,83,,,,,,,,15:27:44:388,15:27:45:119,15:27:48:121,left,15:27:48:388,,2018_Jun_05_1457,59.9339536646,MP-Perception Experiment,xx10m25,
277,dmp_npsi(45)_final(7).mov,True,left,1,training(6).mov,0,117,117,148,,,,,,,,15:27:49:157,15:27:49:889,15:27:52:892,left,15:27:53:209,,2018_Jun_05_1457,59.9339536646,MP-Perception Experiment,xx10m25,
278,tmp_numprim(7)_final(0).mov,False,left,1,training(5).mov,0,118,118,38,,,,,,,,15:27:53:977,15:27:54:710,15:27:57:713,left,15:27:58:180,,2018_Jun_05_1457,59.9339536646,MP-Perception Experiment,xx10m25,
279,training(37).mov,False,right,1,vgpdm_dyn(30)-lvm(30)_final(8).mov,0,119,119,56,,,,,,,,15:27:58:945,15:27:59:682,15:28:02:682,right,15:28:03:416,,2018_Jun_05_1457,59.9339536646,MP-Perception Experiment,xx10m25,
280,training(13).mov,False,right,1,vcgpdm_dyn(35)-lvm(20)_final(0).mov,0,120,120,52,,,,,,,,15:28:04:179,15:28:04:934,15:28:07:920,right,15:28:08:437,,2018_Jun_05_1457,59.9339536646,MP-Perception Experiment,xx10m25,
281,tmp_numprim(3)_final(7).mov,False,left,1,training(38).mov,0,121,121,124,,,,,,,,15:28:09:203,15:28:09:938,15:28:12:940,right,15:28:13:559,,2018_Jun_05_1457,59.9339536646,MP-Perception Experiment,xx10m25,
282,training(9).mov,True,right,1,vcgpdm_dyn(5)-lvm(20)_final(6).mov,0,122,122,158,,,,,,,,15:28:14:327,15:28:15:060,15:28:18:047,left,15:28:20:466,,2018_Jun_05_1457,59.9339536646,MP-Perception Experiment,xx10m25,
283,training(34).mov,True,right,1,map_cgpdm_final(9).mov,0,123,123,28,,,,,,,,15:28:21:228,15:28:21:967,15:28:24:986,right,15:28:25:554,,2018_Jun_05_1457,59.9339536646,MP-Perception Experiment,xx10m25,
284,training(30).mov,True,right,1,vcgpdm_dyn(30)-lvm(30)_final(3).mov,0,124,124,51,,,,,,,,15:28:26:319,15:28:27:071,15:28:30:074,right,15:28:34:528,,2018_Jun_05_1457,59.9339536646,MP-Perception Experiment,xx10m25,
285,training(19).mov,False,right,1,dmp_npsi(30)_final(1).mov,0,125,125,133,,,,,,,,15:28:35:296,15:28:36:029,15:28:39:032,left,15:28:39:466,,2018_Jun_05_1457,59.9339536646,MP-Perception Experiment,xx10m25,
286,training(1).mov,True,right,1,vcgpdm_dyn(30)-lvm(35)_final(2).mov,0,126,126,71,,,,,,,,15:28:40:221,15:28:40:967,15:28:43:969,left,15:28:44:520,,2018_Jun_05_1457,59.9339536646,MP-Perception Experiment,xx10m25,
287,vcgpdm_dyn(30)-lvm(10)_final(9).mov,False,left,1,training(1).mov,0,127,127,23,,,,,,,,15:28:45:294,15:28:46:021,15:28:49:025,left,15:28:49:542,,2018_Jun_05_1457,59.9339536646,MP-Perception Experiment,xx10m25,
288,training(35).mov,True,right,1,vcgpdm_dyn(20)-lvm(10)_final(8).mov,0,128,128,129,,,,,,,,15:28:50:319,15:28:51:058,15:28:54:043,left,15:28:54:360,,2018_Jun_05_1457,59.9339536646,MP-Perception Experiment,xx10m25,
289,training(14).mov,True,right,1,map_cgpdm_final(4).mov,0,129,129,64,,,,,,,,15:28:55:113,15:28:55:861,15:28:58:864,right,15:28:59:148,,2018_Jun_05_1457,59.9339536646,MP-Perception Experiment,xx10m25,
290,training(14).mov,True,right,1,map_gpdm_final(8).mov,0,130,130,26,,,,,,,,15:28:59:914,15:29:00:649,15:29:03:636,right,15:29:04:020,,2018_Jun_05_1457,59.9339536646,MP-Perception Experiment,xx10m25,
291,training(5).mov,False,right,1,vgpdm_dyn(30)-lvm(15)_final(2).mov,0,131,131,44,,,,,,,,15:29:04:775,15:29:05:521,15:29:08:541,left,15:29:14:446,,2018_Jun_05_1457,59.9339536646,MP-Perception Experiment,xx10m25,
292,training(29).mov,False,right,1,tmp_numprim(3)_final(6).mov,0,132,132,7,,,,,,,,15:29:15:217,15:29:15:964,15:29:18:950,right,15:29:23:003,,2018_Jun_05_1457,59.9339536646,MP-Perception Experiment,xx10m25,
293,training(22).mov,True,right,1,dmp_npsi(50)_final(8).mov,0,133,133,74,,,,,,,,15:29:23:754,15:29:24:505,15:29:27:524,left,15:29:28:842,,2018_Jun_05_1457,59.9339536646,MP-Perception Experiment,xx10m25,
294,training(19).mov,False,right,1,tmp_numprim(6)_final(3).mov,0,134,134,61,,,,,,,,15:29:29:601,15:29:30:360,15:29:33:345,right,15:29:34:580,,2018_Jun_05_1457,59.9339536646,MP-Perception Experiment,xx10m25,
295,vgpdm_dyn(20)-lvm(30)_final(9).mov,False,left,1,training(28).mov,0,135,135,34,,,,,,,,15:29:35:359,15:29:36:081,15:29:39:084,right,15:29:40:585,,2018_Jun_05_1457,59.9339536646,MP-Perception Experiment,xx10m25,
296,training(12).mov,False,right,1,vgpdm_dyn(20)-lvm(35)_final(5).mov,0,136,136,117,,,,,,,,15:29:41:372,15:29:42:118,15:29:45:104,right,15:29:45:388,,2018_Jun_05_1457,59.9339536646,MP-Perception Experiment,xx10m25,
297,training(37).mov,True,right,1,vgpdm_dyn(5)-lvm(15)_final(3).mov,0,137,137,101,,,,,,,,15:29:46:150,15:29:46:906,15:29:49:891,right,15:29:50:158,,2018_Jun_05_1457,59.9339536646,MP-Perception Experiment,xx10m25,
298,vcgpdm_dyn(15)-lvm(30)_final(4).mov,True,left,1,training(34).mov,0,138,138,2,,,,,,,,15:29:50:906,15:29:51:659,15:29:54:647,left,15:29:55:464,,2018_Jun_05_1457,59.9339536646,MP-Perception Experiment,xx10m25,
299,training(30).mov,True,right,1,dmp_npsi(30)_final(3).mov,0,139,139,99,,,,,,,,15:29:56:212,15:29:56:965,15:29:59:969,right,15:30:00:336,,2018_Jun_05_1457,59.9339536646,MP-Perception Experiment,xx10m25,
300,dmp_npsi(20)_final(7).mov,False,left,1,training(26).mov,0,140,140,17,,,,,,,,15:30:01:100,15:30:01:854,15:30:04:841,left,15:30:05:307,,2018_Jun_05_1457,59.9339536646,MP-Perception Experiment,xx10m25,
301,training(30).mov,True,right,1,vgpdm_dyn(20)-lvm(35)_final(1).mov,0,141,141,29,,,,,,,,15:30:06:055,15:30:06:824,15:30:09:810,left,15:30:10:327,,2018_Jun_05_1457,59.9339536646,MP-Perception Experiment,xx10m25,
302,training(23).mov,True,right,1,vcgpdm_dyn(10)-lvm(25)_final(6).mov,0,142,142,140,,,,,,,,15:30:11:089,15:30:11:828,15:30:14:831,right,15:30:15:231,,2018_Jun_05_1457,59.9339536646,MP-Perception Experiment,xx10m25,
303,vgpdm_dyn(10)-lvm(30)_final(7).mov,False,left,1,training(28).mov,0,143,143,96,,,,,,,,15:30:16:001,15:30:16:733,15:30:19:737,left,15:30:20:170,,2018_Jun_05_1457,59.9339536646,MP-Perception Experiment,xx10m25,
304,vgpdm_dyn(30)-lvm(25)_final(9).mov,True,left,1,training(20).mov,0,144,144,115,,,,,,,,15:30:20:929,15:30:21:671,15:30:24:673,left,15:30:25:107,,2018_Jun_05_1457,59.9339536646,MP-Perception Experiment,xx10m25,
305,vgpdm_dyn(25)-lvm(10)_final(1)_out_of_screen.mov,False,left,1,training(1).mov,0,145,145,95,,,,,,,,15:30:25:875,15:30:26:608,15:30:29:611,left,15:30:30:061,,2018_Jun_05_1457,59.9339536646,MP-Perception Experiment,xx10m25,
306,vcgpdm_dyn(20)-lvm(15)_final(7).mov,True,left,1,training(9).mov,0,146,146,76,,,,,,,,15:30:30:815,15:30:31:577,15:30:34:564,right,15:30:35:815,,2018_Jun_05_1457,59.9339536646,MP-Perception Experiment,xx10m25,
307,training(48).mov,False,right,1,vcgpdm_dyn(20)-lvm(5)_final(9).mov,0,147,147,0,,,,,,,,15:30:36:572,15:30:37:316,15:30:40:318,right,15:30:40:586,,2018_Jun_05_1457,59.9339536646,MP-Perception Experiment,xx10m25,
308,map_cgpdm_final(5).mov,False,left,1,training(31).mov,0,148,148,145,,,,,,,,15:30:41:382,15:30:42:086,15:30:45:074,left,15:30:45:391,,2018_Jun_05_1457,59.9339536646,MP-Perception Experiment,xx10m25,
309,training(13).mov,False,right,1,vgpdm_dyn(35)-lvm(10)_final(1).mov,0,149,149,110,,,,,,,,15:30:46:147,15:30:46:892,15:30:49:895,right,15:30:51:380,,2018_Jun_05_1457,59.9339536646,MP-Perception Experiment,xx10m25,
310,training(21).mov,False,right,1,tmp_numprim(7)_final(9).mov,0,150,150,21,,,,,,,,15:30:52:141,15:30:52:881,15:30:55:884,right,15:30:56:251,,2018_Jun_05_1457,59.9339536646,MP-Perception Experiment,xx10m25,
311,vgpdm_dyn(30)-lvm(35)_final(5).mov,False,left,1,training(48).mov,0,151,151,154,,,,,,,,15:30:57:041,15:30:57:752,15:31:00:771,right,15:31:02:823,,2018_Jun_05_1457,59.9339536646,MP-Perception Experiment,xx10m25,
312,training(25).mov,False,right,1,vcgpdm_dyn(35)-lvm(5)_final(0).mov,0,152,152,10,,,,,,,,15:31:03:599,15:31:04:324,15:31:07:327,right,15:31:09:379,,2018_Jun_05_1457,59.9339536646,MP-Perception Experiment,xx10m25,
313,dmp_npsi(15)_final(9).mov,True,left,1,training(1).mov,0,153,153,109,,,,,,,,15:31:10:127,15:31:10:880,15:31:13:899,left,15:31:15:601,,2018_Jun_05_1457,59.9339536646,MP-Perception Experiment,xx10m25,
314,vgpdm_dyn(15)-lvm(35)_final(6).mov,True,left,1,training(17).mov,0,154,154,53,,,,,,,,15:31:16:362,15:31:17:119,15:31:20:104,left,15:31:20:622,,2018_Jun_05_1457,59.9339536646,MP-Perception Experiment,xx10m25,
315,vcgpdm_dyn(25)-lvm(25)_final(3).mov,True,left,1,training(0).mov,0,155,155,105,,,,,,,,15:31:21:375,15:31:22:138,15:31:25:123,left,15:31:25:390,,2018_Jun_05_1457,59.9339536646,MP-Perception Experiment,xx10m25,
316,training(9).mov,True,right,1,tmp_numprim(2)_final(4).mov,0,156,156,150,,,,,,,,15:31:26:148,15:31:26:892,15:31:29:895,right,15:31:30:312,,2018_Jun_05_1457,59.9339536646,MP-Perception Experiment,xx10m25,
317,vcgpdm_dyn(10)-lvm(35)_final(6).mov,False,left,1,training(12).mov,0,157,157,153,,,,,,,,15:31:31:057,15:31:31:830,15:31:34:817,right,15:31:35:251,,2018_Jun_05_1457,59.9339536646,MP-Perception Experiment,xx10m25,
318,training(10).mov,True,right,1,tmp_numprim(4)_final(4).mov,0,158,158,15,,,,,,,,15:31:36:016,15:31:36:769,15:31:39:755,right,15:31:41:039,,2018_Jun_05_1457,59.9339536646,MP-Perception Experiment,xx10m25,
319,training(34).mov,True,right,2,dmp_npsi(50)_final(7).mov,0,0,0,19,,,,,,,,15:35:09:080,15:35:09:836,15:35:12:839,left,15:35:13:224,,2018_Jun_05_1457,59.9339536646,MP-Perception Experiment,xx10m25,
320,dmp_npsi(25)_final(5).mov,True,left,2,training(36).mov,0,1,1,117,,,,,,,,15:35:13:986,15:35:14:741,15:35:17:727,left,15:35:18:044,,2018_Jun_05_1457,59.9339536646,MP-Perception Experiment,xx10m25,
321,training(40).mov,False,right,2,vcgpdm_dyn(30)-lvm(20)_final(1).mov,0,2,2,110,,,,,,,,15:35:18:815,15:35:19:545,15:35:22:547,right,15:35:22:814,,2018_Jun_05_1457,59.9339536646,MP-Perception Experiment,xx10m25,
322,tmp_numprim(3)_final(4).mov,True,left,2,training(35).mov,0,3,3,106,,,,,,,,15:35:23:580,15:35:24:315,15:35:27:318,left,15:35:27:635,,2018_Jun_05_1457,59.9339536646,MP-Perception Experiment,xx10m25,
323,vcgpdm_dyn(10)-lvm(15)_final(9).mov,False,left,2,training(32).mov,0,4,4,153,,,,,,,,15:35:28:378,15:35:29:136,15:35:32:138,right,15:35:32:438,,2018_Jun_05_1457,59.9339536646,MP-Perception Experiment,xx10m25,
324,training(8).mov,False,right,2,vcgpdm_dyn(5)-lvm(25)_final(1).mov,0,5,5,6,,,,,,,,15:35:33:191,15:35:33:939,15:35:36:942,right,15:35:37:258,,2018_Jun_05_1457,59.9339536646,MP-Perception Experiment,xx10m25,
325,vcgpdm_dyn(20)-lvm(5)_final(4).mov,True,left,2,training(13).mov,0,6,6,91,,,,,,,,15:35:38:020,15:35:38:760,15:35:41:762,right,15:35:42:079,,2018_Jun_05_1457,59.9339536646,MP-Perception Experiment,xx10m25,
326,vgpdm_dyn(10)-lvm(30)_final(0).mov,False,left,2,training(40).mov,0,7,7,116,,,,,,,,15:35:43:064,15:35:43:582,15:35:46:568,left,15:35:47:052,,2018_Jun_05_1457,59.9339536646,MP-Perception Experiment,xx10m25,
327,training(24).mov,False,right,2,vgpdm_dyn(20)-lvm(15)_final(2).mov,0,8,8,17,,,,,,,,15:35:47:800,15:35:48:570,15:35:51:556,left,15:35:52:273,,2018_Jun_05_1457,59.9339536646,MP-Perception Experiment,xx10m25,
328,training(35).mov,True,right,2,vcgpdm_dyn(10)-lvm(25)_final(7).mov,0,9,9,80,,,,,,,,15:35:53:058,15:35:53:775,15:35:56:777,right,15:35:57:261,,2018_Jun_05_1457,59.9339536646,MP-Perception Experiment,xx10m25,
329,training(1).mov,True,right,2,vgpdm_dyn(25)-lvm(25)_final(3)_bad.mov,0,10,10,32,,,,,,,,15:35:58:022,15:35:58:762,15:36:01:764,right,15:36:02:131,,2018_Jun_05_1457,59.9339536646,MP-Perception Experiment,xx10m25,
330,training(48).mov,False,right,2,vcgpdm_dyn(25)-lvm(10)_final(9).mov,0,11,11,127,,,,,,,,15:36:02:900,15:36:03:632,15:36:06:653,right,15:36:07:320,,2018_Jun_05_1457,59.9339536646,MP-Perception Experiment,xx10m25,
331,vgpdm_dyn(35)-lvm(30)_final(7).mov,False,left,2,training(15).mov,0,12,12,66,,,,,,,,15:36:08:069,15:36:08:838,15:36:11:823,right,15:36:12:107,,2018_Jun_05_1457,59.9339536646,MP-Perception Experiment,xx10m25,
332,tmp_numprim(9)_final(6).mov,True,left,2,training(8).mov,0,13,13,96,,,,,,,,15:36:12:862,15:36:13:608,15:36:16:627,left,15:36:17:478,,2018_Jun_05_1457,59.9339536646,MP-Perception Experiment,xx10m25,
333,training(25).mov,True,right,2,map_gpdm_final(9).mov,0,14,14,55,,,,,,,,15:36:18:232,15:36:18:979,15:36:21:980,right,15:36:22:397,,2018_Jun_05_1457,59.9339536646,MP-Perception Experiment,xx10m25,
334,training(7).mov,False,right,2,vcgpdm_dyn(35)-lvm(30)_final(6).mov,0,15,15,146,,,,,,,,15:36:23:171,15:36:23:899,15:36:26:901,right,15:36:27:352,,2018_Jun_05_1457,59.9339536646,MP-Perception Experiment,xx10m25,
335,training(31).mov,False,right,2,vgpdm_dyn(20)-lvm(5)_final(3).mov,0,16,16,85,,,,,,,,15:36:28:100,15:36:28:853,15:36:31:857,right,15:36:32:156,,2018_Jun_05_1457,59.9339536646,MP-Perception Experiment,xx10m25,
336,vcgpdm_dyn(10)-lvm(35)_final(6).mov,False,left,2,training(18).mov,0,17,17,12,,,,,,,,15:36:32:912,15:36:33:659,15:36:36:644,left,15:36:37:228,,2018_Jun_05_1457,59.9339536646,MP-Perception Experiment,xx10m25,
337,training(12).mov,False,right,2,vcgpdm_dyn(35)-lvm(30)_final(4).mov,0,18,18,120,,,,,,,,15:36:37:990,15:36:38:729,15:36:41:733,right,15:36:42:250,,2018_Jun_05_1457,59.9339536646,MP-Perception Experiment,xx10m25,
338,training(2).mov,True,right,2,vgpdm_dyn(20)-lvm(15)_final(7).mov,0,19,19,27,,,,,,,,15:36:43:710,15:36:44:218,15:36:46:754,left,15:36:47:521,,2018_Jun_05_1457,59.9339536646,MP-Perception Experiment,xx10m25,
339,vgpdm_dyn(20)-lvm(30)_final(5).mov,True,left,2,training(6).mov,0,20,20,151,,,,,,,,15:36:48:292,15:36:49:022,15:36:52:024,right,15:36:52:575,,2018_Jun_05_1457,59.9339536646,MP-Perception Experiment,xx10m25,
340,training(15).mov,True,right,2,vcgpdm_dyn(15)-lvm(25)_final(4).mov,0,21,21,77,,,,,,,,15:36:53:378,15:36:54:093,15:36:57:095,left,15:36:57:496,,2018_Jun_05_1457,59.9339536646,MP-Perception Experiment,xx10m25,
341,training(15).mov,False,right,2,vgpdm_dyn(35)-lvm(35)_final(7).mov,0,22,22,107,,,,,,,,15:36:58:268,15:36:58:998,15:37:02:017,right,15:37:02:367,,2018_Jun_05_1457,59.9339536646,MP-Perception Experiment,xx10m25,
342,training(16).mov,True,right,2,vcgpdm_dyn(5)-lvm(5)_final(2).mov,0,23,23,95,,,,,,,,15:37:03:132,15:37:03:885,15:37:06:871,right,15:37:07:922,,2018_Jun_05_1457,59.9339536646,MP-Perception Experiment,xx10m25,
343,vgpdm_dyn(35)-lvm(5)_final(6).mov,True,left,2,training(48).mov,0,24,24,133,,,,,,,,15:37:08:675,15:37:09:423,15:37:12:424,left,15:37:12:724,,2018_Jun_05_1457,59.9339536646,MP-Perception Experiment,xx10m25,
344,vgpdm_dyn(15)-lvm(30)_final(9).mov,True,left,2,training(10).mov,0,25,25,3,,,,,,,,15:37:13:496,15:37:14:225,15:37:17:229,left,15:37:17:279,,2018_Jun_05_1457,59.9339536646,MP-Perception Experiment,xx10m25,
345,training(18).mov,False,right,2,vcgpdm_dyn(20)-lvm(10)_final(2).mov,0,26,26,22,,,,,,,,15:37:18:020,15:37:18:780,15:37:21:782,right,15:37:22:633,,2018_Jun_05_1457,59.9339536646,MP-Perception Experiment,xx10m25,
346,vgpdm_dyn(15)-lvm(25)_final(9).mov,True,left,2,training(23).mov,0,27,27,45,,,,,,,,15:37:23:392,15:37:24:151,15:37:27:138,left,15:37:27:489,,2018_Jun_05_1457,59.9339536646,MP-Perception Experiment,xx10m25,
347,dmp_npsi(40)_final(1).mov,True,left,2,training(26).mov,0,28,28,157,,,,,,,,15:37:28:236,15:37:28:990,15:37:31:992,right,15:37:33:144,,2018_Jun_05_1457,59.9339536646,MP-Perception Experiment,xx10m25,
348,training(9).mov,False,right,2,vcgpdm_dyn(5)-lvm(30)_final(8)_bad.mov,0,29,29,98,,,,,,,,15:37:33:904,15:37:34:645,15:37:37:648,right,15:37:37:998,,2018_Jun_05_1457,59.9339536646,MP-Perception Experiment,xx10m25,
349,training(27).mov,True,right,2,vcgpdm_dyn(30)-lvm(15)_final(4).mov,0,30,30,86,,,,,,,,15:37:38:756,15:37:39:499,15:37:42:502,left,15:37:43:253,,2018_Jun_05_1457,59.9339536646,MP-Perception Experiment,xx10m25,
350,vgpdm_dyn(10)-lvm(5)_final(3).mov,False,left,2,training(19).mov,0,31,31,28,,,,,,,,15:37:44:016,15:37:44:753,15:37:47:756,left,15:37:48:156,,2018_Jun_05_1457,59.9339536646,MP-Perception Experiment,xx10m25,
351,training(32).mov,False,right,2,vcgpdm_dyn(20)-lvm(20)_final(9).mov,0,32,32,68,,,,,,,,15:37:48:905,15:37:49:657,15:37:52:678,right,15:37:54:612,,2018_Jun_05_1457,59.9339536646,MP-Perception Experiment,xx10m25,
352,vcgpdm_dyn(30)-lvm(15)_final(6).mov,True,left,2,training(30).mov,0,33,33,140,,,,,,,,15:37:55:364,15:37:56:114,15:37:59:116,left,15:37:59:800,,2018_Jun_05_1457,59.9339536646,MP-Perception Experiment,xx10m25,
353,training(29).mov,False,right,2,vcgpdm_dyn(15)-lvm(30)_final(6).mov,0,34,34,100,,,,,,,,15:38:00:548,15:38:01:301,15:38:04:302,right,15:38:04:552,,2018_Jun_05_1457,59.9339536646,MP-Perception Experiment,xx10m25,
354,training(17).mov,True,right,2,vcgpdm_dyn(20)-lvm(35)_final(5).mov,0,35,35,104,,,,,,,,15:38:05:308,15:38:06:053,15:38:09:057,right,15:38:09:540,,2018_Jun_05_1457,59.9339536646,MP-Perception Experiment,xx10m25,
355,training(48).mov,False,right,2,vgpdm_dyn(5)-lvm(10)_final(0).mov,0,36,36,144,,,,,,,,15:38:10:293,15:38:11:042,15:38:14:029,left,15:38:14:429,,2018_Jun_05_1457,59.9339536646,MP-Perception Experiment,xx10m25,
356,vgpdm_dyn(15)-lvm(35)_final(7).mov,False,left,2,training(34).mov,0,37,37,126,,,,,,,,15:38:15:183,15:38:15:931,15:38:18:933,left,15:38:19:367,,2018_Jun_05_1457,59.9339536646,MP-Perception Experiment,xx10m25,
357,vcgpdm_dyn(5)-lvm(10)_final(0).mov,True,left,2,training(7).mov,0,38,38,23,,,,,,,,15:38:20:123,15:38:20:885,15:38:23:887,left,15:38:24:304,,2018_Jun_05_1457,59.9339536646,MP-Perception Experiment,xx10m25,
358,vgpdm_dyn(30)-lvm(15)_final(0).mov,True,left,2,training(20).mov,0,39,39,114,,,,,,,,15:38:25:075,15:38:25:823,15:38:28:809,left,15:38:29:126,,2018_Jun_05_1457,59.9339536646,MP-Perception Experiment,xx10m25,
359,vcgpdm_dyn(20)-lvm(35)_final(6).mov,False,left,2,training(18).mov,0,40,40,156,,,,,,,,15:38:29:886,15:38:30:627,15:38:33:629,left,15:38:34:046,,2018_Jun_05_1457,59.9339536646,MP-Perception Experiment,xx10m25,
360,training(29).mov,False,right,2,vcgpdm_dyn(30)-lvm(25)_final(0).mov,0,41,41,75,,,,,,,,15:38:34:805,15:38:35:564,15:38:38:550,right,15:38:38:900,,2018_Jun_05_1457,59.9339536646,MP-Perception Experiment,xx10m25,
361,vcgpdm_dyn(30)-lvm(20)_final(1).mov,True,left,2,training(6).mov,0,42,42,147,,,,,,,,15:38:39:649,15:38:40:401,15:38:43:405,right,15:38:44:122,,2018_Jun_05_1457,59.9339536646,MP-Perception Experiment,xx10m25,
362,vgpdm_dyn(20)-lvm(20)_final(3).mov,False,left,2,training(7).mov,0,43,43,84,,,,,,,,15:38:44:865,15:38:45:623,15:38:48:642,right,15:38:49:160,,2018_Jun_05_1457,59.9339536646,MP-Perception Experiment,xx10m25,
363,training(2).mov,True,right,2,vcgpdm_dyn(5)-lvm(15)_final(8).mov,0,44,44,49,,,,,,,,15:38:49:919,15:38:50:661,15:38:53:661,right,15:38:53:978,,2018_Jun_05_1457,59.9339536646,MP-Perception Experiment,xx10m25,
364,vcgpdm_dyn(25)-lvm(30)_final(4).mov,False,left,2,training(31).mov,0,45,45,0,,,,,,,,15:38:54:732,15:38:55:479,15:38:58:482,left,15:38:58:899,,2018_Jun_05_1457,59.9339536646,MP-Perception Experiment,xx10m25,
365,vgpdm_dyn(15)-lvm(35)_final(3).mov,False,left,2,training(48).mov,0,46,46,113,,,,,,,,15:38:59:665,15:39:00:418,15:39:03:403,right,15:39:03:887,,2018_Jun_05_1457,59.9339536646,MP-Perception Experiment,xx10m25,
366,map_gpdm_final(6).mov,True,left,2,training(20).mov,0,47,47,38,,,,,,,,15:39:04:640,15:39:05:405,15:39:08:376,left,15:39:08:826,,2018_Jun_05_1457,59.9339536646,MP-Perception Experiment,xx10m25,
367,vcgpdm_dyn(15)-lvm(35)_final(3).mov,False,left,2,training(7).mov,0,48,48,135,,,,,,,,15:39:09:577,15:39:10:327,15:39:13:330,left,15:39:13:830,,2018_Jun_05_1457,59.9339536646,MP-Perception Experiment,xx10m25,
368,training(27).mov,True,right,2,vcgpdm_dyn(20)-lvm(30)_final(9).mov,0,49,49,20,,,,,,,,15:39:14:578,15:39:15:332,15:39:18:335,right,15:39:18:952,,2018_Jun_05_1457,59.9339536646,MP-Perception Experiment,xx10m25,
369,training(39).mov,True,right,2,vgpdm_dyn(35)-lvm(25)_final(8).mov,0,50,50,150,,,,,,,,15:39:19:728,15:39:20:470,15:39:23:456,right,15:39:23:806,,2018_Jun_05_1457,59.9339536646,MP-Perception Experiment,xx10m25,
370,vgpdm_dyn(30)-lvm(30)_final(3).mov,True,left,2,training(7).mov,0,51,51,54,,,,,,,,15:39:24:579,15:39:25:307,15:39:28:310,left,15:39:28:810,,2018_Jun_05_1457,59.9339536646,MP-Perception Experiment,xx10m25,
371,training(17).mov,True,right,2,vgpdm_dyn(10)-lvm(20)_final(2).mov,0,52,52,131,,,,,,,,15:39:29:575,15:39:30:311,15:39:33:314,right,15:39:33:714,,2018_Jun_05_1457,59.9339536646,MP-Perception Experiment,xx10m25,
372,training(13).mov,False,right,2,vcgpdm_dyn(25)-lvm(20)_final(8).mov,0,53,53,105,,,,,,,,15:39:34:511,15:39:35:233,15:39:38:219,left,15:39:39:270,,2018_Jun_05_1457,59.9339536646,MP-Perception Experiment,xx10m25,
373,training(4).mov,True,right,2,vgpdm_dyn(15)-lvm(10)_final(9)_out_of_screen.mov,0,54,54,39,,,,,,,,15:39:40:018,15:39:40:771,15:39:43:771,right,15:39:44:155,,2018_Jun_05_1457,59.9339536646,MP-Perception Experiment,xx10m25,
374,vcgpdm_dyn(15)-lvm(15)_final(2).mov,False,left,2,training(31).mov,0,55,55,103,,,,,,,,15:39:44:925,15:39:45:656,15:39:48:659,right,15:39:51:227,,2018_Jun_05_1457,59.9339536646,MP-Perception Experiment,xx10m25,
375,vcgpdm_dyn(35)-lvm(25)_final(5).mov,True,left,2,training(10).mov,0,56,56,132,,,,,,,,15:39:51:989,15:39:52:730,15:39:55:717,left,15:39:57:452,,2018_Jun_05_1457,59.9339536646,MP-Perception Experiment,xx10m25,
376,training(6).mov,False,right,2,vgpdm_dyn(10)-lvm(5)_final(8).mov,0,57,57,14,,,,,,,,15:39:58:228,15:39:58:953,15:40:01:956,right,15:40:02:357,,2018_Jun_05_1457,59.9339536646,MP-Perception Experiment,xx10m25,
377,training(34).mov,True,right,2,vgpdm_dyn(20)-lvm(15)_final(0).mov,0,58,58,82,,,,,,,,15:40:03:135,15:40:03:874,15:40:06:876,right,15:40:07:360,,2018_Jun_05_1457,59.9339536646,MP-Perception Experiment,xx10m25,
378,tmp_numprim(9)_final(3).mov,False,left,2,training(8).mov,0,59,59,122,,,,,,,,15:40:08:121,15:40:08:878,15:40:11:864,left,15:40:12:265,,2018_Jun_05_1457,59.9339536646,MP-Perception Experiment,xx10m25,
379,vcgpdm_dyn(10)-lvm(5)_final(8).mov,True,left,2,training(23).mov,0,60,60,142,,,,,,,,15:40:13:035,15:40:13:783,15:40:16:768,left,15:40:17:119,,2018_Jun_05_1457,59.9339536646,MP-Perception Experiment,xx10m25,
380,vgpdm_dyn(30)-lvm(30)_final(0).mov,True,left,2,training(34).mov,0,61,61,46,,,,,,,,15:40:17:901,15:40:18:620,15:40:21:622,left,15:40:22:240,,2018_Jun_05_1457,59.9339536646,MP-Perception Experiment,xx10m25,
381,vgpdm_dyn(5)-lvm(25)_final(6)_out_of_screen.mov,False,left,2,training(5).mov,0,62,62,57,,,,,,,,15:40:23:033,15:40:23:741,15:40:26:743,left,15:40:27:127,,2018_Jun_05_1457,59.9339536646,MP-Perception Experiment,xx10m25,
382,vcgpdm_dyn(25)-lvm(35)_final(3).mov,True,left,2,training(6).mov,0,63,63,8,,,,,,,,15:40:27:879,15:40:28:629,15:40:31:630,left,15:40:32:297,,2018_Jun_05_1457,59.9339536646,MP-Perception Experiment,xx10m25,
383,training(3).mov,True,right,2,vgpdm_dyn(5)-lvm(30)_final(8).mov,0,64,64,59,,,,,,,,15:40:33:058,15:40:33:798,15:40:36:801,right,15:40:37:267,,2018_Jun_05_1457,59.9339536646,MP-Perception Experiment,xx10m25,
384,training(34).mov,False,right,2,vgpdm_dyn(15)-lvm(5)_final(8).mov,0,65,65,102,,,,,,,,15:40:38:013,15:40:38:769,15:40:41:771,right,15:40:42:372,,2018_Jun_05_1457,59.9339536646,MP-Perception Experiment,xx10m25,
385,vcgpdm_dyn(15)-lvm(10)_final(1).mov,False,left,2,training(48).mov,0,66,66,74,,,,,,,,15:40:43:626,15:40:44:140,15:40:46:878,right,15:40:47:662,,2018_Jun_05_1457,59.9339536646,MP-Perception Experiment,xx10m25,
386,training(6).mov,False,right,2,map_cgpdm_final(6).mov,0,67,67,128,,,,,,,,15:40:48:436,15:40:49:163,15:40:52:182,right,15:40:52:599,,2018_Jun_05_1457,59.9339536646,MP-Perception Experiment,xx10m25,
387,training(40).mov,False,right,2,vcgpdm_dyn(15)-lvm(20)_final(4).mov,0,68,68,101,,,,,,,,15:40:53:351,15:40:54:101,15:40:57:103,right,15:40:57:520,,2018_Jun_05_1457,59.9339536646,MP-Perception Experiment,xx10m25,
388,vgpdm_dyn(35)-lvm(30)_final(7).mov,True,left,2,training(8).mov,0,69,69,141,,,,,,,,15:40:58:293,15:40:59:038,15:41:02:023,left,15:41:02:391,,2018_Jun_05_1457,59.9339536646,MP-Perception Experiment,xx10m25,
389,vgpdm_dyn(25)-lvm(5)_final(0).mov,False,left,2,training(40).mov,0,70,70,34,,,,,,,,15:41:03:161,15:41:03:893,15:41:06:895,right,15:41:07:346,,2018_Jun_05_1457,59.9339536646,MP-Perception Experiment,xx10m25,
390,vcgpdm_dyn(5)-lvm(15)_final(1).mov,True,left,2,training(12).mov,0,71,71,129,,,,,,,,15:41:08:097,15:41:08:863,15:41:11:849,left,15:41:12:250,,2018_Jun_05_1457,59.9339536646,MP-Perception Experiment,xx10m25,
391,training(34).mov,True,right,2,vgpdm_dyn(25)-lvm(35)_final(1).mov,0,72,72,73,,,,,,,,15:41:13:013,15:41:13:751,15:41:16:753,left,15:41:17:237,,2018_Jun_05_1457,59.9339536646,MP-Perception Experiment,xx10m25,
392,vgpdm_dyn(5)-lvm(20)_final(4).mov,False,left,2,training(38).mov,0,73,73,152,,,,,,,,15:41:17:992,15:41:18:738,15:41:21:740,left,15:41:22:074,,2018_Jun_05_1457,59.9339536646,MP-Perception Experiment,xx10m25,
393,training(24).mov,False,right,2,vgpdm_dyn(20)-lvm(30)_final(9).mov,0,74,74,90,,,,,,,,15:41:22:822,15:41:23:575,15:41:26:577,right,15:41:26:977,,2018_Jun_05_1457,59.9339536646,MP-Perception Experiment,xx10m25,
394,vcgpdm_dyn(30)-lvm(5)_final(7).mov,True,left,2,training(15).mov,0,75,75,18,,,,,,,,15:41:27:730,15:41:28:478,15:41:31:481,left,15:41:31:831,,2018_Jun_05_1457,59.9339536646,MP-Perception Experiment,xx10m25,
395,training(17).mov,False,right,2,vgpdm_dyn(10)-lvm(30)_final(3).mov,0,76,76,33,,,,,,,,15:41:32:607,15:41:33:334,15:41:36:337,right,15:41:36:887,,2018_Jun_05_1457,59.9339536646,MP-Perception Experiment,xx10m25,
396,vcgpdm_dyn(30)-lvm(25)_final(6).mov,False,left,2,training(2).mov,0,77,77,143,,,,,,,,15:41:37:643,15:41:38:389,15:41:41:408,left,15:41:42:493,,2018_Jun_05_1457,59.9339536646,MP-Perception Experiment,xx10m25,
397,vgpdm_dyn(10)-lvm(10)_final(3).mov,False,left,2,training(27).mov,0,78,78,25,,,,,,,,15:41:43:769,15:41:44:277,15:41:47:013,left,15:41:47:880,,2018_Jun_05_1457,59.9339536646,MP-Perception Experiment,xx10m25,
398,vgpdm_dyn(5)-lvm(10)_final(7).mov,True,left,2,training(40).mov,0,79,79,145,,,,,,,,15:41:48:645,15:41:49:398,15:41:52:384,left,15:41:52:834,,2018_Jun_05_1457,59.9339536646,MP-Perception Experiment,xx10m25,
399,training(6).mov,False,right,2,dmp_npsi(15)_final(4).mov,0,80,80,149,,,,,,,,15:41:53:602,15:41:54:335,15:41:57:339,right,15:41:57:839,,2018_Jun_05_1457,59.9339536646,MP-Perception Experiment,xx10m25,
400,training(19).mov,True,right,2,vcgpdm_dyn(15)-lvm(25)_final(9).mov,0,81,81,65,,,,,,,,15:41:58:595,15:41:59:341,15:42:02:343,right,15:42:02:860,,2018_Jun_05_1457,59.9339536646,MP-Perception Experiment,xx10m25,
401,training(39).mov,True,right,2,vgpdm_dyn(35)-lvm(10)_final(7).mov,0,82,82,41,,,,,,,,15:42:03:621,15:42:04:378,15:42:07:364,right,15:42:07:797,,2018_Jun_05_1457,59.9339536646,MP-Perception Experiment,xx10m25,
402,training(40).mov,False,right,2,tmp_numprim(2)_final(1).mov,0,83,83,136,,,,,,,,15:42:08:572,15:42:09:299,15:42:12:299,right,15:42:14:252,,2018_Jun_05_1457,59.9339536646,MP-Perception Experiment,xx10m25,
403,training(4).mov,True,right,2,vcgpdm_dyn(10)-lvm(30)_final(4).mov,0,84,84,70,,,,,,,,15:42:15:004,15:42:15:753,15:42:18:755,left,15:42:19:106,,2018_Jun_05_1457,59.9339536646,MP-Perception Experiment,xx10m25,
404,training(17).mov,True,right,2,vcgpdm_dyn(20)-lvm(5)_final(0).mov,0,85,85,112,,,,,,,,15:42:19:853,15:42:20:623,15:42:23:609,right,15:42:23:826,,2018_Jun_05_1457,59.9339536646,MP-Perception Experiment,xx10m25,
405,training(40).mov,True,right,2,vcgpdm_dyn(30)-lvm(10)_final(7).mov,0,86,86,79,,,,,,,,15:42:24:584,15:42:25:327,15:42:28:315,right,15:42:28:649,,2018_Jun_05_1457,59.9339536646,MP-Perception Experiment,xx10m25,
406,training(12).mov,False,right,2,vgpdm_dyn(35)-lvm(5)_final(8).mov,0,87,87,155,,,,,,,,15:42:29:397,15:42:30:151,15:42:33:153,left,15:42:33:970,,2018_Jun_05_1457,59.9339536646,MP-Perception Experiment,xx10m25,
407,vgpdm_dyn(25)-lvm(5)_final(3).mov,True,left,2,training(12).mov,0,88,88,123,,,,,,,,15:42:34:729,15:42:35:472,15:42:38:474,left,15:42:38:941,,2018_Jun_05_1457,59.9339536646,MP-Perception Experiment,xx10m25,
408,training(28).mov,False,right,2,vcgpdm_dyn(20)-lvm(25)_final(3).mov,0,89,89,44,,,,,,,,15:42:39:697,15:42:40:442,15:42:43:445,right,15:42:43:879,,2018_Jun_05_1457,59.9339536646,MP-Perception Experiment,xx10m25,
409,training(9).mov,True,right,2,vcgpdm_dyn(25)-lvm(25)_final(2).mov,0,90,90,7,,,,,,,,15:42:44:644,15:42:45:396,15:42:48:383,right,15:42:48:817,,2018_Jun_05_1457,59.9339536646,MP-Perception Experiment,xx10m25,
410,training(41).mov,True,right,2,vcgpdm_dyn(35)-lvm(25)_final(5).mov,0,91,91,13,,,,,,,,15:42:49:581,15:42:50:318,15:42:53:320,left,15:42:54:188,,2018_Jun_05_1457,59.9339536646,MP-Perception Experiment,xx10m25,
411,vgpdm_dyn(5)-lvm(30)_final(0).mov,True,left,2,training(32).mov,0,92,92,43,,,,,,,,15:42:54:950,15:42:55:689,15:42:58:692,left,15:42:59:075,,2018_Jun_05_1457,59.9339536646,MP-Perception Experiment,xx10m25,
412,vgpdm_dyn(10)-lvm(10)_final(2).mov,True,left,2,training(0).mov,0,93,93,10,,,,,,,,15:42:59:821,15:43:00:576,15:43:03:577,left,15:43:03:994,,2018_Jun_05_1457,59.9339536646,MP-Perception Experiment,xx10m25,
413,training(35).mov,True,right,2,vgpdm_dyn(5)-lvm(15)_final(4).mov,0,94,94,52,,,,,,,,15:43:04:746,15:43:05:513,15:43:08:499,right,15:43:08:815,,2018_Jun_05_1457,59.9339536646,MP-Perception Experiment,xx10m25,
414,vcgpdm_dyn(20)-lvm(30)_final(7).mov,False,left,2,training(22).mov,0,95,95,35,,,,,,,,15:43:09:581,15:43:10:333,15:43:13:338,right,15:43:13:671,,2018_Jun_05_1457,59.9339536646,MP-Perception Experiment,xx10m25,
415,training(13).mov,True,right,2,vcgpdm_dyn(10)-lvm(10)_final(1).mov,0,96,96,30,,,,,,,,15:43:14:420,15:43:15:172,15:43:18:175,right,15:43:18:942,,2018_Jun_05_1457,59.9339536646,MP-Perception Experiment,xx10m25,
416,vcgpdm_dyn(15)-lvm(30)_final(6).mov,False,left,2,training(32).mov,0,97,97,93,,,,,,,,15:43:19:704,15:43:20:443,15:43:23:447,right,15:43:23:914,,2018_Jun_05_1457,59.9339536646,MP-Perception Experiment,xx10m25,
417,training(15).mov,True,right,2,vcgpdm_dyn(20)-lvm(20)_final(5).mov,0,98,98,48,,,,,,,,15:43:24:673,15:43:25:415,15:43:28:434,left,15:43:28:868,,2018_Jun_05_1457,59.9339536646,MP-Perception Experiment,xx10m25,
418,training(1).mov,False,right,2,tmp_numprim(2)_final(7).mov,0,99,99,53,,,,,,,,15:43:29:626,15:43:30:386,15:43:33:388,right,15:43:33:655,,2018_Jun_05_1457,59.9339536646,MP-Perception Experiment,xx10m25,
419,vgpdm_dyn(20)-lvm(20)_final(9).mov,True,left,2,training(7).mov,0,100,100,21,,,,,,,,15:43:34:409,15:43:35:156,15:43:38:159,left,15:43:38:709,,2018_Jun_05_1457,59.9339536646,MP-Perception Experiment,xx10m25,
420,training(17).mov,False,right,2,vgpdm_dyn(35)-lvm(30)_final(5).mov,0,101,101,134,,,,,,,,15:43:39:464,15:43:40:211,15:43:43:214,right,15:43:43:781,,2018_Jun_05_1457,59.9339536646,MP-Perception Experiment,xx10m25,
421,training(39).mov,False,right,2,dmp_npsi(50)_final(9).mov,0,102,102,83,,,,,,,,15:43:44:545,15:43:45:282,15:43:48:284,left,15:43:48:668,,2018_Jun_05_1457,59.9339536646,MP-Perception Experiment,xx10m25,
422,training(23).mov,True,right,2,vgpdm_dyn(15)-lvm(5)_final(3).mov,0,103,103,94,,,,,,,,15:43:49:419,15:43:50:169,15:43:53:170,right,15:43:53:537,,2018_Jun_05_1457,59.9339536646,MP-Perception Experiment,xx10m25,
423,training(2).mov,False,right,2,vcgpdm_dyn(20)-lvm(15)_final(1).mov,0,104,104,63,,,,,,,,15:43:54:294,15:43:55:055,15:43:58:042,right,15:43:58:409,,2018_Jun_05_1457,59.9339536646,MP-Perception Experiment,xx10m25,
424,training(31).mov,True,right,2,vcgpdm_dyn(15)-lvm(20)_final(4).mov,0,105,105,87,,,,,,,,15:43:59:167,15:43:59:910,15:44:02:912,right,15:44:04:047,,2018_Jun_05_1457,59.9339536646,MP-Perception Experiment,xx10m25,
425,training(9).mov,False,right,2,vgpdm_dyn(5)-lvm(15)_final(8).mov,0,106,106,1,,,,,,,,15:44:04:814,15:44:05:548,15:44:08:535,right,15:44:08:936,,2018_Jun_05_1457,59.9339536646,MP-Perception Experiment,xx10m25,
426,training(18).mov,False,right,2,vcgpdm_dyn(10)-lvm(20)_final(5).mov,0,107,107,118,,,,,,,,15:44:09:697,15:44:10:437,15:44:13:439,right,15:44:14:023,,2018_Jun_05_1457,59.9339536646,MP-Perception Experiment,xx10m25,
427,training(15).mov,True,right,2,vcgpdm_dyn(30)-lvm(20)_final(1).mov,0,108,108,61,,,,,,,,15:44:14:782,15:44:15:525,15:44:18:544,left,15:44:19:128,,2018_Jun_05_1457,59.9339536646,MP-Perception Experiment,xx10m25,
428,training(36).mov,True,right,2,vcgpdm_dyn(10)-lvm(10)_final(7).mov,0,109,109,31,,,,,,,,15:44:19:933,15:44:20:629,15:44:23:632,right,15:44:24:015,,2018_Jun_05_1457,59.9339536646,MP-Perception Experiment,xx10m25,
429,training(37).mov,False,right,2,vgpdm_dyn(5)-lvm(20)_final(9).mov,0,110,110,40,,,,,,,,15:44:24:773,15:44:25:533,15:44:28:519,right,15:44:28:869,,2018_Jun_05_1457,59.9339536646,MP-Perception Experiment,xx10m25,
430,vcgpdm_dyn(30)-lvm(35)_final(6).mov,True,left,2,training(23).mov,0,111,111,111,,,,,,,,15:44:29:645,15:44:30:387,15:44:33:391,left,15:44:33:791,,2018_Jun_05_1457,59.9339536646,MP-Perception Experiment,xx10m25,
431,training(4).mov,True,right,2,vcgpdm_dyn(10)-lvm(15)_final(6).mov,0,112,112,42,,,,,,,,15:44:34:557,15:44:35:292,15:44:38:295,right,15:44:38:795,,2018_Jun_05_1457,59.9339536646,MP-Perception Experiment,xx10m25,
432,vcgpdm_dyn(5)-lvm(20)_final(5).mov,True,left,2,training(6).mov,0,113,113,58,,,,,,,,15:44:39:560,15:44:40:296,15:44:43:297,left,15:44:43:714,,2018_Jun_05_1457,59.9339536646,MP-Perception Experiment,xx10m25,
433,vcgpdm_dyn(25)-lvm(5)_final(8).mov,True,left,2,training(25).mov,0,114,114,108,,,,,,,,15:44:44:476,15:44:45:215,15:44:48:217,left,15:44:48:551,,2018_Jun_05_1457,59.9339536646,MP-Perception Experiment,xx10m25,
434,map_gpdm_final(7).mov,True,left,2,training(17).mov,0,115,115,56,,,,,,,,15:44:49:343,15:44:50:053,15:44:53:056,left,15:44:53:208,,2018_Jun_05_1457,59.9339536646,MP-Perception Experiment,xx10m25,
435,tmp_numprim(6)_final(7).mov,False,left,2,training(0).mov,0,116,116,154,,,,,,,,15:44:53:983,15:44:54:725,15:44:57:711,right,15:44:59:546,,2018_Jun_05_1457,59.9339536646,MP-Perception Experiment,xx10m25,
436,training(1).mov,True,right,2,vcgpdm_dyn(25)-lvm(10)_final(0).mov,0,117,117,138,,,,,,,,15:45:00:317,15:45:01:064,15:45:04:050,right,15:45:05:618,,2018_Jun_05_1457,59.9339536646,MP-Perception Experiment,xx10m25,
437,training(27).mov,False,right,2,tmp_numprim(10)_final(4).mov,0,118,118,64,,,,,,,,15:45:06:365,15:45:07:119,15:45:10:122,right,15:45:10:706,,2018_Jun_05_1457,59.9339536646,MP-Perception Experiment,xx10m25,
438,vcgpdm_dyn(5)-lvm(25)_final(3).mov,True,left,2,training(4).mov,0,119,119,4,,,,,,,,15:45:11:477,15:45:12:207,15:45:15:209,left,15:45:15:560,,2018_Jun_05_1457,59.9339536646,MP-Perception Experiment,xx10m25,
439,vcgpdm_dyn(25)-lvm(20)_final(3).mov,False,left,2,training(35).mov,0,120,120,97,,,,,,,,15:45:16:327,15:45:17:061,15:45:20:063,left,15:45:20:498,,2018_Jun_05_1457,59.9339536646,MP-Perception Experiment,xx10m25,
440,tmp_numprim(7)_final(4).mov,True,left,2,training(23).mov,0,121,121,29,,,,,,,,15:45:21:282,15:45:21:998,15:45:25:002,right,15:45:27:004,,2018_Jun_05_1457,59.9339536646,MP-Perception Experiment,xx10m25,
441,vgpdm_dyn(30)-lvm(5)_final(1).mov,False,left,2,training(27).mov,0,122,122,158,,,,,,,,15:45:27:758,15:45:28:505,15:45:31:524,right,15:45:32:123,,2018_Jun_05_1457,59.9339536646,MP-Perception Experiment,xx10m25,
442,training(24).mov,True,right,2,vgpdm_dyn(10)-lvm(20)_final(0).mov,0,123,123,99,,,,,,,,15:45:32:890,15:45:33:624,15:45:36:626,right,15:45:36:926,,2018_Jun_05_1457,59.9339536646,MP-Perception Experiment,xx10m25,
443,vcgpdm_dyn(25)-lvm(5)_final(1).mov,True,left,2,training(15).mov,0,124,124,60,,,,,,,,15:45:37:693,15:45:38:427,15:45:41:430,left,15:45:42:515,,2018_Jun_05_1457,59.9339536646,MP-Perception Experiment,xx10m25,
444,vcgpdm_dyn(25)-lvm(35)_final(1).mov,False,left,2,training(28).mov,0,125,125,148,,,,,,,,15:45:43:641,15:45:44:152,15:45:47:021,right,15:45:47:672,,2018_Jun_05_1457,59.9339536646,MP-Perception Experiment,xx10m25,
445,training(1).mov,False,right,2,tmp_numprim(2)_final(0).mov,0,126,126,109,,,,,,,,15:45:48:442,15:45:49:172,15:45:52:191,left,15:45:52:659,,2018_Jun_05_1457,59.9339536646,MP-Perception Experiment,xx10m25,
446,vgpdm_dyn(25)-lvm(20)_final(4).mov,False,left,2,training(36).mov,0,127,127,62,,,,,,,,15:45:53:418,15:45:54:160,15:45:57:162,left,15:45:57:563,,2018_Jun_05_1457,59.9339536646,MP-Perception Experiment,xx10m25,
447,training(27).mov,False,right,2,vgpdm_dyn(10)-lvm(25)_final(8).mov,0,128,128,130,,,,,,,,15:45:58:330,15:45:59:064,15:46:02:067,right,15:46:02:818,,2018_Jun_05_1457,59.9339536646,MP-Perception Experiment,xx10m25,
448,training(32).mov,True,right,2,vcgpdm_dyn(15)-lvm(15)_final(6).mov,0,129,129,88,,,,,,,,15:46:03:587,15:46:04:319,15:46:07:321,left,15:46:07:689,,2018_Jun_05_1457,59.9339536646,MP-Perception Experiment,xx10m25,
449,vcgpdm_dyn(20)-lvm(25)_final(1).mov,False,left,2,training(39).mov,0,130,130,67,,,,,,,,15:46:08:456,15:46:09:206,15:46:12:192,left,15:46:12:609,,2018_Jun_05_1457,59.9339536646,MP-Perception Experiment,xx10m25,
450,vcgpdm_dyn(20)-lvm(35)_final(5).mov,False,left,2,training(15).mov,0,131,131,89,,,,,,,,15:46:13:369,15:46:14:110,15:46:17:113,right,15:46:17:714,,2018_Jun_05_1457,59.9339536646,MP-Perception Experiment,xx10m25,
451,vgpdm_dyn(30)-lvm(35)_final(6).mov,False,left,2,training(18).mov,0,132,132,69,,,,,,,,15:46:18:480,15:46:19:215,15:46:22:216,left,15:46:23:484,,2018_Jun_05_1457,59.9339536646,MP-Perception Experiment,xx10m25,
452,vgpdm_dyn(5)-lvm(10)_final(5).mov,False,left,2,training(19).mov,0,133,133,121,,,,,,,,15:46:24:263,15:46:24:985,15:46:27:987,left,15:46:28:204,,2018_Jun_05_1457,59.9339536646,MP-Perception Experiment,xx10m25,
453,training(22).mov,False,right,2,vgpdm_dyn(15)-lvm(25)_final(7).mov,0,134,134,71,,,,,,,,15:46:28:964,15:46:29:705,15:46:32:708,right,15:46:32:975,,2018_Jun_05_1457,59.9339536646,MP-Perception Experiment,xx10m25,
454,vcgpdm_dyn(15)-lvm(15)_final(2).mov,True,left,2,training(26).mov,0,135,135,24,,,,,,,,15:46:33:729,15:46:34:478,15:46:37:481,right,15:46:38:048,,2018_Jun_05_1457,59.9339536646,MP-Perception Experiment,xx10m25,
455,vgpdm_dyn(25)-lvm(30)_final(9).mov,True,left,2,training(20).mov,0,136,136,36,,,,,,,,15:46:38:820,15:46:39:549,15:46:42:552,left,15:46:43:102,,2018_Jun_05_1457,59.9339536646,MP-Perception Experiment,xx10m25,
456,dmp_npsi(35)_final(3).mov,True,left,2,training(28).mov,0,137,137,137,,,,,,,,15:46:43:870,15:46:44:603,15:46:47:622,left,15:46:48:090,,2018_Jun_05_1457,59.9339536646,MP-Perception Experiment,xx10m25,
457,training(35).mov,True,right,2,vcgpdm_dyn(35)-lvm(25)_final(2).mov,0,138,138,92,,,,,,,,15:46:48:853,15:46:49:591,15:46:52:594,right,15:46:53:178,,2018_Jun_05_1457,59.9339536646,MP-Perception Experiment,xx10m25,
458,vcgpdm_dyn(20)-lvm(30)_final(6).mov,True,left,2,training(23).mov,0,139,139,76,,,,,,,,15:46:53:933,15:46:54:679,15:46:57:682,left,15:46:58:032,,2018_Jun_05_1457,59.9339536646,MP-Perception Experiment,xx10m25,
459,vcgpdm_dyn(35)-lvm(5)_final(1).mov,False,left,2,training(21).mov,0,140,140,115,,,,,,,,15:46:58:793,15:46:59:533,15:47:02:553,left,15:47:03:287,,2018_Jun_05_1457,59.9339536646,MP-Perception Experiment,xx10m25,
460,dmp_npsi(40)_final(6).mov,True,left,2,training(17).mov,0,141,141,51,,,,,,,,15:47:04:062,15:47:04:804,15:47:07:806,left,15:47:08:207,,2018_Jun_05_1457,59.9339536646,MP-Perception Experiment,xx10m25,
461,training(41).mov,True,right,2,vcgpdm_dyn(5)-lvm(10)_final(1).mov,0,142,142,2,,,,,,,,15:47:08:965,15:47:09:709,15:47:12:710,right,15:47:14:444,,2018_Jun_05_1457,59.9339536646,MP-Perception Experiment,xx10m25,
462,training(35).mov,False,right,2,vgpdm_dyn(30)-lvm(15)_final(2).mov,0,143,143,72,,,,,,,,15:47:15:203,15:47:15:962,15:47:18:948,left,15:47:19:415,,2018_Jun_05_1457,59.9339536646,MP-Perception Experiment,xx10m25,
463,training(41).mov,True,right,2,dmp_npsi(50)_final(6).mov,0,144,144,81,,,,,,,,15:47:20:183,15:47:20:916,15:47:23:919,left,15:47:24:536,,2018_Jun_05_1457,59.9339536646,MP-Perception Experiment,xx10m25,
464,training(31).mov,True,right,2,vcgpdm_dyn(15)-lvm(5)_final(5).mov,0,145,145,9,,,,,,,,15:47:25:310,15:47:26:039,15:47:29:042,right,15:47:31:428,,2018_Jun_05_1457,59.9339536646,MP-Perception Experiment,xx10m25,
465,tmp_numprim(3)_final(0).mov,True,left,2,training(35).mov,0,146,146,50,,,,,,,,15:47:32:184,15:47:32:929,15:47:35:931,left,15:47:36:348,,2018_Jun_05_1457,59.9339536646,MP-Perception Experiment,xx10m25,
466,training(14).mov,False,right,2,vgpdm_dyn(35)-lvm(30)_final(9).mov,0,147,147,15,,,,,,,,15:47:37:103,15:47:37:866,15:47:40:852,left,15:47:41:386,,2018_Jun_05_1457,59.9339536646,MP-Perception Experiment,xx10m25,
467,vgpdm_dyn(5)-lvm(20)_final(5).mov,False,left,2,training(10).mov,0,148,148,78,,,,,,,,15:47:42:155,15:47:42:887,15:47:45:890,left,15:47:46:174,,2018_Jun_05_1457,59.9339536646,MP-Perception Experiment,xx10m25,
468,training(38).mov,True,right,2,tmp_numprim(9)_final(1).mov,0,149,149,26,,,,,,,,15:47:46:963,15:47:47:692,15:47:50:677,right,15:47:51:228,,2018_Jun_05_1457,59.9339536646,MP-Perception Experiment,xx10m25,
469,vgpdm_dyn(5)-lvm(15)_final(9).mov,False,left,2,training(32).mov,0,150,150,5,,,,,,,,15:47:51:980,15:47:52:729,15:47:55:732,left,15:47:59:235,,2018_Jun_05_1457,59.9339536646,MP-Perception Experiment,xx10m25,
470,training(2).mov,False,right,2,vcgpdm_dyn(30)-lvm(35)_final(6).mov,0,151,151,124,,,,,,,,15:47:59:989,15:48:00:735,15:48:03:737,right,15:48:04:154,,2018_Jun_05_1457,59.9339536646,MP-Perception Experiment,xx10m25,
471,vgpdm_dyn(30)-lvm(35)_final(1).mov,False,left,2,training(0).mov,0,152,152,139,,,,,,,,15:48:04:928,15:48:05:672,15:48:08:658,right,15:48:08:908,,2018_Jun_05_1457,59.9339536646,MP-Perception Experiment,xx10m25,
472,vgpdm_dyn(30)-lvm(20)_final(7).mov,True,left,2,training(38).mov,0,153,153,47,,,,,,,,15:48:09:664,15:48:10:426,15:48:13:397,left,15:48:13:430,,2018_Jun_05_1457,59.9339536646,MP-Perception Experiment,xx10m25,
473,training(10).mov,False,right,2,vgpdm_dyn(10)-lvm(20)_final(7).mov,0,154,154,37,,,,,,,,15:48:14:193,15:48:14:931,15:48:17:934,right,15:48:18:518,,2018_Jun_05_1457,59.9339536646,MP-Perception Experiment,xx10m25,
