trial_number,right,flipped,correct,block,left,trials.thisRepN,trials.thisTrialN,trials.thisN,trials.thisIndex,flipwelcome.keys,flipwelcome.corr,flipwelcome.rt,flippreparations.keys,flippreparations.rt,flipInstructions.keys,flipInstructions.rt,time_at_fixation_cross_onset,time_at_videoonset,time_at_videoend,participant_key_response,time_at_key_response,date,frameRate,expName,participant,
,,,,,,,,,,space,0,15.8152526646,,,,,,,,,,2018_Jun_06_0945,59.9334844749,MP-Perception Experiment,xx11m26,
,,,,,,,,,,,,,space,26.9899245592,,,,,,,,2018_Jun_06_0945,59.9334844749,MP-Perception Experiment,xx11m26,
,,,,,,,,,,,,,,,space,17.4485221593,,,,,,2018_Jun_06_0945,59.9334844749,MP-Perception Experiment,xx11m26,
1,vgpdm_dyn(5)-lvm(20)_final(1).mov,False,left,0,training(32).mov,0,0,0,143,,,,,,,,09:46:17:029,09:46:17:579,09:46:20:565,left,09:46:21:182,2018_Jun_06_0945,59.9334844749,MP-Perception Experiment,xx11m26,
2,training(40).mov,True,right,0,dmp_npsi(40)_final(3).mov,0,1,1,6,,,,,,,,09:46:21:946,09:46:22:683,09:46:25:686,left,09:46:27:120,2018_Jun_06_0945,59.9334844749,MP-Perception Experiment,xx11m26,
3,training(16).mov,False,right,0,map_gpdm_final(1).mov,0,2,2,80,,,,,,,,09:46:27:861,09:46:28:621,09:46:31:625,right,09:46:32:092,2018_Jun_06_0945,59.9334844749,MP-Perception Experiment,xx11m26,
4,tmp_numprim(6)_final(1).mov,True,left,0,training(21).mov,0,3,3,2,,,,,,,,09:46:32:845,09:46:33:593,09:46:36:612,left,09:46:39:031,2018_Jun_06_0945,59.9334844749,MP-Perception Experiment,xx11m26,
5,tmp_numprim(5)_final(9).mov,True,left,0,training(13).mov,0,4,4,128,,,,,,,,09:46:39:783,09:46:40:532,09:46:43:534,right,09:46:45:286,2018_Jun_06_0945,59.9334844749,MP-Perception Experiment,xx11m26,
6,training(9).mov,False,right,0,tmp_numprim(7)_final(6).mov,0,5,5,34,,,,,,,,09:46:46:213,09:46:46:787,09:46:49:791,right,09:46:52:226,2018_Jun_06_0945,59.9334844749,MP-Perception Experiment,xx11m26,
7,training(37).mov,True,right,0,tmp_numprim(3)_final(7).mov,0,6,6,97,,,,,,,,09:46:53:164,09:46:53:744,09:46:56:728,right,09:46:57:495,2018_Jun_06_0945,59.9334844749,MP-Perception Experiment,xx11m26,
8,training(20).mov,False,right,0,tmp_numprim(10)_final(1).mov,0,7,7,62,,,,,,,,09:46:58:307,09:46:58:996,09:47:01:999,right,09:47:04:417,2018_Jun_06_0945,59.9334844749,MP-Perception Experiment,xx11m26,
9,vgpdm_dyn(20)-lvm(20)_final(2).mov,True,left,0,training(16).mov,0,8,8,85,,,,,,,,09:47:05:373,09:47:05:935,09:47:08:922,left,09:47:11:076,2018_Jun_06_0945,59.9334844749,MP-Perception Experiment,xx11m26,
10,vgpdm_dyn(5)-lvm(20)_final(2).mov,False,left,0,training(21).mov,0,9,9,76,,,,,,,,09:47:11:833,09:47:12:577,09:47:15:579,left,09:47:18:982,2018_Jun_06_0945,59.9334844749,MP-Perception Experiment,xx11m26,
11,training(48).mov,True,right,0,tmp_numprim(8)_final(9).mov,0,10,10,129,,,,,,,,09:47:19:730,09:47:20:483,09:47:23:485,left,09:47:25:638,2018_Jun_06_0945,59.9334844749,MP-Perception Experiment,xx11m26,
12,vcgpdm_dyn(35)-lvm(5)_final(5).mov,True,left,0,training(0).mov,0,11,11,101,,,,,,,,09:47:26:567,09:47:27:139,09:47:30:142,left,09:47:33:545,2018_Jun_06_0945,59.9334844749,MP-Perception Experiment,xx11m26,
13,vgpdm_dyn(20)-lvm(25)_final(9).mov,False,left,0,training(29).mov,0,12,12,126,,,,,,,,09:47:34:465,09:47:35:046,09:47:38:065,right,09:47:40:167,2018_Jun_06_0945,59.9334844749,MP-Perception Experiment,xx11m26,
14,dmp_npsi(45)_final(4).mov,True,left,0,training(22).mov,0,13,13,134,,,,,,,,09:47:41:104,09:47:41:669,09:47:44:678,right,09:47:47:655,2018_Jun_06_0945,59.9334844749,MP-Perception Experiment,xx11m26,
15,training(14).mov,True,right,0,dmp_npsi(45)_final(4).mov,0,14,14,119,,,,,,,,09:47:48:417,09:47:49:156,09:47:52:159,right,09:47:54:661,2018_Jun_06_0945,59.9334844749,MP-Perception Experiment,xx11m26,
16,vgpdm_dyn(20)-lvm(30)_final(6).mov,True,left,0,training(21).mov,0,15,15,45,,,,,,,,09:47:55:443,09:47:56:162,09:47:59:151,left,09:47:59:768,2018_Jun_06_0945,59.9334844749,MP-Perception Experiment,xx11m26,
17,vcgpdm_dyn(15)-lvm(15)_final(7).mov,False,left,0,training(15).mov,0,16,16,121,,,,,,,,09:48:00:574,09:48:01:269,09:48:04:271,right,09:48:06:090,2018_Jun_06_0945,59.9334844749,MP-Perception Experiment,xx11m26,
18,vcgpdm_dyn(35)-lvm(10)_final(1).mov,False,left,0,training(7).mov,0,17,17,56,,,,,,,,09:48:07:058,09:48:07:591,09:48:10:593,right,09:48:12:929,2018_Jun_06_0945,59.9334844749,MP-Perception Experiment,xx11m26,
19,training(21).mov,False,right,0,vcgpdm_dyn(20)-lvm(5)_final(5).mov,0,18,18,106,,,,,,,,09:48:13:844,09:48:14:429,09:48:17:433,right,09:48:17:967,2018_Jun_06_0945,59.9334844749,MP-Perception Experiment,xx11m26,
20,vgpdm_dyn(15)-lvm(35)_final(4).mov,False,left,0,training(1).mov,0,19,19,35,,,,,,,,09:48:18:739,09:48:19:468,09:48:22:470,right,09:48:22:971,2018_Jun_06_0945,59.9334844749,MP-Perception Experiment,xx11m26,
21,tmp_numprim(2)_final(9).mov,True,left,0,training(2).mov,0,20,20,140,,,,,,,,09:48:23:721,09:48:24:472,09:48:27:474,left,09:48:27:925,2018_Jun_06_0945,59.9334844749,MP-Perception Experiment,xx11m26,
22,training(8).mov,False,right,0,vgpdm_dyn(30)-lvm(20)_final(0).mov,0,21,21,20,,,,,,,,09:48:28:695,09:48:29:426,09:48:32:428,left,09:48:33:897,2018_Jun_06_0945,59.9334844749,MP-Perception Experiment,xx11m26,
23,dmp_npsi(30)_final(2).mov,False,left,0,training(0).mov,0,22,22,88,,,,,,,,09:48:34:652,09:48:35:413,09:48:38:399,left,09:48:38:900,2018_Jun_06_0945,59.9334844749,MP-Perception Experiment,xx11m26,
24,vcgpdm_dyn(20)-lvm(5)_final(1).mov,True,left,0,training(16).mov,0,23,23,103,,,,,,,,09:48:39:645,09:48:40:401,09:48:43:403,left,09:48:43:720,2018_Jun_06_0945,59.9334844749,MP-Perception Experiment,xx11m26,
25,training(9).mov,True,right,0,vgpdm_dyn(5)-lvm(15)_final(0).mov,0,24,24,11,,,,,,,,09:48:44:497,09:48:45:221,09:48:48:209,right,09:48:48:810,2018_Jun_06_0945,59.9334844749,MP-Perception Experiment,xx11m26,
26,vgpdm_dyn(25)-lvm(30)_final(8).mov,False,left,0,training(38).mov,0,25,25,12,,,,,,,,09:48:49:567,09:48:50:310,09:48:53:331,right,09:48:53:981,2018_Jun_06_0945,59.9334844749,MP-Perception Experiment,xx11m26,
27,training(34).mov,True,right,0,vcgpdm_dyn(10)-lvm(10)_final(5).mov,0,26,26,154,,,,,,,,09:48:54:728,09:48:55:499,09:48:58:501,right,09:48:59:386,2018_Jun_06_0945,59.9334844749,MP-Perception Experiment,xx11m26,
28,training(15).mov,False,right,0,vgpdm_dyn(15)-lvm(35)_final(8).mov,0,27,27,51,,,,,,,,09:49:00:142,09:49:00:887,09:49:03:889,right,09:49:04:490,2018_Jun_06_0945,59.9334844749,MP-Perception Experiment,xx11m26,
29,tmp_numprim(7)_final(9).mov,False,left,0,training(40).mov,0,28,28,138,,,,,,,,09:49:05:246,09:49:05:991,09:49:08:994,right,09:49:09:328,2018_Jun_06_0945,59.9334844749,MP-Perception Experiment,xx11m26,
30,vcgpdm_dyn(10)-lvm(15)_final(6).mov,False,left,0,training(48).mov,0,29,29,131,,,,,,,,09:49:10:109,09:49:10:829,09:49:13:832,right,09:49:14:465,2018_Jun_06_0945,59.9334844749,MP-Perception Experiment,xx11m26,
31,vcgpdm_dyn(35)-lvm(20)_final(7).mov,False,left,0,training(32).mov,0,30,30,68,,,,,,,,09:49:15:220,09:49:15:966,09:49:18:969,right,09:49:19:553,2018_Jun_06_0945,59.9334844749,MP-Perception Experiment,xx11m26,
32,vcgpdm_dyn(25)-lvm(15)_final(6).mov,True,left,0,training(20).mov,0,31,31,100,,,,,,,,09:49:20:295,09:49:21:054,09:49:24:057,left,09:49:24:507,2018_Jun_06_0945,59.9334844749,MP-Perception Experiment,xx11m26,
33,training(14).mov,True,right,0,vgpdm_dyn(20)-lvm(5)_final(1).mov,0,32,32,107,,,,,,,,09:49:25:265,09:49:26:023,09:49:29:010,right,09:49:29:510,2018_Jun_06_0945,59.9334844749,MP-Perception Experiment,xx11m26,
34,vcgpdm_dyn(30)-lvm(15)_final(2).mov,False,left,0,training(22).mov,0,33,33,155,,,,,,,,09:49:30:281,09:49:31:011,09:49:34:014,left,09:49:34:464,2018_Jun_06_0945,59.9334844749,MP-Perception Experiment,xx11m26,
35,tmp_numprim(3)_final(9).mov,True,left,0,training(25).mov,0,34,34,59,,,,,,,,09:49:35:238,09:49:35:965,09:49:38:953,left,09:49:39:870,2018_Jun_06_0945,59.9334844749,MP-Perception Experiment,xx11m26,
36,map_gpdm_final(5).mov,True,left,0,training(15).mov,0,35,35,37,,,,,,,,09:49:40:638,09:49:41:371,09:49:44:375,left,09:49:45:209,2018_Jun_06_0945,59.9334844749,MP-Perception Experiment,xx11m26,
37,vcgpdm_dyn(5)-lvm(20)_final(8).mov,False,left,0,training(13).mov,0,36,36,109,,,,,,,,09:49:45:964,09:49:46:710,09:49:49:713,left,09:49:51:881,2018_Jun_06_0945,59.9334844749,MP-Perception Experiment,xx11m26,
38,training(9).mov,False,right,0,vcgpdm_dyn(15)-lvm(15)_final(8).mov,0,37,37,157,,,,,,,,09:49:52:812,09:49:53:382,09:49:56:385,right,09:49:56:752,2018_Jun_06_0945,59.9334844749,MP-Perception Experiment,xx11m26,
39,training(12).mov,True,right,0,vcgpdm_dyn(35)-lvm(30)_final(7).mov,0,38,38,148,,,,,,,,09:49:57:513,09:49:58:253,09:50:01:256,right,09:50:01:924,2018_Jun_06_0945,59.9334844749,MP-Perception Experiment,xx11m26,
40,vgpdm_dyn(35)-lvm(10)_final(0).mov,False,left,0,training(39).mov,0,39,39,30,,,,,,,,09:50:02:678,09:50:03:424,09:50:06:427,right,09:50:06:861,2018_Jun_06_0945,59.9334844749,MP-Perception Experiment,xx11m26,
41,training(22).mov,True,right,0,tmp_numprim(8)_final(7).mov,0,40,40,102,,,,,,,,09:50:07:644,09:50:08:362,09:50:11:364,right,09:50:11:765,2018_Jun_06_0945,59.9334844749,MP-Perception Experiment,xx11m26,
42,training(39).mov,True,right,0,tmp_numprim(6)_final(1).mov,0,41,41,69,,,,,,,,09:50:12:520,09:50:13:266,09:50:16:367,right,09:50:16:900,2018_Jun_06_0945,59.9334844749,MP-Perception Experiment,xx11m26,
43,training(8).mov,True,right,0,dmp_npsi(50)_final(5).mov,0,42,42,28,,,,,,,,09:50:17:659,09:50:18:401,09:50:21:405,right,09:50:23:824,2018_Jun_06_0945,59.9334844749,MP-Perception Experiment,xx11m26,
44,training(15).mov,False,right,0,vgpdm_dyn(25)-lvm(5)_final(4).mov,0,43,43,31,,,,,,,,09:50:24:578,09:50:25:341,09:50:28:327,left,09:50:28:744,2018_Jun_06_0945,59.9334844749,MP-Perception Experiment,xx11m26,
45,vgpdm_dyn(25)-lvm(5)_final(7).mov,False,left,0,training(11).mov,0,44,44,52,,,,,,,,09:50:29:511,09:50:30:247,09:50:33:233,left,09:50:34:201,2018_Jun_06_0945,59.9334844749,MP-Perception Experiment,xx11m26,
46,vgpdm_dyn(30)-lvm(20)_final(3).mov,False,left,0,training(28).mov,0,45,45,42,,,,,,,,09:50:34:955,09:50:35:702,09:50:38:705,left,09:50:40:323,2018_Jun_06_0945,59.9334844749,MP-Perception Experiment,xx11m26,
47,dmp_npsi(50)_final(3).mov,True,left,0,training(18).mov,0,46,46,1,,,,,,,,09:50:41:239,09:50:41:824,09:50:44:826,left,09:50:45:310,2018_Jun_06_0945,59.9334844749,MP-Perception Experiment,xx11m26,
48,tmp_numprim(8)_final(6).mov,True,left,0,training(23).mov,0,47,47,118,,,,,,,,09:50:46:066,09:50:46:811,09:50:49:814,left,09:50:50:465,2018_Jun_06_0945,59.9334844749,MP-Perception Experiment,xx11m26,
49,training(40).mov,True,right,0,vcgpdm_dyn(10)-lvm(25)_final(4).mov,0,48,48,77,,,,,,,,09:50:51:244,09:50:51:966,09:50:54:969,right,09:50:55:553,2018_Jun_06_0945,59.9334844749,MP-Perception Experiment,xx11m26,
50,training(17).mov,True,right,0,vgpdm_dyn(25)-lvm(35)_final(8).mov,0,49,49,14,,,,,,,,09:50:56:315,09:50:57:071,09:51:00:057,right,09:51:00:590,2018_Jun_06_0945,59.9334844749,MP-Perception Experiment,xx11m26,
51,training(38).mov,True,right,0,vgpdm_dyn(15)-lvm(35)_final(2).mov,0,50,50,135,,,,,,,,09:51:01:350,09:51:02:092,09:51:05:094,right,09:51:05:509,2018_Jun_06_0945,59.9334844749,MP-Perception Experiment,xx11m26,
52,training(41).mov,False,right,0,vcgpdm_dyn(20)-lvm(35)_final(7).mov,0,51,51,94,,,,,,,,09:51:06:258,09:51:07:010,09:51:10:013,right,09:51:10:597,2018_Jun_06_0945,59.9334844749,MP-Perception Experiment,xx11m26,
53,training(7).mov,True,right,0,vcgpdm_dyn(15)-lvm(5)_final(0).mov,0,52,52,113,,,,,,,,09:51:11:357,09:51:12:099,09:51:15:101,right,09:51:15:518,2018_Jun_06_0945,59.9334844749,MP-Perception Experiment,xx11m26,
54,training(26).mov,False,right,0,tmp_numprim(6)_final(4).mov,0,53,53,91,,,,,,,,09:51:16:273,09:51:17:019,09:51:20:024,right,09:51:20:674,2018_Jun_06_0945,59.9334844749,MP-Perception Experiment,xx11m26,
55,vcgpdm_dyn(30)-lvm(35)_final(3).mov,False,left,0,training(4).mov,0,54,54,15,,,,,,,,09:51:21:430,09:51:22:175,09:51:25:178,right,09:51:25:612,2018_Jun_06_0945,59.9334844749,MP-Perception Experiment,xx11m26,
56,vgpdm_dyn(30)-lvm(5)_final(6).mov,True,left,0,training(5).mov,0,55,55,24,,,,,,,,09:51:26:364,09:51:27:113,09:51:30:116,left,09:51:30:584,2018_Jun_06_0945,59.9334844749,MP-Perception Experiment,xx11m26,
57,training(12).mov,True,right,0,vgpdm_dyn(20)-lvm(30)_final(7).mov,0,56,56,8,,,,,,,,09:51:31:345,09:51:32:101,09:51:35:087,right,09:51:36:221,2018_Jun_06_0945,59.9334844749,MP-Perception Experiment,xx11m26,
58,training(31).mov,True,right,0,tmp_numprim(9)_final(0).mov,0,57,57,156,,,,,,,,09:51:36:989,09:51:37:722,09:51:40:725,right,09:51:41:075,2018_Jun_06_0945,59.9334844749,MP-Perception Experiment,xx11m26,
59,training(18).mov,False,right,0,vgpdm_dyn(10)-lvm(15)_final(1).mov,0,58,58,137,,,,,,,,09:51:41:824,09:51:42:576,09:51:45:579,left,09:51:46:097,2018_Jun_06_0945,59.9334844749,MP-Perception Experiment,xx11m26,
60,vcgpdm_dyn(15)-lvm(20)_final(1).mov,False,left,0,training(26).mov,0,59,59,23,,,,,,,,09:51:46:844,09:51:47:598,09:51:50:617,left,09:51:51:068,2018_Jun_06_0945,59.9334844749,MP-Perception Experiment,xx11m26,
61,training(33).mov,False,right,0,vcgpdm_dyn(25)-lvm(35)_final(9).mov,0,60,60,16,,,,,,,,09:51:51:819,09:51:52:569,09:51:55:569,left,09:51:56:103,2018_Jun_06_0945,59.9334844749,MP-Perception Experiment,xx11m26,
62,training(35).mov,False,right,0,vgpdm_dyn(10)-lvm(25)_final(3).mov,0,61,61,41,,,,,,,,09:51:56:862,09:51:57:604,09:52:00:607,right,09:52:02:458,2018_Jun_06_0945,59.9334844749,MP-Perception Experiment,xx11m26,
63,training(19).mov,False,right,0,vgpdm_dyn(15)-lvm(15)_final(9).mov,0,62,62,5,,,,,,,,09:52:03:390,09:52:03:960,09:52:06:963,right,09:52:07:447,2018_Jun_06_0945,59.9334844749,MP-Perception Experiment,xx11m26,
64,vcgpdm_dyn(30)-lvm(10)_final(7).mov,True,left,0,training(33).mov,0,63,63,71,,,,,,,,09:52:08:210,09:52:08:948,09:52:11:935,left,09:52:12:319,2018_Jun_06_0945,59.9334844749,MP-Perception Experiment,xx11m26,
65,vcgpdm_dyn(20)-lvm(20)_final(6).mov,False,left,0,training(23).mov,0,64,64,122,,,,,,,,09:52:13:079,09:52:13:820,09:52:16:839,right,09:52:17:440,2018_Jun_06_0945,59.9334844749,MP-Perception Experiment,xx11m26,
66,vcgpdm_dyn(10)-lvm(25)_final(2).mov,True,left,0,training(36).mov,0,65,65,46,,,,,,,,09:52:18:210,09:52:18:958,09:52:21:961,left,09:52:22:945,2018_Jun_06_0945,59.9334844749,MP-Perception Experiment,xx11m26,
67,vcgpdm_dyn(10)-lvm(35)_final(4).mov,True,left,0,training(7).mov,0,66,66,104,,,,,,,,09:52:23:698,09:52:24:446,09:52:27:449,left,09:52:27:866,2018_Jun_06_0945,59.9334844749,MP-Perception Experiment,xx11m26,
68,training(35).mov,True,right,0,vcgpdm_dyn(30)-lvm(35)_final(0).mov,0,67,67,108,,,,,,,,09:52:28:626,09:52:29:367,09:52:32:369,right,09:52:32:770,2018_Jun_06_0945,59.9334844749,MP-Perception Experiment,xx11m26,
69,training(30).mov,True,right,0,vgpdm_dyn(35)-lvm(5)_final(8).mov,0,68,68,78,,,,,,,,09:52:33:529,09:52:34:271,09:52:37:273,right,09:52:37:724,2018_Jun_06_0945,59.9334844749,MP-Perception Experiment,xx11m26,
70,training(14).mov,True,right,0,vcgpdm_dyn(10)-lvm(35)_final(2).mov,0,69,69,38,,,,,,,,09:52:38:477,09:52:39:243,09:52:42:228,right,09:52:42:562,2018_Jun_06_0945,59.9334844749,MP-Perception Experiment,xx11m26,
71,vcgpdm_dyn(25)-lvm(10)_final(4).mov,True,left,0,training(35).mov,0,70,70,139,,,,,,,,09:52:43:315,09:52:44:063,09:52:47:064,right,09:52:47:431,2018_Jun_06_0945,59.9334844749,MP-Perception Experiment,xx11m26,
72,training(23).mov,True,right,0,vgpdm_dyn(10)-lvm(30)_final(4).mov,0,71,71,99,,,,,,,,09:52:48:185,09:52:48:932,09:52:51:934,right,09:52:52:368,2018_Jun_06_0945,59.9334844749,MP-Perception Experiment,xx11m26,
73,vcgpdm_dyn(35)-lvm(30)_final(5).mov,False,left,0,training(29).mov,0,72,72,125,,,,,,,,09:52:53:138,09:52:53:886,09:52:56:873,left,09:52:57:123,2018_Jun_06_0945,59.9334844749,MP-Perception Experiment,xx11m26,
74,training(30).mov,True,right,0,vgpdm_dyn(15)-lvm(35)_final(3).mov,0,73,73,112,,,,,,,,09:52:58:769,09:52:58:769,09:53:01:628,right,09:53:02:679,2018_Jun_06_0945,59.9334844749,MP-Perception Experiment,xx11m26,
75,training(20).mov,False,right,0,vcgpdm_dyn(30)-lvm(30)_final(1).mov,0,74,74,61,,,,,,,,09:53:03:455,09:53:04:197,09:53:07:183,right,09:53:07:767,2018_Jun_06_0945,59.9334844749,MP-Perception Experiment,xx11m26,
76,vgpdm_dyn(5)-lvm(30)_final(3).mov,True,left,0,training(29).mov,0,75,75,60,,,,,,,,09:53:08:522,09:53:09:268,09:53:12:287,left,09:53:13:021,2018_Jun_06_0945,59.9334844749,MP-Perception Experiment,xx11m26,
77,training(22).mov,True,right,0,vcgpdm_dyn(5)-lvm(5)_final(2).mov,0,76,76,9,,,,,,,,09:53:13:775,09:53:14:523,09:53:17:525,right,09:53:18:043,2018_Jun_06_0945,59.9334844749,MP-Perception Experiment,xx11m26,
78,vcgpdm_dyn(35)-lvm(5)_final(5).mov,False,left,0,training(38).mov,0,77,77,144,,,,,,,,09:53:18:790,09:53:19:544,09:53:22:546,left,09:53:22:930,2018_Jun_06_0945,59.9334844749,MP-Perception Experiment,xx11m26,
79,map_cgpdm_final(2).mov,False,left,0,training(38).mov,0,78,78,3,,,,,,,,09:53:23:675,09:53:24:431,09:53:27:450,left,09:53:27:917,2018_Jun_06_0945,59.9334844749,MP-Perception Experiment,xx11m26,
80,training(0).mov,True,right,0,tmp_numprim(8)_final(1).mov,0,79,79,114,,,,,,,,09:53:28:672,09:53:29:418,09:53:32:422,left,09:53:32:806,2018_Jun_06_0945,59.9334844749,MP-Perception Experiment,xx11m26,
81,vcgpdm_dyn(5)-lvm(15)_final(7).mov,True,left,0,training(26).mov,0,80,80,153,,,,,,,,09:53:33:561,09:53:34:323,09:53:37:307,left,09:53:37:708,2018_Jun_06_0945,59.9334844749,MP-Perception Experiment,xx11m26,
82,vgpdm_dyn(10)-lvm(30)_final(3).mov,True,left,0,training(39).mov,0,81,81,92,,,,,,,,09:53:38:471,09:53:39:209,09:53:42:212,left,09:53:42:495,2018_Jun_06_0945,59.9334844749,MP-Perception Experiment,xx11m26,
83,training(3).mov,True,right,0,vcgpdm_dyn(35)-lvm(20)_final(8).mov,0,82,82,26,,,,,,,,09:53:43:262,09:53:43:996,09:53:46:999,right,09:53:47:349,2018_Jun_06_0945,59.9334844749,MP-Perception Experiment,xx11m26,
84,training(0).mov,True,right,0,vcgpdm_dyn(20)-lvm(35)_final(1).mov,0,83,83,74,,,,,,,,09:53:48:108,09:53:48:868,09:53:51:855,right,09:53:51:905,2018_Jun_06_0945,59.9334844749,MP-Perception Experiment,xx11m26,
85,training(7).mov,False,right,0,vgpdm_dyn(10)-lvm(10)_final(5).mov,0,84,84,120,,,,,,,,09:53:52:660,09:53:53:407,09:53:56:409,right,09:53:57:026,2018_Jun_06_0945,59.9334844749,MP-Perception Experiment,xx11m26,
86,training(34).mov,True,right,0,vgpdm_dyn(10)-lvm(20)_final(7).mov,0,85,85,53,,,,,,,,09:53:58:707,09:53:58:707,09:54:01:530,right,09:54:02:197,2018_Jun_06_0945,59.9334844749,MP-Perception Experiment,xx11m26,
87,vgpdm_dyn(25)-lvm(25)_final(0)_bad.mov,True,left,0,training(26).mov,0,86,86,132,,,,,,,,09:54:02:958,09:54:03:698,09:54:06:702,left,09:54:07:419,2018_Jun_06_0945,59.9334844749,MP-Perception Experiment,xx11m26,
88,training(1).mov,False,right,0,vgpdm_dyn(25)-lvm(5)_final(4).mov,0,87,87,117,,,,,,,,09:54:08:172,09:54:08:920,09:54:11:939,right,09:54:12:440,2018_Jun_06_0945,59.9334844749,MP-Perception Experiment,xx11m26,
89,vcgpdm_dyn(20)-lvm(10)_final(7).mov,True,left,0,training(21).mov,0,88,88,0,,,,,,,,09:54:13:193,09:54:13:941,09:54:16:943,left,09:54:17:410,2018_Jun_06_0945,59.9334844749,MP-Perception Experiment,xx11m26,
90,vgpdm_dyn(30)-lvm(20)_final(5).mov,True,left,0,training(2).mov,0,89,89,72,,,,,,,,09:54:18:166,09:54:18:911,09:54:21:914,right,09:54:22:481,2018_Jun_06_0945,59.9334844749,MP-Perception Experiment,xx11m26,
91,training(29).mov,False,right,0,vgpdm_dyn(10)-lvm(15)_final(8).mov,0,90,90,39,,,,,,,,09:54:23:249,09:54:23:983,09:54:26:984,left,09:54:28:452,2018_Jun_06_0945,59.9334844749,MP-Perception Experiment,xx11m26,
92,vgpdm_dyn(10)-lvm(10)_final(9).mov,True,left,0,training(41).mov,0,91,91,124,,,,,,,,09:54:29:226,09:54:29:953,09:54:32:955,left,09:54:33:406,2018_Jun_06_0945,59.9334844749,MP-Perception Experiment,xx11m26,
93,training(20).mov,False,right,0,vcgpdm_dyn(25)-lvm(10)_final(3).mov,0,92,92,115,,,,,,,,09:54:34:159,09:54:34:907,09:54:37:894,left,09:54:39:529,2018_Jun_06_0945,59.9334844749,MP-Perception Experiment,xx11m26,
94,training(36).mov,True,right,0,vcgpdm_dyn(10)-lvm(30)_final(3).mov,0,93,93,84,,,,,,,,09:54:40:276,09:54:41:031,09:54:44:034,right,09:54:44:568,2018_Jun_06_0945,59.9334844749,MP-Perception Experiment,xx11m26,
95,vgpdm_dyn(30)-lvm(35)_final(6).mov,True,left,0,training(34).mov,0,94,94,111,,,,,,,,09:54:45:322,09:54:46:069,09:54:49:071,left,09:54:49:505,2018_Jun_06_0945,59.9334844749,MP-Perception Experiment,xx11m26,
96,training(32).mov,False,right,0,tmp_numprim(5)_final(5).mov,0,95,95,150,,,,,,,,09:54:50:271,09:54:51:023,09:54:54:008,right,09:54:54:509,2018_Jun_06_0945,59.9334844749,MP-Perception Experiment,xx11m26,
97,vcgpdm_dyn(25)-lvm(35)_final(4).mov,True,left,0,training(30).mov,0,96,96,149,,,,,,,,09:54:55:263,09:54:56:027,09:54:59:013,left,09:54:59:915,2018_Jun_06_0945,59.9334844749,MP-Perception Experiment,xx11m26,
98,training(37).mov,True,right,0,vgpdm_dyn(5)-lvm(35)_final(7)_bad.mov,0,97,97,43,,,,,,,,09:55:00:667,09:55:01:415,09:55:04:435,right,09:55:05:035,2018_Jun_06_0945,59.9334844749,MP-Perception Experiment,xx11m26,
99,vcgpdm_dyn(10)-lvm(25)_final(6).mov,False,left,0,training(16).mov,0,98,98,145,,,,,,,,09:55:05:788,09:55:06:536,09:55:09:539,left,09:55:10:072,2018_Jun_06_0945,59.9334844749,MP-Perception Experiment,xx11m26,
100,training(28).mov,True,right,0,vgpdm_dyn(25)-lvm(20)_final(6).mov,0,99,99,130,,,,,,,,09:55:10:831,09:55:11:574,09:55:14:593,right,09:55:15:392,2018_Jun_06_0945,59.9334844749,MP-Perception Experiment,xx11m26,
101,training(30).mov,False,right,0,vcgpdm_dyn(20)-lvm(5)_final(4).mov,0,100,100,49,,,,,,,,09:55:16:144,09:55:16:910,09:55:19:896,right,09:55:20:297,2018_Jun_06_0945,59.9334844749,MP-Perception Experiment,xx11m26,
102,vcgpdm_dyn(5)-lvm(10)_final(8).mov,True,left,0,training(23).mov,0,101,101,146,,,,,,,,09:55:21:069,09:55:21:798,09:55:24:800,left,09:55:25:117,2018_Jun_06_0945,59.9334844749,MP-Perception Experiment,xx11m26,
103,vcgpdm_dyn(30)-lvm(15)_final(1).mov,False,left,0,training(38).mov,0,102,102,10,,,,,,,,09:55:25:878,09:55:26:618,09:55:29:606,right,09:55:29:990,2018_Jun_06_0945,59.9334844749,MP-Perception Experiment,xx11m26,
104,vgpdm_dyn(20)-lvm(5)_final(9).mov,True,left,0,training(18).mov,0,103,103,98,,,,,,,,09:55:30:748,09:55:31:491,09:55:34:494,left,09:55:35:478,2018_Jun_06_0945,59.9334844749,MP-Perception Experiment,xx11m26,
105,training(35).mov,True,right,0,vcgpdm_dyn(15)-lvm(30)_final(9).mov,0,104,104,66,,,,,,,,09:55:36:225,09:55:36:996,09:55:39:982,right,09:55:40:349,2018_Jun_06_0945,59.9334844749,MP-Perception Experiment,xx11m26,
106,vgpdm_dyn(5)-lvm(10)_final(7).mov,False,left,0,training(24).mov,0,105,105,48,,,,,,,,09:55:41:111,09:55:41:850,09:55:44:853,left,09:55:45:253,2018_Jun_06_0945,59.9334844749,MP-Perception Experiment,xx11m26,
107,tmp_numprim(5)_final(5).mov,False,left,0,training(11).mov,0,106,106,95,,,,,,,,09:55:46:018,09:55:46:754,09:55:49:756,left,09:55:50:157,2018_Jun_06_0945,59.9334844749,MP-Perception Experiment,xx11m26,
108,vcgpdm_dyn(5)-lvm(25)_final(3).mov,False,left,0,training(35).mov,0,107,107,151,,,,,,,,09:55:50:915,09:55:51:676,09:55:54:678,left,09:55:55:095,2018_Jun_06_0945,59.9334844749,MP-Perception Experiment,xx11m26,
109,vcgpdm_dyn(35)-lvm(20)_final(0).mov,False,left,0,training(8).mov,0,108,108,63,,,,,,,,09:55:55:878,09:55:56:596,09:55:59:599,right,09:55:59:966,2018_Jun_06_0945,59.9334844749,MP-Perception Experiment,xx11m26,
110,vcgpdm_dyn(10)-lvm(35)_final(0).mov,False,left,0,training(10).mov,0,109,109,83,,,,,,,,09:56:00:711,09:56:01:467,09:56:04:469,left,09:56:04:937,2018_Jun_06_0945,59.9334844749,MP-Perception Experiment,xx11m26,
111,training(15).mov,False,right,0,vcgpdm_dyn(25)-lvm(5)_final(5).mov,0,110,110,22,,,,,,,,09:56:05:704,09:56:06:452,09:56:09:456,right,09:56:10:540,2018_Jun_06_0945,59.9334844749,MP-Perception Experiment,xx11m26,
112,vgpdm_dyn(10)-lvm(5)_final(4).mov,False,left,0,training(0).mov,0,111,111,141,,,,,,,,09:56:11:282,09:56:12:041,09:56:15:044,left,09:56:15:511,2018_Jun_06_0945,59.9334844749,MP-Perception Experiment,xx11m26,
113,training(0).mov,True,right,0,vcgpdm_dyn(30)-lvm(5)_final(5).mov,0,112,112,18,,,,,,,,09:56:16:266,09:56:17:012,09:56:20:000,left,09:56:22:235,2018_Jun_06_0945,59.9334844749,MP-Perception Experiment,xx11m26,
114,training(7).mov,False,right,0,tmp_numprim(2)_final(1).mov,0,113,113,158,,,,,,,,09:56:23:187,09:56:23:736,09:56:26:739,right,09:56:27:240,2018_Jun_06_0945,59.9334844749,MP-Perception Experiment,xx11m26,
115,vcgpdm_dyn(5)-lvm(10)_final(2).mov,False,left,0,training(41).mov,0,114,114,44,,,,,,,,09:56:28:002,09:56:28:741,09:56:31:760,right,09:56:33:361,2018_Jun_06_0945,59.9334844749,MP-Perception Experiment,xx11m26,
116,training(35).mov,False,right,0,vgpdm_dyn(25)-lvm(35)_final(2).mov,0,115,115,67,,,,,,,,09:56:34:313,09:56:34:862,09:56:37:865,left,09:56:38:249,2018_Jun_06_0945,59.9334844749,MP-Perception Experiment,xx11m26,
117,training(10).mov,True,right,0,vcgpdm_dyn(10)-lvm(5)_final(6).mov,0,116,116,40,,,,,,,,09:56:39:013,09:56:39:750,09:56:42:752,left,09:56:43:219,2018_Jun_06_0945,59.9334844749,MP-Perception Experiment,xx11m26,
118,training(6).mov,False,right,0,vgpdm_dyn(30)-lvm(15)_final(7).mov,0,117,117,133,,,,,,,,09:56:43:984,09:56:44:721,09:56:47:741,right,09:56:48:224,2018_Jun_06_0945,59.9334844749,MP-Perception Experiment,xx11m26,
119,vgpdm_dyn(5)-lvm(20)_final(7).mov,True,left,0,training(18).mov,0,118,118,55,,,,,,,,09:56:49:014,09:56:49:725,09:56:52:728,right,09:56:53:362,2018_Jun_06_0945,59.9334844749,MP-Perception Experiment,xx11m26,
120,vcgpdm_dyn(25)-lvm(20)_final(4).mov,True,left,0,training(32).mov,0,119,119,21,,,,,,,,09:56:54:127,09:56:54:863,09:56:57:864,left,09:56:58:147,2018_Jun_06_0945,59.9334844749,MP-Perception Experiment,xx11m26,
121,training(28).mov,True,right,0,vcgpdm_dyn(20)-lvm(5)_final(3).mov,0,120,120,147,,,,,,,,09:56:58:913,09:56:59:665,09:57:02:652,left,09:57:04:270,2018_Jun_06_0945,59.9334844749,MP-Perception Experiment,xx11m26,
122,vgpdm_dyn(20)-lvm(20)_final(0).mov,False,left,0,training(26).mov,0,121,121,13,,,,,,,,09:57:05:211,09:57:05:771,09:57:08:774,left,09:57:08:857,2018_Jun_06_0945,59.9334844749,MP-Perception Experiment,xx11m26,
123,training(34).mov,True,right,0,dmp_npsi(50)_final(5).mov,0,122,122,27,,,,,,,,09:57:09:602,09:57:10:360,09:57:13:345,left,09:57:13:813,2018_Jun_06_0945,59.9334844749,MP-Perception Experiment,xx11m26,
124,vgpdm_dyn(35)-lvm(5)_final(1).mov,True,left,0,training(4).mov,0,123,123,142,,,,,,,,09:57:14:739,09:57:15:314,09:57:18:317,right,09:57:18:918,2018_Jun_06_0945,59.9334844749,MP-Perception Experiment,xx11m26,
125,vcgpdm_dyn(10)-lvm(5)_final(7).mov,True,left,0,training(29).mov,0,124,124,54,,,,,,,,09:57:19:672,09:57:20:419,09:57:23:421,left,09:57:23:755,2018_Jun_06_0945,59.9334844749,MP-Perception Experiment,xx11m26,
126,tmp_numprim(4)_final(3).mov,False,left,0,training(22).mov,0,125,125,29,,,,,,,,09:57:24:508,09:57:25:256,09:57:28:259,left,09:57:28:743,2018_Jun_06_0945,59.9334844749,MP-Perception Experiment,xx11m26,
127,training(30).mov,True,right,0,vcgpdm_dyn(20)-lvm(20)_final(0).mov,0,126,126,32,,,,,,,,09:57:29:502,09:57:30:243,09:57:33:246,left,09:57:33:730,2018_Jun_06_0945,59.9334844749,MP-Perception Experiment,xx11m26,
128,vcgpdm_dyn(20)-lvm(10)_final(1).mov,False,left,0,training(21).mov,0,127,127,47,,,,,,,,09:57:34:491,09:57:35:231,09:57:38:235,right,09:57:38:902,2018_Jun_06_0945,59.9334844749,MP-Perception Experiment,xx11m26,
129,vgpdm_dyn(5)-lvm(20)_final(7).mov,False,left,0,training(15).mov,0,128,128,79,,,,,,,,09:57:39:654,09:57:40:403,09:57:43:422,right,09:57:44:756,2018_Jun_06_0945,59.9334844749,MP-Perception Experiment,xx11m26,
130,training(9).mov,False,right,0,vcgpdm_dyn(30)-lvm(15)_final(3).mov,0,129,129,73,,,,,,,,09:57:45:706,09:57:46:272,09:57:49:258,left,09:57:49:625,2018_Jun_06_0945,59.9334844749,MP-Perception Experiment,xx11m26,
131,training(38).mov,True,right,0,vcgpdm_dyn(10)-lvm(35)_final(8).mov,0,130,130,17,,,,,,,,09:57:50:371,09:57:51:143,09:57:54:130,right,09:57:54:780,2018_Jun_06_0945,59.9334844749,MP-Perception Experiment,xx11m26,
132,training(35).mov,True,right,0,tmp_numprim(6)_final(2).mov,0,131,131,87,,,,,,,,09:57:55:532,09:57:56:281,09:57:59:286,right,09:57:59:870,2018_Jun_06_0945,59.9334844749,MP-Perception Experiment,xx11m26,
133,training(19).mov,False,right,0,vcgpdm_dyn(10)-lvm(20)_final(7).mov,0,132,132,19,,,,,,,,09:58:00:625,09:58:01:371,09:58:04:373,right,09:58:04:790,2018_Jun_06_0945,59.9334844749,MP-Perception Experiment,xx11m26,
134,vcgpdm_dyn(35)-lvm(25)_final(8).mov,False,left,0,training(31).mov,0,133,133,57,,,,,,,,09:58:05:551,09:58:06:291,09:58:09:310,left,09:58:09:744,2018_Jun_06_0945,59.9334844749,MP-Perception Experiment,xx11m26,
135,training(37).mov,False,right,0,vgpdm_dyn(35)-lvm(30)_final(9).mov,0,134,134,64,,,,,,,,09:58:10:504,09:58:11:246,09:58:14:249,left,09:58:14:683,2018_Jun_06_0945,59.9334844749,MP-Perception Experiment,xx11m26,
136,training(12).mov,False,right,0,vgpdm_dyn(20)-lvm(10)_final(0)_out_of_screen.mov,0,135,135,70,,,,,,,,09:58:15:437,09:58:16:184,09:58:19:186,right,09:58:19:520,2018_Jun_06_0945,59.9334844749,MP-Perception Experiment,xx11m26,
137,training(20).mov,True,right,0,vcgpdm_dyn(5)-lvm(15)_final(2).mov,0,136,136,105,,,,,,,,09:58:20:278,09:58:21:037,09:58:24:040,right,09:58:24:557,2018_Jun_06_0945,59.9334844749,MP-Perception Experiment,xx11m26,
138,training(11).mov,False,right,0,vgpdm_dyn(25)-lvm(5)_final(9).mov,0,137,137,75,,,,,,,,09:58:25:316,09:58:26:058,09:58:29:062,right,09:58:29:345,2018_Jun_06_0945,59.9334844749,MP-Perception Experiment,xx11m26,
139,tmp_numprim(2)_final(7).mov,True,left,0,training(33).mov,0,138,138,110,,,,,,,,09:58:30:107,09:58:30:846,09:58:33:849,left,09:58:34:333,2018_Jun_06_0945,59.9334844749,MP-Perception Experiment,xx11m26,
140,training(26).mov,True,right,0,vcgpdm_dyn(30)-lvm(15)_final(6).mov,0,139,139,152,,,,,,,,09:58:35:090,09:58:35:849,09:58:38:835,right,09:58:39:168,2018_Jun_06_0945,59.9334844749,MP-Perception Experiment,xx11m26,
141,training(41).mov,True,right,0,vcgpdm_dyn(5)-lvm(25)_final(2).mov,0,140,140,86,,,,,,,,09:58:39:934,09:58:40:686,09:58:43:672,right,09:58:43:989,2018_Jun_06_0945,59.9334844749,MP-Perception Experiment,xx11m26,
142,training(31).mov,True,right,0,dmp_npsi(50)_final(3).mov,0,141,141,58,,,,,,,,09:58:44:737,09:58:45:490,09:58:48:478,right,09:58:48:645,2018_Jun_06_0945,59.9334844749,MP-Perception Experiment,xx11m26,
143,vcgpdm_dyn(10)-lvm(30)_final(1).mov,False,left,0,training(30).mov,0,142,142,4,,,,,,,,09:58:49:416,09:58:50:146,09:58:53:149,right,09:58:55:484,2018_Jun_06_0945,59.9334844749,MP-Perception Experiment,xx11m26,
144,vcgpdm_dyn(25)-lvm(25)_final(3).mov,True,left,0,training(25).mov,0,143,143,50,,,,,,,,09:58:56:230,09:58:56:985,09:58:59:988,left,09:59:00:488,2018_Jun_06_0945,59.9334844749,MP-Perception Experiment,xx11m26,
145,training(19).mov,False,right,0,dmp_npsi(40)_final(5).mov,0,144,144,82,,,,,,,,09:59:01:244,09:59:01:989,09:59:05:009,right,09:59:05:643,2018_Jun_06_0945,59.9334844749,MP-Perception Experiment,xx11m26,
146,vgpdm_dyn(5)-lvm(30)_final(9).mov,True,left,0,training(34).mov,0,145,145,96,,,,,,,,09:59:06:396,09:59:07:145,09:59:10:147,left,09:59:10:597,2018_Jun_06_0945,59.9334844749,MP-Perception Experiment,xx11m26,
147,vcgpdm_dyn(15)-lvm(30)_final(9).mov,True,left,0,training(29).mov,0,146,146,123,,,,,,,,09:59:11:348,09:59:12:098,09:59:15:101,left,09:59:15:702,2018_Jun_06_0945,59.9334844749,MP-Perception Experiment,xx11m26,
148,vgpdm_dyn(20)-lvm(35)_final(0).mov,False,left,0,training(35).mov,0,147,147,33,,,,,,,,09:59:16:450,09:59:17:219,09:59:20:222,left,09:59:20:873,2018_Jun_06_0945,59.9334844749,MP-Perception Experiment,xx11m26,
149,training(25).mov,False,right,0,vcgpdm_dyn(35)-lvm(5)_final(3).mov,0,148,148,65,,,,,,,,09:59:21:623,09:59:22:374,09:59:25:377,right,09:59:25:842,2018_Jun_06_0945,59.9334844749,MP-Perception Experiment,xx11m26,
150,vcgpdm_dyn(20)-lvm(10)_final(1).mov,True,left,0,training(13).mov,0,149,149,136,,,,,,,,09:59:26:598,09:59:27:343,09:59:30:346,left,09:59:30:696,2018_Jun_06_0945,59.9334844749,MP-Perception Experiment,xx11m26,
151,vgpdm_dyn(15)-lvm(30)_final(8).mov,True,left,0,training(5).mov,0,150,150,89,,,,,,,,09:59:31:452,09:59:32:197,09:59:35:200,left,09:59:35:600,2018_Jun_06_0945,59.9334844749,MP-Perception Experiment,xx11m26,
152,vgpdm_dyn(30)-lvm(15)_final(0).mov,False,left,0,training(34).mov,0,151,151,25,,,,,,,,09:59:36:363,09:59:37:118,09:59:40:106,left,09:59:40:524,2018_Jun_06_0945,59.9334844749,MP-Perception Experiment,xx11m26,
153,training(5).mov,True,right,0,vcgpdm_dyn(20)-lvm(10)_final(4).mov,0,152,152,127,,,,,,,,09:59:41:295,09:59:42:025,09:59:45:027,right,09:59:46:011,2018_Jun_06_0945,59.9334844749,MP-Perception Experiment,xx11m26,
154,training(37).mov,False,right,0,vcgpdm_dyn(15)-lvm(10)_final(6).mov,0,153,153,7,,,,,,,,09:59:46:779,09:59:47:512,09:59:50:515,right,09:59:51:015,2018_Jun_06_0945,59.9334844749,MP-Perception Experiment,xx11m26,
155,vgpdm_dyn(30)-lvm(35)_final(6).mov,True,left,0,training(4).mov,0,154,154,90,,,,,,,,09:59:51:761,09:59:52:516,09:59:55:519,left,09:59:55:937,2018_Jun_06_0945,59.9334844749,MP-Perception Experiment,xx11m26,
156,vcgpdm_dyn(30)-lvm(35)_final(3).mov,False,left,0,training(1).mov,0,155,155,116,,,,,,,,09:59:56:693,09:59:57:438,10:00:00:440,left,10:00:00:974,2018_Jun_06_0945,59.9334844749,MP-Perception Experiment,xx11m26,
157,training(11).mov,True,right,0,vcgpdm_dyn(15)-lvm(30)_final(9).mov,0,156,156,36,,,,,,,,10:00:01:685,10:00:02:476,10:00:05:478,right,10:00:05:895,2018_Jun_06_0945,59.9334844749,MP-Perception Experiment,xx11m26,
158,map_gpdm_final(2).mov,False,left,0,training(8).mov,0,157,157,93,,,,,,,,10:00:06:653,10:00:07:396,10:00:10:415,left,10:00:12:784,2018_Jun_06_0945,59.9334844749,MP-Perception Experiment,xx11m26,
159,dmp_npsi(40)_final(4).mov,False,left,0,training(18).mov,0,158,158,81,,,,,,,,10:00:13:715,10:00:14:286,10:00:17:287,left,10:00:18:638,2018_Jun_06_0945,59.9334844749,MP-Perception Experiment,xx11m26,
160,dmp_npsi(50)_final(2).mov,True,left,1,training(13).mov,0,0,0,107,,,,,,,,10:02:36:400,10:02:36:976,10:02:39:961,left,10:02:41:913,2018_Jun_06_0945,59.9334844749,MP-Perception Experiment,xx11m26,
161,training(5).mov,False,right,1,vcgpdm_dyn(20)-lvm(20)_final(9).mov,0,1,1,65,,,,,,,,10:02:42:840,10:02:43:431,10:02:46:415,right,10:02:46:999,2018_Jun_06_0945,59.9334844749,MP-Perception Experiment,xx11m26,
162,vgpdm_dyn(30)-lvm(25)_final(2).mov,True,left,1,training(27).mov,0,2,2,38,,,,,,,,10:02:47:744,10:02:48:500,10:02:51:504,left,10:02:52:004,2018_Jun_06_0945,59.9334844749,MP-Perception Experiment,xx11m26,
163,vgpdm_dyn(10)-lvm(30)_final(4).mov,False,left,1,training(19).mov,0,3,3,87,,,,,,,,10:02:52:756,10:02:53:505,10:02:56:508,left,10:02:56:875,2018_Jun_06_0945,59.9334844749,MP-Perception Experiment,xx11m26,
164,vgpdm_dyn(5)-lvm(5)_final(1)_out_of_screen.mov,True,left,1,training(15).mov,0,4,4,122,,,,,,,,10:02:57:898,10:02:58:411,10:03:01:380,left,10:03:01:747,2018_Jun_06_0945,59.9334844749,MP-Perception Experiment,xx11m26,
165,vgpdm_dyn(30)-lvm(15)_final(2).mov,True,left,1,training(29).mov,0,5,5,117,,,,,,,,10:03:02:520,10:03:03:248,10:03:06:250,left,10:03:06:568,2018_Jun_06_0945,59.9334844749,MP-Perception Experiment,xx11m26,
166,training(7).mov,True,right,1,tmp_numprim(7)_final(0).mov,0,6,6,3,,,,,,,,10:03:07:322,10:03:08:070,10:03:11:072,right,10:03:12:673,2018_Jun_06_0945,59.9334844749,MP-Perception Experiment,xx11m26,
167,vgpdm_dyn(30)-lvm(10)_final(8).mov,False,left,1,training(9).mov,0,7,7,28,,,,,,,,10:03:13:419,10:03:14:191,10:03:17:177,left,10:03:17:461,2018_Jun_06_0945,59.9334844749,MP-Perception Experiment,xx11m26,
168,training(2).mov,True,right,1,dmp_npsi(30)_final(8).mov,0,8,8,96,,,,,,,,10:03:18:244,10:03:18:963,10:03:21:964,right,10:03:22:381,2018_Jun_06_0945,59.9334844749,MP-Perception Experiment,xx11m26,
169,vgpdm_dyn(30)-lvm(20)_final(2).mov,False,left,1,training(12).mov,0,9,9,99,,,,,,,,10:03:23:136,10:03:23:882,10:03:26:903,right,10:03:27:269,2018_Jun_06_0945,59.9334844749,MP-Perception Experiment,xx11m26,
170,training(7).mov,True,right,1,vgpdm_dyn(10)-lvm(5)_final(7).mov,0,10,10,138,,,,,,,,10:03:28:026,10:03:28:771,10:03:31:773,right,10:03:32:274,2018_Jun_06_0945,59.9334844749,MP-Perception Experiment,xx11m26,
171,vcgpdm_dyn(30)-lvm(25)_final(2).mov,True,left,1,training(20).mov,0,11,11,74,,,,,,,,10:03:33:028,10:03:33:775,10:03:36:775,left,10:03:37:176,2018_Jun_06_0945,59.9334844749,MP-Perception Experiment,xx11m26,
172,vgpdm_dyn(5)-lvm(15)_final(6).mov,True,left,1,training(13).mov,0,12,12,82,,,,,,,,10:03:37:944,10:03:38:677,10:03:41:679,left,10:03:41:946,2018_Jun_06_0945,59.9334844749,MP-Perception Experiment,xx11m26,
173,training(1).mov,True,right,1,vgpdm_dyn(5)-lvm(15)_final(4).mov,0,13,13,8,,,,,,,,10:03:42:729,10:03:43:448,10:03:46:451,right,10:03:46:868,2018_Jun_06_0945,59.9334844749,MP-Perception Experiment,xx11m26,
174,vgpdm_dyn(15)-lvm(15)_final(0).mov,False,left,1,training(34).mov,0,14,14,79,,,,,,,,10:03:47:629,10:03:48:369,10:03:51:373,left,10:03:51:690,2018_Jun_06_0945,59.9334844749,MP-Perception Experiment,xx11m26,
175,vcgpdm_dyn(20)-lvm(20)_final(3).mov,True,left,1,training(21).mov,0,15,15,134,,,,,,,,10:03:52:442,10:03:53:191,10:03:56:210,right,10:03:56:578,2018_Jun_06_0945,59.9334844749,MP-Perception Experiment,xx11m26,
176,vcgpdm_dyn(30)-lvm(20)_final(7).mov,True,left,1,training(14).mov,0,16,16,70,,,,,,,,10:03:57:324,10:03:58:079,10:04:01:099,right,10:04:01:533,2018_Jun_06_0945,59.9334844749,MP-Perception Experiment,xx11m26,
177,vgpdm_dyn(10)-lvm(35)_final(9).mov,False,left,1,training(20).mov,0,17,17,115,,,,,,,,10:04:02:293,10:04:03:034,10:04:06:036,left,10:04:06:386,2018_Jun_06_0945,59.9334844749,MP-Perception Experiment,xx11m26,
178,vcgpdm_dyn(5)-lvm(5)_final(3).mov,True,left,1,training(29).mov,0,18,18,153,,,,,,,,10:04:07:141,10:04:07:904,10:04:10:890,left,10:04:11:240,2018_Jun_06_0945,59.9334844749,MP-Perception Experiment,xx11m26,
179,map_gpdm_final(8).mov,False,left,1,training(35).mov,0,19,19,109,,,,,,,,10:04:11:998,10:04:12:741,10:04:15:744,left,10:04:16:094,2018_Jun_06_0945,59.9334844749,MP-Perception Experiment,xx11m26,
180,vgpdm_dyn(15)-lvm(25)_final(8).mov,False,left,1,training(13).mov,0,20,20,55,,,,,,,,10:04:16:843,10:04:17:595,10:04:20:615,left,10:04:21:016,2018_Jun_06_0945,59.9334844749,MP-Perception Experiment,xx11m26,
181,training(12).mov,False,right,1,vcgpdm_dyn(15)-lvm(5)_final(3).mov,0,21,21,154,,,,,,,,10:04:21:775,10:04:22:534,10:04:25:519,right,10:04:25:918,2018_Jun_06_0945,59.9334844749,MP-Perception Experiment,xx11m26,
182,training(41).mov,False,right,1,vcgpdm_dyn(30)-lvm(35)_final(6).mov,0,22,22,18,,,,,,,,10:04:26:674,10:04:27:419,10:04:30:422,left,10:04:30:955,2018_Jun_06_0945,59.9334844749,MP-Perception Experiment,xx11m26,
183,training(3).mov,True,right,1,vcgpdm_dyn(5)-lvm(20)_final(3).mov,0,23,23,128,,,,,,,,10:04:31:724,10:04:32:457,10:04:35:461,right,10:04:35:910,2018_Jun_06_0945,59.9334844749,MP-Perception Experiment,xx11m26,
184,training(30).mov,True,right,1,vcgpdm_dyn(25)-lvm(5)_final(4).mov,0,24,24,101,,,,,,,,10:04:36:662,10:04:37:413,10:04:40:416,right,10:04:40:916,2018_Jun_06_0945,59.9334844749,MP-Perception Experiment,xx11m26,
185,vgpdm_dyn(10)-lvm(30)_final(1).mov,False,left,1,training(16).mov,0,25,25,127,,,,,,,,10:04:41:674,10:04:42:434,10:04:45:420,left,10:04:45:854,2018_Jun_06_0945,59.9334844749,MP-Perception Experiment,xx11m26,
186,map_cgpdm_final(6).mov,True,left,1,training(38).mov,0,26,26,31,,,,,,,,10:04:46:607,10:04:47:355,10:04:50:357,right,10:04:50:774,2018_Jun_06_0945,59.9334844749,MP-Perception Experiment,xx11m26,
187,map_gpdm_final(0).mov,True,left,1,training(38).mov,0,27,27,155,,,,,,,,10:04:51:535,10:04:52:275,10:04:55:296,left,10:04:55:664,2018_Jun_06_0945,59.9334844749,MP-Perception Experiment,xx11m26,
188,training(17).mov,True,right,1,vcgpdm_dyn(15)-lvm(10)_final(1).mov,0,28,28,13,,,,,,,,10:04:56:415,10:04:57:180,10:05:00:183,left,10:05:01:401,2018_Jun_06_0945,59.9334844749,MP-Perception Experiment,xx11m26,
189,vcgpdm_dyn(25)-lvm(10)_final(5).mov,False,left,1,training(3).mov,0,29,29,77,,,,,,,,10:05:02:164,10:05:02:918,10:05:05:904,left,10:05:06:288,2018_Jun_06_0945,59.9334844749,MP-Perception Experiment,xx11m26,
190,training(8).mov,True,right,1,vcgpdm_dyn(15)-lvm(25)_final(3).mov,0,30,30,19,,,,,,,,10:05:07:042,10:05:07:789,10:05:10:792,right,10:05:11:209,2018_Jun_06_0945,59.9334844749,MP-Perception Experiment,xx11m26,
191,training(27).mov,False,right,1,vgpdm_dyn(30)-lvm(30)_final(9).mov,0,31,31,73,,,,,,,,10:05:11:991,10:05:12:711,10:05:15:713,right,10:05:16:479,2018_Jun_06_0945,59.9334844749,MP-Perception Experiment,xx11m26,
192,vgpdm_dyn(5)-lvm(20)_final(8).mov,True,left,1,training(6).mov,0,32,32,92,,,,,,,,10:05:17:233,10:05:17:980,10:05:20:982,left,10:05:21:333,2018_Jun_06_0945,59.9334844749,MP-Perception Experiment,xx11m26,
193,dmp_npsi(20)_final(3).mov,True,left,1,training(0).mov,0,33,33,83,,,,,,,,10:05:22:082,10:05:22:834,10:05:25:836,left,10:05:26:203,2018_Jun_06_0945,59.9334844749,MP-Perception Experiment,xx11m26,
194,map_cgpdm_final(1).mov,True,left,1,training(26).mov,0,34,34,17,,,,,,,,10:05:26:960,10:05:27:706,10:05:30:693,left,10:05:31:177,2018_Jun_06_0945,59.9334844749,MP-Perception Experiment,xx11m26,
195,vcgpdm_dyn(35)-lvm(10)_final(8).mov,True,left,1,training(33).mov,0,35,35,149,,,,,,,,10:05:31:920,10:05:32:678,10:05:35:697,left,10:05:36:081,2018_Jun_06_0945,59.9334844749,MP-Perception Experiment,xx11m26,
196,training(22).mov,False,right,1,vcgpdm_dyn(30)-lvm(20)_final(9).mov,0,36,36,103,,,,,,,,10:05:36:843,10:05:37:582,10:05:40:584,left,10:05:40:951,2018_Jun_06_0945,59.9334844749,MP-Perception Experiment,xx11m26,
197,training(31).mov,False,right,1,tmp_numprim(2)_final(0).mov,0,37,37,35,,,,,,,,10:05:41:704,10:05:42:452,10:05:45:456,right,10:05:46:423,2018_Jun_06_0945,59.9334844749,MP-Perception Experiment,xx11m26,
198,vgpdm_dyn(35)-lvm(10)_final(9).mov,False,left,1,training(41).mov,0,38,38,88,,,,,,,,10:05:47:181,10:05:47:924,10:05:50:927,right,10:05:51:360,2018_Jun_06_0945,59.9334844749,MP-Perception Experiment,xx11m26,
199,training(25).mov,True,right,1,vgpdm_dyn(5)-lvm(10)_final(8).mov,0,39,39,59,,,,,,,,10:05:52:121,10:05:52:862,10:05:55:881,right,10:05:56:298,2018_Jun_06_0945,59.9334844749,MP-Perception Experiment,xx11m26,
200,vcgpdm_dyn(20)-lvm(20)_final(0).mov,False,left,1,training(10).mov,0,40,40,58,,,,,,,,10:05:57:066,10:05:57:816,10:06:00:801,right,10:06:01:385,2018_Jun_06_0945,59.9334844749,MP-Perception Experiment,xx11m26,
201,dmp_npsi(30)_final(7).mov,True,left,1,training(22).mov,0,41,41,76,,,,,,,,10:06:02:323,10:06:02:887,10:06:05:888,left,10:06:06:305,2018_Jun_06_0945,59.9334844749,MP-Perception Experiment,xx11m26,
202,training(19).mov,False,right,1,tmp_numprim(9)_final(2).mov,0,42,42,10,,,,,,,,10:06:07:066,10:06:07:806,10:06:10:809,right,10:06:11:376,2018_Jun_06_0945,59.9334844749,MP-Perception Experiment,xx11m26,
203,vgpdm_dyn(35)-lvm(30)_final(1).mov,False,left,1,training(25).mov,0,43,43,86,,,,,,,,10:06:12:138,10:06:12:877,10:06:15:880,left,10:06:16:363,2018_Jun_06_0945,59.9334844749,MP-Perception Experiment,xx11m26,
204,training(26).mov,False,right,1,vcgpdm_dyn(30)-lvm(30)_final(2).mov,0,44,44,141,,,,,,,,10:06:17:120,10:06:17:866,10:06:20:853,right,10:06:21:403,2018_Jun_06_0945,59.9334844749,MP-Perception Experiment,xx11m26,
205,vcgpdm_dyn(25)-lvm(35)_final(0).mov,True,left,1,training(2).mov,0,45,45,158,,,,,,,,10:06:22:155,10:06:22:905,10:06:25:907,left,10:06:26:257,2018_Jun_06_0945,59.9334844749,MP-Perception Experiment,xx11m26,
206,vgpdm_dyn(35)-lvm(15)_final(0)_out_of_screen.mov,False,left,1,training(2).mov,0,46,46,132,,,,,,,,10:06:27:028,10:06:27:758,10:06:30:761,left,10:06:31:195,2018_Jun_06_0945,59.9334844749,MP-Perception Experiment,xx11m26,
207,training(11).mov,True,right,1,vcgpdm_dyn(35)-lvm(30)_final(1).mov,0,47,47,5,,,,,,,,10:06:31:955,10:06:32:696,10:06:35:698,right,10:06:36:265,2018_Jun_06_0945,59.9334844749,MP-Perception Experiment,xx11m26,
208,vcgpdm_dyn(30)-lvm(5)_final(7).mov,True,left,1,training(22).mov,0,48,48,75,,,,,,,,10:06:37:030,10:06:37:767,10:06:40:770,left,10:06:41:437,2018_Jun_06_0945,59.9334844749,MP-Perception Experiment,xx11m26,
209,vcgpdm_dyn(15)-lvm(15)_final(5).mov,True,left,1,training(38).mov,0,49,49,54,,,,,,,,10:06:42:214,10:06:42:938,10:06:45:941,left,10:06:46:758,2018_Jun_06_0945,59.9334844749,MP-Perception Experiment,xx11m26,
210,training(17).mov,False,right,1,vgpdm_dyn(10)-lvm(20)_final(2).mov,0,50,50,137,,,,,,,,10:06:47:520,10:06:48:259,10:06:51:262,right,10:06:52:513,2018_Jun_06_0945,59.9334844749,MP-Perception Experiment,xx11m26,
211,vcgpdm_dyn(15)-lvm(35)_final(2).mov,True,left,1,training(19).mov,0,51,51,33,,,,,,,,10:06:53:256,10:06:54:014,10:06:57:033,left,10:06:57:716,2018_Jun_06_0945,59.9334844749,MP-Perception Experiment,xx11m26,
212,vgpdm_dyn(30)-lvm(15)_final(0).mov,True,left,1,training(34).mov,0,52,52,48,,,,,,,,10:06:58:898,10:06:59:401,10:07:02:220,left,10:07:02:554,2018_Jun_06_0945,59.9334844749,MP-Perception Experiment,xx11m26,
213,training(16).mov,True,right,1,vcgpdm_dyn(35)-lvm(20)_final(7).mov,0,53,53,60,,,,,,,,10:07:03:319,10:07:04:055,10:07:07:057,right,10:07:07:408,2018_Jun_06_0945,59.9334844749,MP-Perception Experiment,xx11m26,
214,vgpdm_dyn(35)-lvm(10)_final(6).mov,False,left,1,training(36).mov,0,54,54,66,,,,,,,,10:07:08:167,10:07:08:909,10:07:11:896,left,10:07:13:215,2018_Jun_06_0945,59.9334844749,MP-Perception Experiment,xx11m26,
215,training(39).mov,True,right,1,vcgpdm_dyn(30)-lvm(25)_final(5).mov,0,55,55,20,,,,,,,,10:07:13:969,10:07:14:716,10:07:17:718,right,10:07:18:085,2018_Jun_06_0945,59.9334844749,MP-Perception Experiment,xx11m26,
216,training(40).mov,False,right,1,dmp_npsi(40)_final(7).mov,0,56,56,130,,,,,,,,10:07:18:856,10:07:19:603,10:07:22:589,right,10:07:23:573,2018_Jun_06_0945,59.9334844749,MP-Perception Experiment,xx11m26,
217,tmp_numprim(4)_final(3).mov,True,left,1,training(21).mov,0,57,57,94,,,,,,,,10:07:24:329,10:07:25:074,10:07:28:077,left,10:07:28:694,2018_Jun_06_0945,59.9334844749,MP-Perception Experiment,xx11m26,
218,vcgpdm_dyn(25)-lvm(35)_final(0).mov,True,left,1,training(12).mov,0,58,58,25,,,,,,,,10:07:29:460,10:07:30:196,10:07:33:199,left,10:07:33:616,2018_Jun_06_0945,59.9334844749,MP-Perception Experiment,xx11m26,
219,vgpdm_dyn(15)-lvm(25)_final(2).mov,True,left,1,training(1).mov,0,59,59,147,,,,,,,,10:07:34:384,10:07:35:117,10:07:38:119,left,10:07:38:553,2018_Jun_06_0945,59.9334844749,MP-Perception Experiment,xx11m26,
220,training(36).mov,True,right,1,vgpdm_dyn(5)-lvm(10)_final(2).mov,0,60,60,2,,,,,,,,10:07:39:307,10:07:40:071,10:07:43:057,right,10:07:43:457,2018_Jun_06_0945,59.9334844749,MP-Perception Experiment,xx11m26,
221,training(4).mov,False,right,1,vcgpdm_dyn(30)-lvm(10)_final(1).mov,0,61,61,150,,,,,,,,10:07:44:210,10:07:44:958,10:07:47:960,right,10:07:48:310,2018_Jun_06_0945,59.9334844749,MP-Perception Experiment,xx11m26,
222,vgpdm_dyn(20)-lvm(25)_final(2).mov,False,left,1,training(7).mov,0,62,62,42,,,,,,,,10:07:49:063,10:07:49:811,10:07:52:814,right,10:07:53:931,2018_Jun_06_0945,59.9334844749,MP-Perception Experiment,xx11m26,
223,training(35).mov,True,right,1,tmp_numprim(10)_final(7).mov,0,63,63,52,,,,,,,,10:07:54:700,10:07:55:432,10:07:58:437,left,10:07:58:704,2018_Jun_06_0945,59.9334844749,MP-Perception Experiment,xx11m26,
224,dmp_npsi(45)_final(1).mov,True,left,1,training(28).mov,0,64,64,11,,,,,,,,10:07:59:454,10:08:00:205,10:08:03:224,left,10:08:03:574,2018_Jun_06_0945,59.9334844749,MP-Perception Experiment,xx11m26,
225,training(19).mov,True,right,1,vcgpdm_dyn(15)-lvm(20)_final(5).mov,0,65,65,34,,,,,,,,10:08:04:334,10:08:05:075,10:08:08:095,right,10:08:08:513,2018_Jun_06_0945,59.9334844749,MP-Perception Experiment,xx11m26,
226,vcgpdm_dyn(5)-lvm(10)_final(8).mov,True,left,1,training(14).mov,0,66,66,72,,,,,,,,10:08:09:273,10:08:10:014,10:08:13:033,left,10:08:13:517,2018_Jun_06_0945,59.9334844749,MP-Perception Experiment,xx11m26,
227,vgpdm_dyn(15)-lvm(15)_final(9).mov,False,left,1,training(2).mov,0,67,67,113,,,,,,,,10:08:14:255,10:08:15:018,10:08:18:020,left,10:08:19:004,2018_Jun_06_0945,59.9334844749,MP-Perception Experiment,xx11m26,
228,tmp_numprim(5)_final(7).mov,False,left,1,training(41).mov,0,68,68,80,,,,,,,,10:08:19:751,10:08:20:522,10:08:23:509,left,10:08:23:960,2018_Jun_06_0945,59.9334844749,MP-Perception Experiment,xx11m26,
229,training(19).mov,False,right,1,tmp_numprim(3)_final(8).mov,0,69,69,123,,,,,,,,10:08:24:727,10:08:25:460,10:08:28:463,right,10:08:28:830,2018_Jun_06_0945,59.9334844749,MP-Perception Experiment,xx11m26,
230,training(17).mov,True,right,1,vcgpdm_dyn(15)-lvm(15)_final(3).mov,0,70,70,14,,,,,,,,10:08:29:592,10:08:30:331,10:08:33:350,left,10:08:33:934,2018_Jun_06_0945,59.9334844749,MP-Perception Experiment,xx11m26,
231,vgpdm_dyn(10)-lvm(15)_final(7).mov,True,left,1,training(31).mov,0,71,71,124,,,,,,,,10:08:34:696,10:08:35:435,10:08:38:436,right,10:08:38:836,2018_Jun_06_0945,59.9334844749,MP-Perception Experiment,xx11m26,
232,vcgpdm_dyn(25)-lvm(30)_final(7).mov,False,left,1,training(34).mov,0,72,72,84,,,,,,,,10:08:39:583,10:08:40:338,10:08:43:341,right,10:08:43:858,2018_Jun_06_0945,59.9334844749,MP-Perception Experiment,xx11m26,
233,vgpdm_dyn(30)-lvm(5)_final(9).mov,True,left,1,training(7).mov,0,73,73,118,,,,,,,,10:08:44:619,10:08:45:376,10:08:48:362,left,10:08:49:262,2018_Jun_06_0945,59.9334844749,MP-Perception Experiment,xx11m26,
234,training(30).mov,True,right,1,vgpdm_dyn(20)-lvm(35)_final(2).mov,0,74,74,81,,,,,,,,10:08:50:014,10:08:50:765,10:08:53:768,left,10:08:54:219,2018_Jun_06_0945,59.9334844749,MP-Perception Experiment,xx11m26,
235,vcgpdm_dyn(30)-lvm(15)_final(3).mov,False,left,1,training(38).mov,0,75,75,64,,,,,,,,10:08:54:981,10:08:55:719,10:08:58:740,right,10:08:59:223,2018_Jun_06_0945,59.9334844749,MP-Perception Experiment,xx11m26,
236,vcgpdm_dyn(10)-lvm(35)_final(7).mov,True,left,1,training(7).mov,0,76,76,126,,,,,,,,10:08:59:976,10:09:00:724,10:09:03:727,left,10:09:04:144,2018_Jun_06_0945,59.9334844749,MP-Perception Experiment,xx11m26,
237,vgpdm_dyn(20)-lvm(15)_final(7).mov,True,left,1,training(33).mov,0,77,77,102,,,,,,,,10:09:04:902,10:09:05:645,10:09:08:647,left,10:09:09:064,2018_Jun_06_0945,59.9334844749,MP-Perception Experiment,xx11m26,
238,vcgpdm_dyn(30)-lvm(30)_final(0).mov,False,left,1,training(32).mov,0,78,78,142,,,,,,,,10:09:09:817,10:09:10:565,10:09:13:568,left,10:09:14:002,2018_Jun_06_0945,59.9334844749,MP-Perception Experiment,xx11m26,
239,training(11).mov,True,right,1,vgpdm_dyn(35)-lvm(35)_final(9).mov,0,79,79,111,,,,,,,,10:09:14:745,10:09:15:521,10:09:18:506,right,10:09:18:907,2018_Jun_06_0945,59.9334844749,MP-Perception Experiment,xx11m26,
240,map_cgpdm_final(0).mov,True,left,1,training(17).mov,0,80,80,129,,,,,,,,10:09:19:662,10:09:20:408,10:09:23:410,left,10:09:23:811,2018_Jun_06_0945,59.9334844749,MP-Perception Experiment,xx11m26,
241,training(25).mov,True,right,1,vgpdm_dyn(15)-lvm(10)_final(4)_out_of_screen.mov,0,81,81,95,,,,,,,,10:09:24:576,10:09:25:312,10:09:28:312,right,10:09:28:713,2018_Jun_06_0945,59.9334844749,MP-Perception Experiment,xx11m26,
242,training(36).mov,True,right,1,dmp_npsi(25)_final(7).mov,0,82,82,0,,,,,,,,10:09:29:471,10:09:30:231,10:09:33:217,right,10:09:33:501,2018_Jun_06_0945,59.9334844749,MP-Perception Experiment,xx11m26,
243,training(35).mov,False,right,1,vcgpdm_dyn(10)-lvm(25)_final(9).mov,0,83,83,15,,,,,,,,10:09:34:264,10:09:35:002,10:09:37:990,right,10:09:38:290,2018_Jun_06_0945,59.9334844749,MP-Perception Experiment,xx11m26,
244,training(22).mov,False,right,1,vgpdm_dyn(20)-lvm(35)_final(0).mov,0,84,84,104,,,,,,,,10:09:39:044,10:09:39:791,10:09:42:794,right,10:09:44:679,2018_Jun_06_0945,59.9334844749,MP-Perception Experiment,xx11m26,
245,training(3).mov,False,right,1,vcgpdm_dyn(15)-lvm(15)_final(5).mov,0,85,85,47,,,,,,,,10:09:45:600,10:09:46:180,10:09:49:182,right,10:09:50:634,2018_Jun_06_0945,59.9334844749,MP-Perception Experiment,xx11m26,
246,dmp_npsi(15)_final(7).mov,True,left,1,training(37).mov,0,86,86,62,,,,,,,,10:09:51:388,10:09:52:135,10:09:55:138,left,10:09:55:488,2018_Jun_06_0945,59.9334844749,MP-Perception Experiment,xx11m26,
247,vcgpdm_dyn(5)-lvm(10)_final(8).mov,True,left,1,training(35).mov,0,87,87,131,,,,,,,,10:09:56:255,10:09:57:006,10:09:59:992,left,10:10:00:375,2018_Jun_06_0945,59.9334844749,MP-Perception Experiment,xx11m26,
248,dmp_npsi(40)_final(6).mov,True,left,1,training(30).mov,0,88,88,97,,,,,,,,10:10:01:133,10:10:01:877,10:10:04:879,left,10:10:05:213,2018_Jun_06_0945,59.9334844749,MP-Perception Experiment,xx11m26,
249,training(10).mov,True,right,1,dmp_npsi(20)_final(7).mov,0,89,89,108,,,,,,,,10:10:05:967,10:10:06:714,10:10:09:717,right,10:10:10:151,2018_Jun_06_0945,59.9334844749,MP-Perception Experiment,xx11m26,
250,vcgpdm_dyn(5)-lvm(5)_final(7).mov,True,left,1,training(25).mov,0,90,90,7,,,,,,,,10:10:10:909,10:10:11:652,10:10:14:655,left,10:10:15:089,2018_Jun_06_0945,59.9334844749,MP-Perception Experiment,xx11m26,
251,vcgpdm_dyn(25)-lvm(30)_final(2).mov,False,left,1,training(15).mov,0,91,91,61,,,,,,,,10:10:15:882,10:10:16:605,10:10:19:590,left,10:10:19:874,2018_Jun_06_0945,59.9334844749,MP-Perception Experiment,xx11m26,
252,vcgpdm_dyn(20)-lvm(15)_final(4).mov,True,left,1,training(39).mov,0,92,92,146,,,,,,,,10:10:20:626,10:10:21:392,10:10:24:377,left,10:10:24:995,2018_Jun_06_0945,59.9334844749,MP-Perception Experiment,xx11m26,
253,training(33).mov,True,right,1,dmp_npsi(15)_final(1).mov,0,93,93,69,,,,,,,,10:10:25:770,10:10:26:497,10:10:29:484,right,10:10:29:785,2018_Jun_06_0945,59.9334844749,MP-Perception Experiment,xx11m26,
254,map_cgpdm_final(9).mov,True,left,1,training(19).mov,0,94,94,22,,,,,,,,10:10:30:542,10:10:31:286,10:10:34:288,left,10:10:34:755,2018_Jun_06_0945,59.9334844749,MP-Perception Experiment,xx11m26,
255,training(6).mov,True,right,1,map_gpdm_final(9).mov,0,95,95,45,,,,,,,,10:10:35:515,10:10:36:273,10:10:39:259,right,10:10:39:676,2018_Jun_06_0945,59.9334844749,MP-Perception Experiment,xx11m26,
256,vcgpdm_dyn(10)-lvm(10)_final(2).mov,False,left,1,training(15).mov,0,96,96,116,,,,,,,,10:10:40:437,10:10:41:194,10:10:44:197,right,10:10:44:498,2018_Jun_06_0945,59.9334844749,MP-Perception Experiment,xx11m26,
257,vgpdm_dyn(30)-lvm(30)_final(7).mov,True,left,1,training(6).mov,0,97,97,40,,,,,,,,10:10:45:257,10:10:45:999,10:10:49:001,right,10:10:49:652,2018_Jun_06_0945,59.9334844749,MP-Perception Experiment,xx11m26,
258,training(37).mov,False,right,1,vgpdm_dyn(25)-lvm(10)_final(9)_out_of_screen.mov,0,98,98,50,,,,,,,,10:10:50:419,10:10:51:153,10:10:54:155,right,10:10:54:556,2018_Jun_06_0945,59.9334844749,MP-Perception Experiment,xx11m26,
259,training(12).mov,True,right,1,vcgpdm_dyn(15)-lvm(25)_final(8).mov,0,99,99,44,,,,,,,,10:10:55:305,10:10:56:057,10:10:59:059,right,10:10:59:793,2018_Jun_06_0945,59.9334844749,MP-Perception Experiment,xx11m26,
260,vcgpdm_dyn(25)-lvm(5)_final(9).mov,True,left,1,training(18).mov,0,100,100,135,,,,,,,,10:11:00:543,10:11:01:295,10:11:04:298,right,10:11:04:681,2018_Jun_06_0945,59.9334844749,MP-Perception Experiment,xx11m26,
261,vgpdm_dyn(30)-lvm(20)_final(9).mov,False,left,1,training(35).mov,0,101,101,71,,,,,,,,10:11:05:444,10:11:06:183,10:11:09:183,left,10:11:09:500,2018_Jun_06_0945,59.9334844749,MP-Perception Experiment,xx11m26,
262,vgpdm_dyn(25)-lvm(5)_final(8).mov,False,left,1,training(17).mov,0,102,102,49,,,,,,,,10:11:10:278,10:11:11:001,10:11:14:004,left,10:11:14:304,2018_Jun_06_0945,59.9334844749,MP-Perception Experiment,xx11m26,
263,vgpdm_dyn(5)-lvm(15)_final(9).mov,True,left,1,training(30).mov,0,103,103,9,,,,,,,,10:11:15:057,10:11:15:805,10:11:18:809,left,10:11:19:226,2018_Jun_06_0945,59.9334844749,MP-Perception Experiment,xx11m26,
264,tmp_numprim(4)_final(7).mov,False,left,1,training(26).mov,0,104,104,24,,,,,,,,10:11:20:012,10:11:20:743,10:11:23:714,left,10:11:24:082,2018_Jun_06_0945,59.9334844749,MP-Perception Experiment,xx11m26,
265,vcgpdm_dyn(15)-lvm(5)_final(7).mov,False,left,1,training(24).mov,0,105,105,93,,,,,,,,10:11:24:841,10:11:25:599,10:11:28:585,left,10:11:29:002,2018_Jun_06_0945,59.9334844749,MP-Perception Experiment,xx11m26,
266,training(41).mov,True,right,1,vgpdm_dyn(15)-lvm(5)_final(7).mov,0,106,106,91,,,,,,,,10:11:29:752,10:11:30:503,10:11:33:522,right,10:11:33:823,2018_Jun_06_0945,59.9334844749,MP-Perception Experiment,xx11m26,
267,vgpdm_dyn(25)-lvm(35)_final(2).mov,True,left,1,training(19).mov,0,107,107,105,,,,,,,,10:11:34:584,10:11:35:325,10:11:38:344,left,10:11:38:828,2018_Jun_06_0945,59.9334844749,MP-Perception Experiment,xx11m26,
268,training(32).mov,False,right,1,vcgpdm_dyn(25)-lvm(5)_final(4).mov,0,108,108,100,,,,,,,,10:11:39:571,10:11:40:329,10:11:43:348,right,10:11:43:898,2018_Jun_06_0945,59.9334844749,MP-Perception Experiment,xx11m26,
269,vgpdm_dyn(15)-lvm(30)_final(0).mov,False,left,1,training(31).mov,0,109,109,121,,,,,,,,10:11:44:650,10:11:45:416,10:11:48:402,left,10:11:48:786,2018_Jun_06_0945,59.9334844749,MP-Perception Experiment,xx11m26,
270,tmp_numprim(9)_final(0).mov,False,left,1,training(12).mov,0,110,110,39,,,,,,,,10:11:49:550,10:11:50:287,10:11:53:290,right,10:11:53:924,2018_Jun_06_0945,59.9334844749,MP-Perception Experiment,xx11m26,
271,vgpdm_dyn(15)-lvm(25)_final(3).mov,False,left,1,training(37).mov,0,111,111,16,,,,,,,,10:11:54:697,10:11:55:425,10:11:58:426,left,10:11:58:776,2018_Jun_06_0945,59.9334844749,MP-Perception Experiment,xx11m26,
272,training(19).mov,True,right,1,vcgpdm_dyn(20)-lvm(35)_final(8).mov,0,112,112,157,,,,,,,,10:11:59:520,10:12:00:278,10:12:03:280,left,10:12:03:797,2018_Jun_06_0945,59.9334844749,MP-Perception Experiment,xx11m26,
273,training(39).mov,False,right,1,map_gpdm_final(7).mov,0,113,113,106,,,,,,,,10:12:04:552,10:12:05:315,10:12:08:301,right,10:12:09:353,2018_Jun_06_0945,59.9334844749,MP-Perception Experiment,xx11m26,
274,training(37).mov,False,right,1,vcgpdm_dyn(10)-lvm(10)_final(3).mov,0,114,114,68,,,,,,,,10:12:10:113,10:12:10:855,10:12:13:858,left,10:12:14:759,2018_Jun_06_0945,59.9334844749,MP-Perception Experiment,xx11m26,
275,vgpdm_dyn(5)-lvm(10)_final(7).mov,True,left,1,training(4).mov,0,115,115,29,,,,,,,,10:12:15:514,10:12:16:260,10:12:19:262,left,10:12:19:596,2018_Jun_06_0945,59.9334844749,MP-Perception Experiment,xx11m26,
276,training(2).mov,True,right,1,vcgpdm_dyn(30)-lvm(30)_final(0).mov,0,116,116,67,,,,,,,,10:12:20:358,10:12:21:097,10:12:24:099,left,10:12:24:600,2018_Jun_06_0945,59.9334844749,MP-Perception Experiment,xx11m26,
277,vcgpdm_dyn(15)-lvm(35)_final(6).mov,False,left,1,training(37).mov,0,117,117,112,,,,,,,,10:12:25:532,10:12:26:101,10:12:29:105,right,10:12:29:538,2018_Jun_06_0945,59.9334844749,MP-Perception Experiment,xx11m26,
278,training(3).mov,True,right,1,vgpdm_dyn(30)-lvm(35)_final(7).mov,0,118,118,32,,,,,,,,10:12:30:290,10:12:31:039,10:12:34:042,right,10:12:34:459,2018_Jun_06_0945,59.9334844749,MP-Perception Experiment,xx11m26,
279,training(27).mov,False,right,1,vgpdm_dyn(25)-lvm(35)_final(4).mov,0,119,119,136,,,,,,,,10:12:35:211,10:12:35:960,10:12:38:962,left,10:12:39:313,2018_Jun_06_0945,59.9334844749,MP-Perception Experiment,xx11m26,
280,training(29).mov,False,right,1,vcgpdm_dyn(25)-lvm(5)_final(1).mov,0,120,120,85,,,,,,,,10:12:40:099,10:12:40:814,10:12:43:816,right,10:12:44:250,2018_Jun_06_0945,59.9334844749,MP-Perception Experiment,xx11m26,
281,training(13).mov,True,right,1,dmp_npsi(35)_final(3).mov,0,121,121,41,,,,,,,,10:12:45:012,10:12:45:752,10:12:48:753,left,10:12:49:053,2018_Jun_06_0945,59.9334844749,MP-Perception Experiment,xx11m26,
282,vcgpdm_dyn(20)-lvm(30)_final(1).mov,True,left,1,training(0).mov,0,122,122,27,,,,,,,,10:12:49:802,10:12:50:554,10:12:53:557,left,10:12:53:924,2018_Jun_06_0945,59.9334844749,MP-Perception Experiment,xx11m26,
283,vgpdm_dyn(25)-lvm(5)_final(3).mov,True,left,1,training(27).mov,0,123,123,140,,,,,,,,10:12:54:681,10:12:55:442,10:12:58:427,left,10:12:58:711,2018_Jun_06_0945,59.9334844749,MP-Perception Experiment,xx11m26,
284,training(13).mov,False,right,1,vgpdm_dyn(20)-lvm(20)_final(3).mov,0,124,124,26,,,,,,,,10:12:59:465,10:13:00:213,10:13:03:217,right,10:13:03:734,2018_Jun_06_0945,59.9334844749,MP-Perception Experiment,xx11m26,
285,training(14).mov,False,right,1,vcgpdm_dyn(10)-lvm(25)_final(8).mov,0,125,125,4,,,,,,,,10:13:04:481,10:13:05:252,10:13:08:238,right,10:13:09:106,2018_Jun_06_0945,59.9334844749,MP-Perception Experiment,xx11m26,
286,training(32).mov,True,right,1,vgpdm_dyn(5)-lvm(30)_final(2).mov,0,126,126,12,,,,,,,,10:13:09:868,10:13:10:607,10:13:13:609,right,10:13:14:260,2018_Jun_06_0945,59.9334844749,MP-Perception Experiment,xx11m26,
287,vgpdm_dyn(35)-lvm(10)_final(3).mov,False,left,1,training(39).mov,0,127,127,23,,,,,,,,10:13:15:013,10:13:15:761,10:13:18:780,right,10:13:22:017,2018_Jun_06_0945,59.9334844749,MP-Perception Experiment,xx11m26,
288,training(11).mov,False,right,1,vgpdm_dyn(15)-lvm(35)_final(2).mov,0,128,128,145,,,,,,,,10:13:22:940,10:13:23:518,10:13:26:520,right,10:13:27:005,2018_Jun_06_0945,59.9334844749,MP-Perception Experiment,xx11m26,
289,vgpdm_dyn(25)-lvm(35)_final(6).mov,True,left,1,training(48).mov,0,129,129,43,,,,,,,,10:13:27:975,10:13:28:505,10:13:31:508,left,10:13:32:125,2018_Jun_06_0945,59.9334844749,MP-Perception Experiment,xx11m26,
290,vcgpdm_dyn(25)-lvm(15)_final(6).mov,False,left,1,training(18).mov,0,130,130,98,,,,,,,,10:13:32:873,10:13:33:626,10:13:36:627,left,10:13:36:977,2018_Jun_06_0945,59.9334844749,MP-Perception Experiment,xx11m26,
291,training(15).mov,False,right,1,vcgpdm_dyn(25)-lvm(10)_final(7).mov,0,131,131,53,,,,,,,,10:13:37:743,10:13:38:479,10:13:41:482,right,10:13:41:899,2018_Jun_06_0945,59.9334844749,MP-Perception Experiment,xx11m26,
292,vgpdm_dyn(20)-lvm(25)_final(2).mov,False,left,1,training(28).mov,0,132,132,139,,,,,,,,10:13:42:650,10:13:43:400,10:13:46:402,right,10:13:46:736,2018_Jun_06_0945,59.9334844749,MP-Perception Experiment,xx11m26,
293,training(3).mov,False,right,1,vcgpdm_dyn(5)-lvm(25)_final(2).mov,0,133,133,152,,,,,,,,10:13:47:664,10:13:48:237,10:13:51:225,right,10:13:51:558,2018_Jun_06_0945,59.9334844749,MP-Perception Experiment,xx11m26,
294,training(27).mov,True,right,1,vgpdm_dyn(15)-lvm(25)_final(5).mov,0,134,134,119,,,,,,,,10:13:52:512,10:13:53:060,10:13:56:063,right,10:13:56:497,2018_Jun_06_0945,59.9334844749,MP-Perception Experiment,xx11m26,
295,dmp_npsi(15)_final(6).mov,False,left,1,training(22).mov,0,135,135,46,,,,,,,,10:13:57:267,10:13:57:998,10:14:01:000,left,10:14:01:434,2018_Jun_06_0945,59.9334844749,MP-Perception Experiment,xx11m26,
296,vcgpdm_dyn(20)-lvm(10)_final(3).mov,True,left,1,training(13).mov,0,136,136,110,,,,,,,,10:14:02:213,10:14:02:952,10:14:05:938,left,10:14:06:371,2018_Jun_06_0945,59.9334844749,MP-Perception Experiment,xx11m26,
297,vgpdm_dyn(20)-lvm(20)_final(2).mov,False,left,1,training(13).mov,0,137,137,63,,,,,,,,10:14:07:129,10:14:07:873,10:14:10:875,right,10:14:11:192,2018_Jun_06_0945,59.9334844749,MP-Perception Experiment,xx11m26,
298,vgpdm_dyn(20)-lvm(5)_final(9).mov,False,left,1,training(21).mov,0,138,138,133,,,,,,,,10:14:11:942,10:14:12:694,10:14:15:697,left,10:14:16:130,2018_Jun_06_0945,59.9334844749,MP-Perception Experiment,xx11m26,
299,training(15).mov,False,right,1,vgpdm_dyn(25)-lvm(20)_final(9).mov,0,139,139,120,,,,,,,,10:14:17:069,10:14:17:631,10:14:20:650,left,10:14:21:702,2018_Jun_06_0945,59.9334844749,MP-Perception Experiment,xx11m26,
300,vgpdm_dyn(15)-lvm(5)_final(5).mov,False,left,1,training(21).mov,0,140,140,56,,,,,,,,10:14:22:478,10:14:23:203,10:14:26:222,left,10:14:27:888,2018_Jun_06_0945,59.9334844749,MP-Perception Experiment,xx11m26,
301,training(23).mov,True,right,1,vcgpdm_dyn(35)-lvm(10)_final(3).mov,0,141,141,36,,,,,,,,10:14:28:828,10:14:29:390,10:14:32:393,right,10:14:32:776,2018_Jun_06_0945,59.9334844749,MP-Perception Experiment,xx11m26,
302,vgpdm_dyn(30)-lvm(30)_final(8).mov,False,left,1,training(12).mov,0,142,142,51,,,,,,,,10:14:33:535,10:14:34:277,10:14:37:280,left,10:14:37:513,2018_Jun_06_0945,59.9334844749,MP-Perception Experiment,xx11m26,
303,vgpdm_dyn(20)-lvm(15)_final(7).mov,False,left,1,training(24).mov,0,143,143,114,,,,,,,,10:14:38:286,10:14:39:016,10:14:42:002,right,10:14:42:520,2018_Jun_06_0945,59.9334844749,MP-Perception Experiment,xx11m26,
304,vgpdm_dyn(30)-lvm(10)_final(1).mov,True,left,1,training(5).mov,0,144,144,37,,,,,,,,10:14:43:455,10:14:44:020,10:14:47:040,left,10:14:47:374,2018_Jun_06_0945,59.9334844749,MP-Perception Experiment,xx11m26,
305,training(18).mov,False,right,1,map_cgpdm_final(5).mov,0,145,145,21,,,,,,,,10:14:48:136,10:14:48:875,10:14:51:878,right,10:14:52:161,2018_Jun_06_0945,59.9334844749,MP-Perception Experiment,xx11m26,
306,map_gpdm_final(3).mov,True,left,1,training(41).mov,0,146,146,143,,,,,,,,10:14:52:910,10:14:53:662,10:14:56:665,left,10:14:57:015,2018_Jun_06_0945,59.9334844749,MP-Perception Experiment,xx11m26,
307,vgpdm_dyn(30)-lvm(35)_final(8).mov,False,left,1,training(24).mov,0,147,147,78,,,,,,,,10:14:58:656,10:14:58:656,10:15:01:519,right,10:15:02:370,2018_Jun_06_0945,59.9334844749,MP-Perception Experiment,xx11m26,
308,vcgpdm_dyn(20)-lvm(30)_final(9).mov,False,left,1,training(36).mov,0,148,148,148,,,,,,,,10:15:03:117,10:15:03:887,10:15:06:874,left,10:15:07:258,2018_Jun_06_0945,59.9334844749,MP-Perception Experiment,xx11m26,
309,training(17).mov,True,right,1,vgpdm_dyn(20)-lvm(25)_final(2).mov,0,149,149,144,,,,,,,,10:15:08:014,10:15:08:759,10:15:11:761,right,10:15:12:445,2018_Jun_06_0945,59.9334844749,MP-Perception Experiment,xx11m26,
310,dmp_npsi(35)_final(1).mov,False,left,1,training(7).mov,0,150,150,30,,,,,,,,10:15:13:393,10:15:13:963,10:15:16:947,left,10:15:17:331,2018_Jun_06_0945,59.9334844749,MP-Perception Experiment,xx11m26,
311,training(34).mov,True,right,1,vcgpdm_dyn(10)-lvm(15)_final(1).mov,0,151,151,90,,,,,,,,10:15:18:095,10:15:18:832,10:15:21:835,right,10:15:22:202,2018_Jun_06_0945,59.9334844749,MP-Perception Experiment,xx11m26,
312,training(19).mov,True,right,1,vgpdm_dyn(25)-lvm(30)_final(6).mov,0,152,152,1,,,,,,,,10:15:22:959,10:15:23:720,10:15:26:706,right,10:15:27:173,2018_Jun_06_0945,59.9334844749,MP-Perception Experiment,xx11m26,
313,training(38).mov,False,right,1,dmp_npsi(35)_final(9).mov,0,153,153,156,,,,,,,,10:15:27:918,10:15:28:676,10:15:31:662,right,10:15:32:212,2018_Jun_06_0945,59.9334844749,MP-Perception Experiment,xx11m26,
314,training(10).mov,True,right,1,vgpdm_dyn(30)-lvm(30)_final(4).mov,0,154,154,57,,,,,,,,10:15:32:969,10:15:33:713,10:15:36:716,right,10:15:37:533,2018_Jun_06_0945,59.9334844749,MP-Perception Experiment,xx11m26,
315,training(38).mov,True,right,1,vgpdm_dyn(20)-lvm(15)_final(7).mov,0,155,155,6,,,,,,,,10:15:38:286,10:15:39:035,10:15:42:038,right,10:15:42:605,2018_Jun_06_0945,59.9334844749,MP-Perception Experiment,xx11m26,
316,training(4).mov,True,right,1,vgpdm_dyn(25)-lvm(30)_final(3).mov,0,156,156,125,,,,,,,,10:15:43:344,10:15:44:106,10:15:47:109,right,10:15:47:759,2018_Jun_06_0945,59.9334844749,MP-Perception Experiment,xx11m26,
317,vcgpdm_dyn(25)-lvm(20)_final(6).mov,True,left,1,training(36).mov,0,157,157,151,,,,,,,,10:15:48:514,10:15:49:260,10:15:52:263,right,10:15:52:797,2018_Jun_06_0945,59.9334844749,MP-Perception Experiment,xx11m26,
318,vgpdm_dyn(10)-lvm(15)_final(8).mov,True,left,1,training(33).mov,0,158,158,89,,,,,,,,10:15:53:559,10:15:54:298,10:15:57:301,left,10:15:57:735,2018_Jun_06_0945,59.9334844749,MP-Perception Experiment,xx11m26,
319,vcgpdm_dyn(15)-lvm(15)_final(2).mov,True,left,2,training(17).mov,0,0,0,81,,,,,,,,10:18:09:818,10:18:10:582,10:18:13:568,left,10:18:15:086,2018_Jun_06_0945,59.9334844749,MP-Perception Experiment,xx11m26,
320,tmp_numprim(2)_final(6).mov,True,left,2,training(37).mov,0,1,1,5,,,,,,,,10:18:16:030,10:18:16:604,10:18:19:591,left,10:18:20:208,2018_Jun_06_0945,59.9334844749,MP-Perception Experiment,xx11m26,
321,training(13).mov,False,right,2,vcgpdm_dyn(10)-lvm(30)_final(4).mov,0,2,2,109,,,,,,,,10:18:20:956,10:18:21:726,10:18:24:711,right,10:18:25:079,2018_Jun_06_0945,59.9334844749,MP-Perception Experiment,xx11m26,
322,vcgpdm_dyn(30)-lvm(5)_final(5).mov,True,left,2,training(13).mov,0,3,3,14,,,,,,,,10:18:25:833,10:18:26:580,10:18:29:599,left,10:18:30:383,2018_Jun_06_0945,59.9334844749,MP-Perception Experiment,xx11m26,
323,training(35).mov,True,right,2,vcgpdm_dyn(30)-lvm(10)_final(8).mov,0,4,4,11,,,,,,,,10:18:31:323,10:18:31:884,10:18:34:887,left,10:18:35:321,2018_Jun_06_0945,59.9334844749,MP-Perception Experiment,xx11m26,
324,vgpdm_dyn(20)-lvm(20)_final(2).mov,True,left,2,training(2).mov,0,5,5,55,,,,,,,,10:18:36:096,10:18:36:837,10:18:39:823,left,10:18:40:090,2018_Jun_06_0945,59.9334844749,MP-Perception Experiment,xx11m26,
325,training(48).mov,True,right,2,vcgpdm_dyn(20)-lvm(20)_final(0).mov,0,6,6,25,,,,,,,,10:18:40:838,10:18:41:591,10:18:44:593,left,10:18:44:860,2018_Jun_06_0945,59.9334844749,MP-Perception Experiment,xx11m26,
326,training(15).mov,False,right,2,vcgpdm_dyn(35)-lvm(10)_final(3).mov,0,7,7,88,,,,,,,,10:18:45:641,10:18:46:362,10:18:49:349,right,10:18:49:766,2018_Jun_06_0945,59.9334844749,MP-Perception Experiment,xx11m26,
327,vgpdm_dyn(35)-lvm(30)_final(6).mov,True,left,2,training(35).mov,0,8,8,24,,,,,,,,10:18:50:526,10:18:51:267,10:18:54:271,left,10:18:54:721,2018_Jun_06_0945,59.9334844749,MP-Perception Experiment,xx11m26,
328,vcgpdm_dyn(15)-lvm(35)_final(7).mov,True,left,2,training(10).mov,0,9,9,77,,,,,,,,10:18:55:482,10:18:56:222,10:18:59:241,left,10:18:59:525,2018_Jun_06_0945,59.9334844749,MP-Perception Experiment,xx11m26,
329,vcgpdm_dyn(10)-lvm(30)_final(7).mov,True,left,2,training(14).mov,0,10,10,29,,,,,,,,10:19:00:278,10:19:01:026,10:19:04:045,left,10:19:04:346,2018_Jun_06_0945,59.9334844749,MP-Perception Experiment,xx11m26,
330,vgpdm_dyn(30)-lvm(5)_final(9).mov,False,left,2,training(17).mov,0,11,11,155,,,,,,,,10:19:05:094,10:19:05:847,10:19:08:849,right,10:19:10:435,2018_Jun_06_0945,59.9334844749,MP-Perception Experiment,xx11m26,
331,training(38).mov,False,right,2,vgpdm_dyn(25)-lvm(35)_final(8).mov,0,12,12,131,,,,,,,,10:19:11:179,10:19:11:936,10:19:14:938,right,10:19:15:372,2018_Jun_06_0945,59.9334844749,MP-Perception Experiment,xx11m26,
332,vcgpdm_dyn(20)-lvm(15)_final(9).mov,True,left,2,training(27).mov,0,13,13,17,,,,,,,,10:19:16:130,10:19:16:890,10:19:19:876,right,10:19:20:376,2018_Jun_06_0945,59.9334844749,MP-Perception Experiment,xx11m26,
333,vcgpdm_dyn(10)-lvm(20)_final(8).mov,False,left,2,training(32).mov,0,14,14,80,,,,,,,,10:19:21:141,10:19:21:894,10:19:24:880,left,10:19:25:330,2018_Jun_06_0945,59.9334844749,MP-Perception Experiment,xx11m26,
334,training(39).mov,True,right,2,vcgpdm_dyn(5)-lvm(5)_final(9).mov,0,15,15,85,,,,,,,,10:19:26:088,10:19:26:846,10:19:29:833,right,10:19:33:119,2018_Jun_06_0945,59.9334844749,MP-Perception Experiment,xx11m26,
335,vcgpdm_dyn(25)-lvm(35)_final(3).mov,False,left,2,training(36).mov,0,16,16,140,,,,,,,,10:19:34:041,10:19:34:620,10:19:37:623,left,10:19:38:123,2018_Jun_06_0945,59.9334844749,MP-Perception Experiment,xx11m26,
336,tmp_numprim(4)_final(7).mov,True,left,2,training(12).mov,0,17,17,100,,,,,,,,10:19:38:893,10:19:39:626,10:19:42:628,left,10:19:47:133,2018_Jun_06_0945,59.9334844749,MP-Perception Experiment,xx11m26,
337,vcgpdm_dyn(30)-lvm(30)_final(9).mov,True,left,2,training(12).mov,0,18,18,57,,,,,,,,10:19:47:926,10:19:48:634,10:19:51:637,left,10:19:52:304,2018_Jun_06_0945,59.9334844749,MP-Perception Experiment,xx11m26,
338,training(15).mov,False,right,2,tmp_numprim(7)_final(8).mov,0,19,19,34,,,,,,,,10:19:53:074,10:19:53:805,10:19:56:807,right,10:19:57:425,2018_Jun_06_0945,59.9334844749,MP-Perception Experiment,xx11m26,
339,training(35).mov,False,right,2,vgpdm_dyn(20)-lvm(25)_final(7).mov,0,20,20,120,,,,,,,,10:19:58:847,10:19:59:359,10:20:01:928,right,10:20:02:463,2018_Jun_06_0945,59.9334844749,MP-Perception Experiment,xx11m26,
340,training(29).mov,True,right,2,tmp_numprim(4)_final(7).mov,0,21,21,48,,,,,,,,10:20:03:223,10:20:03:964,10:20:06:967,right,10:20:07:367,2018_Jun_06_0945,59.9334844749,MP-Perception Experiment,xx11m26,
341,tmp_numprim(6)_final(8).mov,False,left,2,training(18).mov,0,22,22,2,,,,,,,,10:20:08:129,10:20:08:868,10:20:11:871,left,10:20:12:205,2018_Jun_06_0945,59.9334844749,MP-Perception Experiment,xx11m26,
342,vgpdm_dyn(20)-lvm(15)_final(2).mov,True,left,2,training(22).mov,0,23,23,143,,,,,,,,10:20:12:959,10:20:13:705,10:20:16:706,left,10:20:17:290,2018_Jun_06_0945,59.9334844749,MP-Perception Experiment,xx11m26,
343,vcgpdm_dyn(20)-lvm(35)_final(0).mov,True,left,2,training(17).mov,0,24,24,138,,,,,,,,10:20:18:039,10:20:18:791,10:20:21:795,left,10:20:23:296,2018_Jun_06_0945,59.9334844749,MP-Perception Experiment,xx11m26,
344,training(29).mov,True,right,2,vcgpdm_dyn(15)-lvm(25)_final(7).mov,0,25,25,92,,,,,,,,10:20:24:232,10:20:24:814,10:20:27:800,right,10:20:28:485,2018_Jun_06_0945,59.9334844749,MP-Perception Experiment,xx11m26,
345,training(16).mov,True,right,2,vgpdm_dyn(5)-lvm(15)_final(1).mov,0,26,26,137,,,,,,,,10:20:29:259,10:20:30:003,10:20:32:989,right,10:20:33:873,2018_Jun_06_0945,59.9334844749,MP-Perception Experiment,xx11m26,
346,vcgpdm_dyn(15)-lvm(30)_final(4).mov,False,left,2,training(30).mov,0,27,27,66,,,,,,,,10:20:34:629,10:20:35:374,10:20:38:378,left,10:20:38:978,2018_Jun_06_0945,59.9334844749,MP-Perception Experiment,xx11m26,
347,vgpdm_dyn(10)-lvm(25)_final(1).mov,True,left,2,training(8).mov,0,28,28,9,,,,,,,,10:20:39:738,10:20:40:479,10:20:43:498,left,10:20:44:566,2018_Jun_06_0945,59.9334844749,MP-Perception Experiment,xx11m26,
348,training(12).mov,True,right,2,vgpdm_dyn(10)-lvm(35)_final(4).mov,0,29,29,95,,,,,,,,10:20:45:341,10:20:46:067,10:20:49:086,right,10:20:49:853,2018_Jun_06_0945,59.9334844749,MP-Perception Experiment,xx11m26,
349,dmp_npsi(25)_final(3).mov,False,left,2,training(10).mov,0,30,30,33,,,,,,,,10:20:50:610,10:20:51:371,10:20:54:357,left,10:20:54:692,2018_Jun_06_0945,59.9334844749,MP-Perception Experiment,xx11m26,
350,vcgpdm_dyn(20)-lvm(30)_final(5).mov,False,left,2,training(40).mov,0,31,31,59,,,,,,,,10:20:55:451,10:20:56:209,10:20:59:212,left,10:20:59:562,2018_Jun_06_0945,59.9334844749,MP-Perception Experiment,xx11m26,
351,vcgpdm_dyn(30)-lvm(15)_final(4).mov,True,left,2,training(29).mov,0,32,32,31,,,,,,,,10:21:00:319,10:21:01:063,10:21:04:066,right,10:21:04:433,2018_Jun_06_0945,59.9334844749,MP-Perception Experiment,xx11m26,
352,training(34).mov,True,right,2,tmp_numprim(9)_final(8).mov,0,33,33,114,,,,,,,,10:21:05:186,10:21:05:934,10:21:08:935,right,10:21:09:051,2018_Jun_06_0945,59.9334844749,MP-Perception Experiment,xx11m26,
353,vcgpdm_dyn(15)-lvm(25)_final(0).mov,False,left,2,training(30).mov,0,34,34,67,,,,,,,,10:21:09:841,10:21:10:553,10:21:13:556,right,10:21:13:623,2018_Jun_06_0945,59.9334844749,MP-Perception Experiment,xx11m26,
354,vcgpdm_dyn(35)-lvm(5)_final(6).mov,True,left,2,training(10).mov,0,35,35,23,,,,,,,,10:21:14:386,10:21:15:124,10:21:18:126,left,10:21:18:395,2018_Jun_06_0945,59.9334844749,MP-Perception Experiment,xx11m26,
355,vgpdm_dyn(25)-lvm(30)_final(3).mov,False,left,2,training(28).mov,0,36,36,65,,,,,,,,10:21:19:148,10:21:19:913,10:21:22:898,left,10:21:23:332,2018_Jun_06_0945,59.9334844749,MP-Perception Experiment,xx11m26,
356,vcgpdm_dyn(5)-lvm(25)_final(5).mov,True,left,2,training(26).mov,0,37,37,0,,,,,,,,10:21:24:082,10:21:24:834,10:21:27:853,left,10:21:28:437,2018_Jun_06_0945,59.9334844749,MP-Perception Experiment,xx11m26,
357,training(32).mov,False,right,2,tmp_numprim(3)_final(6).mov,0,38,38,60,,,,,,,,10:21:29:203,10:21:29:939,10:21:32:941,right,10:21:34:142,2018_Jun_06_0945,59.9334844749,MP-Perception Experiment,xx11m26,
358,vcgpdm_dyn(15)-lvm(30)_final(8).mov,True,left,2,training(25).mov,0,39,39,6,,,,,,,,10:21:34:896,10:21:35:643,10:21:38:646,left,10:21:39:046,2018_Jun_06_0945,59.9334844749,MP-Perception Experiment,xx11m26,
359,training(0).mov,True,right,2,vcgpdm_dyn(5)-lvm(5)_final(3).mov,0,40,40,37,,,,,,,,10:21:39:816,10:21:40:547,10:21:43:650,left,10:21:44:417,2018_Jun_06_0945,59.9334844749,MP-Perception Experiment,xx11m26,
360,vgpdm_dyn(10)-lvm(10)_final(7).mov,True,left,2,training(41).mov,0,41,41,123,,,,,,,,10:21:45:164,10:21:45:935,10:21:48:922,left,10:21:49:522,2018_Jun_06_0945,59.9334844749,MP-Perception Experiment,xx11m26,
361,vgpdm_dyn(35)-lvm(5)_final(2).mov,False,left,2,training(33).mov,0,42,42,146,,,,,,,,10:21:50:289,10:21:51:023,10:21:54:026,left,10:21:54:309,2018_Jun_06_0945,59.9334844749,MP-Perception Experiment,xx11m26,
362,training(5).mov,False,right,2,vgpdm_dyn(10)-lvm(15)_final(4).mov,0,43,43,101,,,,,,,,10:21:55:063,10:21:55:827,10:21:58:811,right,10:21:59:178,2018_Jun_06_0945,59.9334844749,MP-Perception Experiment,xx11m26,
363,vgpdm_dyn(35)-lvm(25)_final(5).mov,False,left,2,training(20).mov,0,44,44,83,,,,,,,,10:21:59:929,10:22:00:679,10:22:03:682,left,10:22:03:799,2018_Jun_06_0945,59.9334844749,MP-Perception Experiment,xx11m26,
364,vcgpdm_dyn(25)-lvm(10)_final(1).mov,True,left,2,training(3).mov,0,45,45,113,,,,,,,,10:22:04:563,10:22:05:301,10:22:08:303,left,10:22:08:754,2018_Jun_06_0945,59.9334844749,MP-Perception Experiment,xx11m26,
365,vcgpdm_dyn(10)-lvm(35)_final(7).mov,True,left,2,training(9).mov,0,46,46,89,,,,,,,,10:22:09:499,10:22:10:255,10:22:13:376,left,10:22:13:810,2018_Jun_06_0945,59.9334844749,MP-Perception Experiment,xx11m26,
366,vgpdm_dyn(30)-lvm(10)_final(8).mov,False,left,2,training(20).mov,0,47,47,127,,,,,,,,10:22:14:572,10:22:15:311,10:22:18:330,left,10:22:18:915,2018_Jun_06_0945,59.9334844749,MP-Perception Experiment,xx11m26,
367,vgpdm_dyn(20)-lvm(5)_final(1).mov,False,left,2,training(38).mov,0,48,48,74,,,,,,,,10:22:19:856,10:22:20:431,10:22:23:418,left,10:22:23:869,2018_Jun_06_0945,59.9334844749,MP-Perception Experiment,xx11m26,
368,vcgpdm_dyn(30)-lvm(5)_final(1).mov,True,left,2,training(41).mov,0,49,49,136,,,,,,,,10:22:24:628,10:22:25:370,10:22:28:372,left,10:22:28:823,2018_Jun_06_0945,59.9334844749,MP-Perception Experiment,xx11m26,
369,vgpdm_dyn(5)-lvm(10)_final(2).mov,True,left,2,training(36).mov,0,50,50,18,,,,,,,,10:22:29:575,10:22:30:324,10:22:33:326,left,10:22:33:727,2018_Jun_06_0945,59.9334844749,MP-Perception Experiment,xx11m26,
370,training(20).mov,False,right,2,vcgpdm_dyn(10)-lvm(20)_final(8).mov,0,51,51,20,,,,,,,,10:22:34:490,10:22:35:228,10:22:38:230,right,10:22:41:484,2018_Jun_06_0945,59.9334844749,MP-Perception Experiment,xx11m26,
371,vgpdm_dyn(35)-lvm(25)_final(1).mov,True,left,2,training(11).mov,0,52,52,13,,,,,,,,10:22:42:235,10:22:42:985,10:22:45:987,left,10:22:46:371,2018_Jun_06_0945,59.9334844749,MP-Perception Experiment,xx11m26,
372,vgpdm_dyn(35)-lvm(25)_final(4).mov,False,left,2,training(30).mov,0,53,53,148,,,,,,,,10:22:47:172,10:22:47:904,10:22:50:890,left,10:22:51:390,2018_Jun_06_0945,59.9334844749,MP-Perception Experiment,xx11m26,
373,training(24).mov,True,right,2,vcgpdm_dyn(35)-lvm(20)_final(9).mov,0,54,54,134,,,,,,,,10:22:52:133,10:22:52:891,10:22:55:894,left,10:22:56:177,2018_Jun_06_0945,59.9334844749,MP-Perception Experiment,xx11m26,
374,training(24).mov,True,right,2,tmp_numprim(10)_final(4).mov,0,55,55,39,,,,,,,,10:22:56:932,10:22:57:679,10:23:00:667,right,10:23:01:051,2018_Jun_06_0945,59.9334844749,MP-Perception Experiment,xx11m26,
375,training(33).mov,False,right,2,vcgpdm_dyn(35)-lvm(10)_final(0).mov,0,56,56,151,,,,,,,,10:23:01:795,10:23:02:552,10:23:05:554,right,10:23:05:955,2018_Jun_06_0945,59.9334844749,MP-Perception Experiment,xx11m26,
376,vgpdm_dyn(30)-lvm(15)_final(7).mov,False,left,2,training(37).mov,0,57,57,99,,,,,,,,10:23:06:721,10:23:07:472,10:23:10:458,right,10:23:10:942,2018_Jun_06_0945,59.9334844749,MP-Perception Experiment,xx11m26,
377,training(48).mov,False,right,2,vgpdm_dyn(35)-lvm(35)_final(2).mov,0,58,58,108,,,,,,,,10:23:11:708,10:23:12:443,10:23:15:446,right,10:23:19:266,2018_Jun_06_0945,59.9334844749,MP-Perception Experiment,xx11m26,
378,vcgpdm_dyn(5)-lvm(20)_final(7).mov,True,left,2,training(12).mov,0,59,59,154,,,,,,,,10:23:20:206,10:23:20:768,10:23:23:786,left,10:23:24:220,2018_Jun_06_0945,59.9334844749,MP-Perception Experiment,xx11m26,
379,training(30).mov,True,right,2,vcgpdm_dyn(35)-lvm(30)_final(8).mov,0,60,60,145,,,,,,,,10:23:24:972,10:23:25:721,10:23:28:724,right,10:23:29:208,2018_Jun_06_0945,59.9334844749,MP-Perception Experiment,xx11m26,
380,vcgpdm_dyn(25)-lvm(30)_final(0).mov,False,left,2,training(4).mov,0,61,61,130,,,,,,,,10:23:29:953,10:23:30:709,10:23:33:712,right,10:23:34:146,2018_Jun_06_0945,59.9334844749,MP-Perception Experiment,xx11m26,
381,vcgpdm_dyn(10)-lvm(20)_final(5).mov,False,left,2,training(11).mov,0,62,62,149,,,,,,,,10:23:34:894,10:23:35:664,10:23:38:648,left,10:23:39:015,2018_Jun_06_0945,59.9334844749,MP-Perception Experiment,xx11m26,
382,vcgpdm_dyn(10)-lvm(20)_final(8).mov,True,left,2,training(24).mov,0,63,63,22,,,,,,,,10:23:39:773,10:23:40:516,10:23:43:518,left,10:23:43:619,2018_Jun_06_0945,59.9334844749,MP-Perception Experiment,xx11m26,
383,training(2).mov,True,right,2,vcgpdm_dyn(20)-lvm(35)_final(2).mov,0,64,64,98,,,,,,,,10:23:44:363,10:23:45:120,10:23:48:122,left,10:23:48:422,2018_Jun_06_0945,59.9334844749,MP-Perception Experiment,xx11m26,
384,training(36).mov,False,right,2,vcgpdm_dyn(5)-lvm(10)_final(8).mov,0,65,65,128,,,,,,,,10:23:49:172,10:23:49:941,10:23:52:929,right,10:23:53:246,2018_Jun_06_0945,59.9334844749,MP-Perception Experiment,xx11m26,
385,vgpdm_dyn(30)-lvm(5)_final(6).mov,True,left,2,training(31).mov,0,66,66,106,,,,,,,,10:23:53:997,10:23:54:747,10:23:57:749,right,10:23:59:351,2018_Jun_06_0945,59.9334844749,MP-Perception Experiment,xx11m26,
386,vcgpdm_dyn(30)-lvm(25)_final(3).mov,False,left,2,training(35).mov,0,67,67,76,,,,,,,,10:24:00:102,10:24:00:868,10:24:03:854,right,10:24:04:255,2018_Jun_06_0945,59.9334844749,MP-Perception Experiment,xx11m26,
387,dmp_npsi(20)_final(0).mov,True,left,2,training(7).mov,0,68,68,19,,,,,,,,10:24:05:018,10:24:05:756,10:24:08:759,right,10:24:09:343,2018_Jun_06_0945,59.9334844749,MP-Perception Experiment,xx11m26,
388,vcgpdm_dyn(10)-lvm(30)_final(2).mov,False,left,2,training(11).mov,0,69,69,91,,,,,,,,10:24:10:105,10:24:10:861,10:24:13:847,left,10:24:14:264,2018_Jun_06_0945,59.9334844749,MP-Perception Experiment,xx11m26,
389,training(36).mov,False,right,2,vgpdm_dyn(25)-lvm(20)_final(0).mov,0,70,70,84,,,,,,,,10:24:15:025,10:24:15:765,10:24:18:767,left,10:24:19:201,2018_Jun_06_0945,59.9334844749,MP-Perception Experiment,xx11m26,
390,training(38).mov,False,right,2,vgpdm_dyn(5)-lvm(10)_final(6).mov,0,71,71,42,,,,,,,,10:24:19:960,10:24:20:719,10:24:23:721,right,10:24:24:005,2018_Jun_06_0945,59.9334844749,MP-Perception Experiment,xx11m26,
391,vcgpdm_dyn(20)-lvm(15)_final(4).mov,False,left,2,training(12).mov,0,72,72,97,,,,,,,,10:24:24:759,10:24:25:524,10:24:28:508,right,10:24:28:925,2018_Jun_06_0945,59.9334844749,MP-Perception Experiment,xx11m26,
392,training(20).mov,True,right,2,vgpdm_dyn(35)-lvm(25)_final(7).mov,0,73,73,45,,,,,,,,10:24:29:675,10:24:30:442,10:24:33:428,right,10:24:33:812,2018_Jun_06_0945,59.9334844749,MP-Perception Experiment,xx11m26,
393,vcgpdm_dyn(30)-lvm(5)_final(3).mov,True,left,2,training(21).mov,0,74,74,4,,,,,,,,10:24:34:579,10:24:35:313,10:24:38:316,left,10:24:38:434,2018_Jun_06_0945,59.9334844749,MP-Perception Experiment,xx11m26,
394,training(12).mov,False,right,2,vgpdm_dyn(10)-lvm(5)_final(1).mov,0,75,75,43,,,,,,,,10:24:39:221,10:24:39:952,10:24:42:939,left,10:24:43:372,2018_Jun_06_0945,59.9334844749,MP-Perception Experiment,xx11m26,
395,vcgpdm_dyn(5)-lvm(20)_final(8).mov,True,left,2,training(13).mov,0,76,76,125,,,,,,,,10:24:44:125,10:24:44:874,10:24:47:876,left,10:24:48:243,2018_Jun_06_0945,59.9334844749,MP-Perception Experiment,xx11m26,
396,vgpdm_dyn(35)-lvm(10)_final(0).mov,True,left,2,training(29).mov,0,77,77,68,,,,,,,,10:24:49:003,10:24:49:744,10:24:52:747,left,10:24:53:281,2018_Jun_06_0945,59.9334844749,MP-Perception Experiment,xx11m26,
397,dmp_npsi(45)_final(0).mov,False,left,2,training(5).mov,0,78,78,62,,,,,,,,10:24:54:032,10:24:54:782,10:24:57:784,left,10:25:00:521,2018_Jun_06_0945,59.9334844749,MP-Perception Experiment,xx11m26,
398,vgpdm_dyn(20)-lvm(35)_final(6).mov,False,left,2,training(37).mov,0,79,79,16,,,,,,,,10:25:01:456,10:25:02:022,10:25:05:024,left,10:25:05:875,2018_Jun_06_0945,59.9334844749,MP-Perception Experiment,xx11m26,
399,vgpdm_dyn(15)-lvm(30)_final(6).mov,True,left,2,training(8).mov,0,80,80,144,,,,,,,,10:25:06:662,10:25:07:376,10:25:10:379,left,10:25:10:646,2018_Jun_06_0945,59.9334844749,MP-Perception Experiment,xx11m26,
400,training(8).mov,False,right,2,dmp_npsi(25)_final(8).mov,0,81,81,150,,,,,,,,10:25:11:391,10:25:12:147,10:25:15:149,right,10:25:15:566,2018_Jun_06_0945,59.9334844749,MP-Perception Experiment,xx11m26,
401,training(32).mov,True,right,2,vcgpdm_dyn(25)-lvm(35)_final(0).mov,0,82,82,56,,,,,,,,10:25:16:332,10:25:17:083,10:25:20:069,left,10:25:20:619,2018_Jun_06_0945,59.9334844749,MP-Perception Experiment,xx11m26,
402,vgpdm_dyn(35)-lvm(30)_final(2).mov,False,left,2,training(48).mov,0,83,83,126,,,,,,,,10:25:21:357,10:25:22:121,10:25:25:123,left,10:25:26:057,2018_Jun_06_0945,59.9334844749,MP-Perception Experiment,xx11m26,
403,vcgpdm_dyn(20)-lvm(25)_final(1).mov,True,left,2,training(38).mov,0,84,84,104,,,,,,,,10:25:26:813,10:25:27:558,10:25:30:546,right,10:25:32:598,2018_Jun_06_0945,59.9334844749,MP-Perception Experiment,xx11m26,
404,training(41).mov,False,right,2,map_gpdm_final(6).mov,0,85,85,36,,,,,,,,10:25:33:525,10:25:34:099,10:25:37:103,right,10:25:40:689,2018_Jun_06_0945,59.9334844749,MP-Perception Experiment,xx11m26,
405,vcgpdm_dyn(35)-lvm(25)_final(0).mov,False,left,2,training(21).mov,0,86,86,121,,,,,,,,10:25:41:435,10:25:42:190,10:25:45:209,left,10:25:45:759,2018_Jun_06_0945,59.9334844749,MP-Perception Experiment,xx11m26,
406,vgpdm_dyn(20)-lvm(5)_final(4).mov,False,left,2,training(37).mov,0,87,87,103,,,,,,,,10:25:46:510,10:25:47:260,10:25:50:280,left,10:25:50:797,2018_Jun_06_0945,59.9334844749,MP-Perception Experiment,xx11m26,
407,training(13).mov,False,right,2,dmp_npsi(35)_final(8).mov,0,88,88,50,,,,,,,,10:25:51:551,10:25:52:299,10:25:55:301,right,10:25:55:685,2018_Jun_06_0945,59.9334844749,MP-Perception Experiment,xx11m26,
408,vcgpdm_dyn(25)-lvm(30)_final(0).mov,False,left,2,training(31).mov,0,89,89,26,,,,,,,,10:25:56:440,10:25:57:203,10:26:00:205,left,10:26:00:906,2018_Jun_06_0945,59.9334844749,MP-Perception Experiment,xx11m26,
409,vgpdm_dyn(35)-lvm(10)_final(8).mov,False,left,2,training(19).mov,0,90,90,122,,,,,,,,10:26:01:672,10:26:02:407,10:26:05:409,right,10:26:05:726,2018_Jun_06_0945,59.9334844749,MP-Perception Experiment,xx11m26,
410,vcgpdm_dyn(5)-lvm(30)_final(9)_bad.mov,True,left,2,training(37).mov,0,91,91,70,,,,,,,,10:26:06:499,10:26:07:242,10:26:10:229,left,10:26:10:580,2018_Jun_06_0945,59.9334844749,MP-Perception Experiment,xx11m26,
411,training(36).mov,False,right,2,vgpdm_dyn(35)-lvm(35)_final(0).mov,0,92,92,63,,,,,,,,10:26:11:342,10:26:12:081,10:26:15:083,right,10:26:16:568,2018_Jun_06_0945,59.9334844749,MP-Perception Experiment,xx11m26,
412,training(5).mov,False,right,2,vgpdm_dyn(30)-lvm(25)_final(0).mov,0,93,93,72,,,,,,,,10:26:17:314,10:26:18:069,10:26:21:056,right,10:26:21:607,2018_Jun_06_0945,59.9334844749,MP-Perception Experiment,xx11m26,
413,training(10).mov,False,right,2,vgpdm_dyn(10)-lvm(20)_final(0).mov,0,94,94,28,,,,,,,,10:26:22:379,10:26:23:125,10:26:26:127,right,10:26:28:080,2018_Jun_06_0945,59.9334844749,MP-Perception Experiment,xx11m26,
414,training(12).mov,True,right,2,vcgpdm_dyn(25)-lvm(20)_final(0).mov,0,95,95,71,,,,,,,,10:26:29:024,10:26:29:581,10:26:32:583,left,10:26:33:034,2018_Jun_06_0945,59.9334844749,MP-Perception Experiment,xx11m26,
415,training(9).mov,False,right,2,tmp_numprim(7)_final(2).mov,0,96,96,117,,,,,,,,10:26:33:799,10:26:34:535,10:26:37:554,right,10:26:37:955,2018_Jun_06_0945,59.9334844749,MP-Perception Experiment,xx11m26,
416,vcgpdm_dyn(25)-lvm(25)_final(2).mov,False,left,2,training(2).mov,0,97,97,94,,,,,,,,10:26:38:707,10:26:39:472,10:26:42:458,right,10:26:43:342,2018_Jun_06_0945,59.9334844749,MP-Perception Experiment,xx11m26,
417,vgpdm_dyn(20)-lvm(30)_final(7).mov,False,left,2,training(3).mov,0,98,98,86,,,,,,,,10:26:44:102,10:26:44:844,10:26:47:847,right,10:26:48:447,2018_Jun_06_0945,59.9334844749,MP-Perception Experiment,xx11m26,
418,vcgpdm_dyn(20)-lvm(25)_final(0).mov,True,left,2,training(33).mov,0,99,99,107,,,,,,,,10:26:49:375,10:26:49:948,10:26:52:951,left,10:26:53:234,2018_Jun_06_0945,59.9334844749,MP-Perception Experiment,xx11m26,
419,training(8).mov,False,right,2,vgpdm_dyn(15)-lvm(30)_final(9).mov,0,100,100,142,,,,,,,,10:26:53:994,10:26:54:752,10:26:57:736,right,10:26:58:103,2018_Jun_06_0945,59.9334844749,MP-Perception Experiment,xx11m26,
420,dmp_npsi(35)_final(6).mov,False,left,2,training(31).mov,0,101,101,51,,,,,,,,10:26:58:855,10:26:59:608,10:27:02:608,right,10:27:02:908,2018_Jun_06_0945,59.9334844749,MP-Perception Experiment,xx11m26,
421,training(16).mov,False,right,2,vcgpdm_dyn(5)-lvm(20)_final(1).mov,0,102,102,30,,,,,,,,10:27:03:681,10:27:04:409,10:27:07:412,right,10:27:07:895,2018_Jun_06_0945,59.9334844749,MP-Perception Experiment,xx11m26,
422,training(0).mov,True,right,2,vcgpdm_dyn(35)-lvm(15)_final(6)_out_of_screen.mov,0,103,103,10,,,,,,,,10:27:08:663,10:27:09:398,10:27:12:401,right,10:27:12:784,2018_Jun_06_0945,59.9334844749,MP-Perception Experiment,xx11m26,
423,training(4).mov,True,right,2,map_cgpdm_final(3).mov,0,104,104,90,,,,,,,,10:27:13:532,10:27:14:286,10:27:17:288,right,10:27:17:872,2018_Jun_06_0945,59.9334844749,MP-Perception Experiment,xx11m26,
424,training(26).mov,False,right,2,dmp_npsi(25)_final(9).mov,0,105,105,12,,,,,,,,10:27:18:624,10:27:19:374,10:27:22:376,right,10:27:22:744,2018_Jun_06_0945,59.9334844749,MP-Perception Experiment,xx11m26,
425,training(8).mov,True,right,2,vcgpdm_dyn(15)-lvm(10)_final(4).mov,0,106,106,32,,,,,,,,10:27:23:509,10:27:24:245,10:27:27:247,right,10:27:27:581,2018_Jun_06_0945,59.9334844749,MP-Perception Experiment,xx11m26,
426,training(18).mov,False,right,2,vgpdm_dyn(30)-lvm(30)_final(4).mov,0,107,107,58,,,,,,,,10:27:28:347,10:27:29:082,10:27:32:084,right,10:27:32:435,2018_Jun_06_0945,59.9334844749,MP-Perception Experiment,xx11m26,
427,vgpdm_dyn(30)-lvm(25)_final(2).mov,True,left,2,training(26).mov,0,108,108,78,,,,,,,,10:27:33:181,10:27:33:952,10:27:36:956,left,10:27:37:456,2018_Jun_06_0945,59.9334844749,MP-Perception Experiment,xx11m26,
428,training(35).mov,True,right,2,vcgpdm_dyn(25)-lvm(25)_final(2).mov,0,109,109,119,,,,,,,,10:27:38:233,10:27:38:957,10:27:41:977,left,10:27:42:377,2018_Jun_06_0945,59.9334844749,MP-Perception Experiment,xx11m26,
429,vcgpdm_dyn(25)-lvm(15)_final(2).mov,True,left,2,training(7).mov,0,110,110,147,,,,,,,,10:27:43:127,10:27:43:878,10:27:46:881,right,10:27:47:963,2018_Jun_06_0945,59.9334844749,MP-Perception Experiment,xx11m26,
430,training(10).mov,True,right,2,vcgpdm_dyn(30)-lvm(20)_final(4).mov,0,111,111,69,,,,,,,,10:27:48:710,10:27:49:464,10:27:52:467,right,10:27:52:884,2018_Jun_06_0945,59.9334844749,MP-Perception Experiment,xx11m26,
431,training(21).mov,True,right,2,vcgpdm_dyn(30)-lvm(10)_final(3).mov,0,112,112,82,,,,,,,,10:27:53:640,10:27:54:386,10:27:57:388,right,10:27:57:755,2018_Jun_06_0945,59.9334844749,MP-Perception Experiment,xx11m26,
432,vgpdm_dyn(35)-lvm(25)_final(0).mov,True,left,2,training(31).mov,0,113,113,141,,,,,,,,10:27:58:914,10:27:59:425,10:28:02:244,left,10:28:02:761,2018_Jun_06_0945,59.9334844749,MP-Perception Experiment,xx11m26,
433,vgpdm_dyn(20)-lvm(20)_final(3).mov,True,left,2,training(18).mov,0,114,114,38,,,,,,,,10:28:03:511,10:28:04:262,10:28:07:265,left,10:28:07:665,2018_Jun_06_0945,59.9334844749,MP-Perception Experiment,xx11m26,
434,training(23).mov,False,right,2,vcgpdm_dyn(30)-lvm(5)_final(9).mov,0,115,115,87,,,,,,,,10:28:08:417,10:28:09:166,10:28:12:186,right,10:28:15:105,2018_Jun_06_0945,59.9334844749,MP-Perception Experiment,xx11m26,
435,vgpdm_dyn(10)-lvm(20)_final(7).mov,True,left,2,training(14).mov,0,116,116,116,,,,,,,,10:28:16:034,10:28:16:607,10:28:19:609,right,10:28:20:460,2018_Jun_06_0945,59.9334844749,MP-Perception Experiment,xx11m26,
436,training(21).mov,False,right,2,dmp_npsi(5)_final(3)_bad.mov,0,117,117,21,,,,,,,,10:28:21:233,10:28:21:961,10:28:24:980,right,10:28:25:547,2018_Jun_06_0945,59.9334844749,MP-Perception Experiment,xx11m26,
437,vgpdm_dyn(30)-lvm(10)_final(1).mov,False,left,2,training(41).mov,0,118,118,49,,,,,,,,10:28:26:305,10:28:27:048,10:28:30:052,right,10:28:30:736,2018_Jun_06_0945,59.9334844749,MP-Perception Experiment,xx11m26,
438,training(19).mov,True,right,2,vcgpdm_dyn(20)-lvm(15)_final(7).mov,0,119,119,156,,,,,,,,10:28:31:673,10:28:32:253,10:28:35:239,right,10:28:35:640,2018_Jun_06_0945,59.9334844749,MP-Perception Experiment,xx11m26,
439,training(37).mov,False,right,2,vcgpdm_dyn(30)-lvm(20)_final(9).mov,0,120,120,157,,,,,,,,10:28:36:397,10:28:37:156,10:28:40:141,left,10:28:40:675,2018_Jun_06_0945,59.9334844749,MP-Perception Experiment,xx11m26,
440,training(34).mov,True,right,2,vcgpdm_dyn(35)-lvm(25)_final(7).mov,0,121,121,111,,,,,,,,10:28:41:425,10:28:42:177,10:28:45:179,right,10:28:45:713,2018_Jun_06_0945,59.9334844749,MP-Perception Experiment,xx11m26,
441,training(20).mov,True,right,2,vcgpdm_dyn(25)-lvm(30)_final(2).mov,0,122,122,152,,,,,,,,10:28:46:472,10:28:47:215,10:28:50:202,right,10:28:51:804,2018_Jun_06_0945,59.9334844749,MP-Perception Experiment,xx11m26,
442,vcgpdm_dyn(25)-lvm(25)_final(7).mov,True,left,2,training(3).mov,0,123,123,8,,,,,,,,10:28:52:555,10:28:53:305,10:28:56:307,left,10:28:56:791,2018_Jun_06_0945,59.9334844749,MP-Perception Experiment,xx11m26,
443,vgpdm_dyn(25)-lvm(20)_final(5).mov,False,left,2,training(35).mov,0,124,124,64,,,,,,,,10:28:57:555,10:28:58:292,10:29:01:295,left,10:29:01:678,2018_Jun_06_0945,59.9334844749,MP-Perception Experiment,xx11m26,
444,training(41).mov,False,right,2,dmp_npsi(20)_final(8).mov,0,125,125,44,,,,,,,,10:29:02:434,10:29:03:179,10:29:06:183,right,10:29:08:752,2018_Jun_06_0945,59.9334844749,MP-Perception Experiment,xx11m26,
445,vgpdm_dyn(30)-lvm(20)_final(4).mov,True,left,2,training(38).mov,0,126,126,1,,,,,,,,10:29:09:687,10:29:10:253,10:29:13:255,left,10:29:13:639,2018_Jun_06_0945,59.9334844749,MP-Perception Experiment,xx11m26,
446,vgpdm_dyn(20)-lvm(35)_final(9).mov,False,left,2,training(20).mov,0,127,127,53,,,,,,,,10:29:14:421,10:29:15:140,10:29:18:142,left,10:29:18:493,2018_Jun_06_0945,59.9334844749,MP-Perception Experiment,xx11m26,
447,training(3).mov,True,right,2,vcgpdm_dyn(10)-lvm(30)_final(0).mov,0,128,128,15,,,,,,,,10:29:19:246,10:29:19:994,10:29:22:997,right,10:29:23:415,2018_Jun_06_0945,59.9334844749,MP-Perception Experiment,xx11m26,
448,vgpdm_dyn(15)-lvm(30)_final(7).mov,True,left,2,training(22).mov,0,129,129,158,,,,,,,,10:29:24:172,10:29:24:916,10:29:27:933,left,10:29:28:250,2018_Jun_06_0945,59.9334844749,MP-Perception Experiment,xx11m26,
449,training(41).mov,True,right,2,vgpdm_dyn(15)-lvm(25)_final(8).mov,0,130,130,112,,,,,,,,10:29:29:007,10:29:29:751,10:29:32:754,left,10:29:32:854,2018_Jun_06_0945,59.9334844749,MP-Perception Experiment,xx11m26,
450,training(2).mov,True,right,2,vgpdm_dyn(10)-lvm(25)_final(6).mov,0,131,131,40,,,,,,,,10:29:33:649,10:29:34:355,10:29:37:357,right,10:29:39:010,2018_Jun_06_0945,59.9334844749,MP-Perception Experiment,xx11m26,
451,vcgpdm_dyn(15)-lvm(5)_final(9).mov,True,left,2,training(2).mov,0,132,132,93,,,,,,,,10:29:39:945,10:29:40:511,10:29:43:498,left,10:29:44:016,2018_Jun_06_0945,59.9334844749,MP-Perception Experiment,xx11m26,
452,vcgpdm_dyn(20)-lvm(10)_final(2).mov,True,left,2,training(25).mov,0,133,133,61,,,,,,,,10:29:44:771,10:29:45:517,10:29:48:519,left,10:29:49:103,2018_Jun_06_0945,59.9334844749,MP-Perception Experiment,xx11m26,
453,training(26).mov,True,right,2,tmp_numprim(7)_final(6).mov,0,134,134,79,,,,,,,,10:29:49:845,10:29:50:621,10:29:53:606,left,10:29:53:940,2018_Jun_06_0945,59.9334844749,MP-Perception Experiment,xx11m26,
454,vgpdm_dyn(5)-lvm(15)_final(0).mov,True,left,2,training(19).mov,0,135,135,102,,,,,,,,10:29:54:698,10:29:55:441,10:29:58:445,left,10:29:58:995,2018_Jun_06_0945,59.9334844749,MP-Perception Experiment,xx11m26,
455,training(24).mov,True,right,2,vcgpdm_dyn(20)-lvm(35)_final(5).mov,0,136,136,47,,,,,,,,10:29:59:765,10:30:00:513,10:30:03:499,left,10:30:04:266,2018_Jun_06_0945,59.9334844749,MP-Perception Experiment,xx11m26,
456,training(19).mov,False,right,2,vgpdm_dyn(20)-lvm(15)_final(2).mov,0,137,137,133,,,,,,,,10:30:05:021,10:30:05:767,10:30:08:770,right,10:30:12:907,2018_Jun_06_0945,59.9334844749,MP-Perception Experiment,xx11m26,
457,tmp_numprim(8)_final(4).mov,False,left,2,training(27).mov,0,138,138,124,,,,,,,,10:30:13:658,10:30:14:409,10:30:17:409,left,10:30:22:213,2018_Jun_06_0945,59.9334844749,MP-Perception Experiment,xx11m26,
458,vcgpdm_dyn(25)-lvm(25)_final(3).mov,False,left,2,training(36).mov,0,139,139,54,,,,,,,,10:30:22:969,10:30:23:714,10:30:26:717,right,10:30:27:217,2018_Jun_06_0945,59.9334844749,MP-Perception Experiment,xx11m26,
459,vgpdm_dyn(20)-lvm(30)_final(9).mov,True,left,2,training(5).mov,0,140,140,118,,,,,,,,10:30:27:968,10:30:28:720,10:30:31:724,left,10:30:32:041,2018_Jun_06_0945,59.9334844749,MP-Perception Experiment,xx11m26,
460,training(37).mov,False,right,2,map_cgpdm_final(4).mov,0,141,141,139,,,,,,,,10:30:32:787,10:30:33:542,10:30:36:561,right,10:30:37:629,2018_Jun_06_0945,59.9334844749,MP-Perception Experiment,xx11m26,
461,training(12).mov,False,right,2,tmp_numprim(6)_final(7).mov,0,142,142,153,,,,,,,,10:30:38:378,10:30:39:130,10:30:42:132,right,10:30:42:499,2018_Jun_06_0945,59.9334844749,MP-Perception Experiment,xx11m26,
462,vcgpdm_dyn(5)-lvm(25)_final(0).mov,False,left,2,training(8).mov,0,143,143,41,,,,,,,,10:30:43:248,10:30:44:000,10:30:47:002,left,10:30:47:704,2018_Jun_06_0945,59.9334844749,MP-Perception Experiment,xx11m26,
463,training(2).mov,False,right,2,vgpdm_dyn(35)-lvm(5)_final(2).mov,0,144,144,35,,,,,,,,10:30:48:476,10:30:49:205,10:30:52:224,right,10:30:54:893,2018_Jun_06_0945,59.9334844749,MP-Perception Experiment,xx11m26,
464,training(17).mov,True,right,2,vcgpdm_dyn(35)-lvm(30)_final(4).mov,0,145,145,105,,,,,,,,10:30:55:639,10:30:56:394,10:30:59:397,right,10:30:59:681,2018_Jun_06_0945,59.9334844749,MP-Perception Experiment,xx11m26,
465,training(25).mov,False,right,2,vgpdm_dyn(35)-lvm(5)_final(1).mov,0,146,146,129,,,,,,,,10:31:00:429,10:31:01:199,10:31:04:201,left,10:31:05:285,2018_Jun_06_0945,59.9334844749,MP-Perception Experiment,xx11m26,
466,training(11).mov,False,right,2,vgpdm_dyn(15)-lvm(5)_final(7).mov,0,147,147,110,,,,,,,,10:31:06:220,10:31:06:804,10:31:09:788,left,10:31:10:288,2018_Jun_06_0945,59.9334844749,MP-Perception Experiment,xx11m26,
467,vcgpdm_dyn(15)-lvm(20)_final(9).mov,True,left,2,training(41).mov,0,148,148,115,,,,,,,,10:31:11:248,10:31:11:790,10:31:14:792,left,10:31:15:359,2018_Jun_06_0945,59.9334844749,MP-Perception Experiment,xx11m26,
468,dmp_npsi(35)_final(0).mov,False,left,2,training(24).mov,0,149,149,73,,,,,,,,10:31:16:129,10:31:16:860,10:31:19:863,left,10:31:20:497,2018_Jun_06_0945,59.9334844749,MP-Perception Experiment,xx11m26,
469,training(11).mov,True,right,2,map_cgpdm_final(8).mov,0,150,150,7,,,,,,,,10:31:21:254,10:31:21:999,10:31:24:986,right,10:31:25:904,2018_Jun_06_0945,59.9334844749,MP-Perception Experiment,xx11m26,
470,training(14).mov,False,right,2,vgpdm_dyn(10)-lvm(35)_final(6).mov,0,151,151,3,,,,,,,,10:31:26:661,10:31:27:405,10:31:30:407,right,10:31:30:708,2018_Jun_06_0945,59.9334844749,MP-Perception Experiment,xx11m26,
471,training(24).mov,True,right,2,dmp_npsi(20)_final(0).mov,0,152,152,75,,,,,,,,10:31:31:460,10:31:32:225,10:31:35:211,right,10:31:35:628,2018_Jun_06_0945,59.9334844749,MP-Perception Experiment,xx11m26,
472,training(15).mov,True,right,2,vcgpdm_dyn(20)-lvm(15)_final(4).mov,0,153,153,46,,,,,,,,10:31:36:387,10:31:37:129,10:31:40:132,right,10:31:40:599,2018_Jun_06_0945,59.9334844749,MP-Perception Experiment,xx11m26,
473,vgpdm_dyn(15)-lvm(5)_final(9).mov,False,left,2,training(23).mov,0,154,154,27,,,,,,,,10:31:41:536,10:31:42:118,10:31:45:104,right,10:31:45:471,2018_Jun_06_0945,59.9334844749,MP-Perception Experiment,xx11m26,
474,training(8).mov,False,right,2,tmp_numprim(10)_final(1).mov,0,155,155,132,,,,,,,,10:31:46:243,10:31:46:972,10:31:49:991,right,10:31:50:575,2018_Jun_06_0945,59.9334844749,MP-Perception Experiment,xx11m26,
475,vcgpdm_dyn(15)-lvm(20)_final(1).mov,True,left,2,training(21).mov,0,156,156,135,,,,,,,,10:31:51:498,10:31:52:076,10:31:55:078,left,10:31:55:495,2018_Jun_06_0945,59.9334844749,MP-Perception Experiment,xx11m26,
476,vcgpdm_dyn(5)-lvm(15)_final(8).mov,False,left,2,training(7).mov,0,157,157,52,,,,,,,,10:31:56:255,10:31:57:013,10:31:59:998,left,10:32:00:849,2018_Jun_06_0945,59.9334844749,MP-Perception Experiment,xx11m26,
