trial_number,right,flipped,correct,block,left,trials.thisRepN,trials.thisTrialN,trials.thisN,trials.thisIndex,flipwelcome.keys,flipwelcome.corr,flipwelcome.rt,flippreparations.keys,flippreparations.rt,flipInstructions.keys,flipInstructions.rt,time_at_fixation_cross_onset,time_at_videoonset,time_at_videoend,participant_key_response,time_at_key_response,key_resp_4.keys,key_resp_4.rt,date,frameRate,expName,participant,
,,,,,,,,,,space,0,30.8446069569,,,,,,,,,,,,2018_Jun_06_1139,59.8982021669,MP-Perception Experiment,xx12w20,
,,,,,,,,,,,,,space,17.7136711942,,,,,,,,,,2018_Jun_06_1139,59.8982021669,MP-Perception Experiment,xx12w20,
,,,,,,,,,,,,,,,space,10.7093032956,,,,,,,,2018_Jun_06_1139,59.8982021669,MP-Perception Experiment,xx12w20,
1,training(24).mov,False,right,0,vgpdm_dyn(30)-lvm(5)_final(5).mov,0,0,0,154,,,,,,,,11:40:29:938,11:40:29:939,11:40:32:793,right,11:40:33:577,,,2018_Jun_06_1139,59.8982021669,MP-Perception Experiment,xx12w20,
2,tmp_numprim(7)_final(4).mov,False,left,0,training(10).mov,0,1,1,13,,,,,,,,11:40:34:336,11:40:35:095,11:40:38:081,right,11:40:39:515,,,2018_Jun_06_1139,59.8982021669,MP-Perception Experiment,xx12w20,
3,vgpdm_dyn(15)-lvm(30)_final(0).mov,False,left,0,training(25).mov,0,2,2,118,,,,,,,,11:40:40:263,11:40:41:016,11:40:44:035,left,11:40:44:686,,,2018_Jun_06_1139,59.8982021669,MP-Perception Experiment,xx12w20,
4,training(10).mov,False,right,0,dmp_npsi(15)_final(4).mov,0,3,3,24,,,,,,,,11:40:45:441,11:40:46:187,11:40:49:207,right,11:40:49:841,,,2018_Jun_06_1139,59.8982021669,MP-Perception Experiment,xx12w20,
5,training(38).mov,True,right,0,vgpdm_dyn(20)-lvm(30)_final(2).mov,0,4,4,150,,,,,,,,11:40:50:599,11:40:51:342,11:40:54:345,right,11:40:55:029,,,2018_Jun_06_1139,59.8982021669,MP-Perception Experiment,xx12w20,
6,training(8).mov,True,right,0,vcgpdm_dyn(20)-lvm(10)_final(1).mov,0,5,5,7,,,,,,,,11:40:55:786,11:40:56:547,11:40:59:532,left,11:41:00:050,,,2018_Jun_06_1139,59.8982021669,MP-Perception Experiment,xx12w20,
7,vcgpdm_dyn(10)-lvm(10)_final(8).mov,True,left,0,training(1).mov,0,6,6,140,,,,,,,,11:41:00:810,11:41:01:551,11:41:04:570,left,11:41:05:104,,,2018_Jun_06_1139,59.8982021669,MP-Perception Experiment,xx12w20,
8,dmp_npsi(40)_final(9).mov,True,left,0,training(2).mov,0,7,7,12,,,,,,,,11:41:05:875,11:41:06:606,11:41:09:606,left,11:41:10:174,,,2018_Jun_06_1139,59.8982021669,MP-Perception Experiment,xx12w20,
9,training(41).mov,False,right,0,vcgpdm_dyn(15)-lvm(35)_final(9).mov,0,8,8,145,,,,,,,,11:41:10:940,11:41:11:691,11:41:14:677,right,11:41:15:311,,,2018_Jun_06_1139,59.8982021669,MP-Perception Experiment,xx12w20,
10,tmp_numprim(5)_final(5).mov,False,left,0,training(3).mov,0,9,9,69,,,,,,,,11:41:16:066,11:41:16:812,11:41:19:817,right,11:41:20:500,,,2018_Jun_06_1139,59.8982021669,MP-Perception Experiment,xx12w20,
11,training(29).mov,True,right,0,vcgpdm_dyn(30)-lvm(15)_final(0).mov,0,10,10,127,,,,,,,,11:41:21:252,11:41:22:001,11:41:25:005,left,11:41:25:522,,,2018_Jun_06_1139,59.8982021669,MP-Perception Experiment,xx12w20,
12,vcgpdm_dyn(25)-lvm(5)_final(1).mov,False,left,0,training(41).mov,0,11,11,29,,,,,,,,11:41:26:277,11:41:27:040,11:41:30:042,right,11:41:30:527,,,2018_Jun_06_1139,59.8982021669,MP-Perception Experiment,xx12w20,
13,vgpdm_dyn(20)-lvm(35)_final(0).mov,False,left,0,training(4).mov,0,12,12,78,,,,,,,,11:41:31:288,11:41:32:044,11:41:35:063,right,11:41:35:580,,,2018_Jun_06_1139,59.8982021669,MP-Perception Experiment,xx12w20,
14,training(31).mov,True,right,0,vgpdm_dyn(10)-lvm(35)_final(2).mov,0,13,13,86,,,,,,,,11:41:36:334,11:41:37:081,11:41:40:084,right,11:41:40:618,,,2018_Jun_06_1139,59.8982021669,MP-Perception Experiment,xx12w20,
15,training(15).mov,False,right,0,vcgpdm_dyn(15)-lvm(10)_final(9).mov,0,14,14,58,,,,,,,,11:41:41:383,11:41:42:120,11:41:45:122,right,11:41:45:773,,,2018_Jun_06_1139,59.8982021669,MP-Perception Experiment,xx12w20,
16,training(14).mov,True,right,0,vgpdm_dyn(5)-lvm(15)_final(9).mov,0,15,15,112,,,,,,,,11:41:46:535,11:41:47:274,11:41:50:293,right,11:41:50:894,,,2018_Jun_06_1139,59.8982021669,MP-Perception Experiment,xx12w20,
17,vgpdm_dyn(5)-lvm(30)_final(7).mov,False,left,0,training(30).mov,0,16,16,153,,,,,,,,11:41:51:663,11:41:52:411,11:41:55:414,left,11:41:56:031,,,2018_Jun_06_1139,59.8982021669,MP-Perception Experiment,xx12w20,
18,map_gpdm_final(6).mov,False,left,0,training(28).mov,0,17,17,67,,,,,,,,11:41:56:782,11:41:57:532,11:42:00:534,left,11:42:00:951,,,2018_Jun_06_1139,59.8982021669,MP-Perception Experiment,xx12w20,
19,training(13).mov,True,right,0,vcgpdm_dyn(20)-lvm(30)_final(5).mov,0,18,18,5,,,,,,,,11:42:01:754,11:42:02:469,11:42:05:455,right,11:42:05:905,,,2018_Jun_06_1139,59.8982021669,MP-Perception Experiment,xx12w20,
20,training(32).mov,True,right,0,vgpdm_dyn(25)-lvm(5)_final(6).mov,0,19,19,64,,,,,,,,11:42:06:666,11:42:07:406,11:42:10:409,right,11:42:10:775,,,2018_Jun_06_1139,59.8982021669,MP-Perception Experiment,xx12w20,
21,vcgpdm_dyn(35)-lvm(25)_final(1).mov,False,left,0,training(17).mov,0,20,20,138,,,,,,,,11:42:11:541,11:42:12:278,11:42:15:264,left,11:42:15:832,,,2018_Jun_06_1139,59.8982021669,MP-Perception Experiment,xx12w20,
22,vgpdm_dyn(5)-lvm(5)_final(6)_out_of_screen.mov,False,left,0,training(48).mov,0,21,21,149,,,,,,,,11:42:16:586,11:42:17:333,11:42:20:336,right,11:42:20:870,,,2018_Jun_06_1139,59.8982021669,MP-Perception Experiment,xx12w20,
23,training(34).mov,True,right,0,tmp_numprim(10)_final(8).mov,0,22,22,42,,,,,,,,11:42:21:667,11:42:22:371,11:42:25:373,left,11:42:26:407,,,2018_Jun_06_1139,59.8982021669,MP-Perception Experiment,xx12w20,
24,vcgpdm_dyn(35)-lvm(25)_final(3).mov,False,left,0,training(3).mov,0,23,23,98,,,,,,,,11:42:27:152,11:42:27:909,11:42:30:911,left,11:42:31:545,,,2018_Jun_06_1139,59.8982021669,MP-Perception Experiment,xx12w20,
25,training(48).mov,False,right,0,tmp_numprim(5)_final(2).mov,0,24,24,136,,,,,,,,11:42:32:295,11:42:33:063,11:42:36:066,right,11:42:36:483,,,2018_Jun_06_1139,59.8982021669,MP-Perception Experiment,xx12w20,
26,vcgpdm_dyn(5)-lvm(5)_final(3).mov,False,left,0,training(23).mov,0,25,25,123,,,,,,,,11:42:37:272,11:42:37:984,11:42:40:987,right,11:42:41:487,,,2018_Jun_06_1139,59.8982021669,MP-Perception Experiment,xx12w20,
27,training(12).mov,True,right,0,vcgpdm_dyn(20)-lvm(15)_final(8).mov,0,26,26,89,,,,,,,,11:42:42:248,11:42:42:988,11:42:45:991,left,11:42:46:541,,,2018_Jun_06_1139,59.8982021669,MP-Perception Experiment,xx12w20,
28,vcgpdm_dyn(15)-lvm(25)_final(8).mov,True,left,0,training(41).mov,0,27,27,107,,,,,,,,11:42:47:300,11:42:48:057,11:42:51:044,left,11:42:51:511,,,2018_Jun_06_1139,59.8982021669,MP-Perception Experiment,xx12w20,
29,training(19).mov,False,right,0,vgpdm_dyn(15)-lvm(5)_final(2).mov,0,28,28,128,,,,,,,,11:42:52:269,11:42:53:012,11:42:56:015,right,11:42:56:415,,,2018_Jun_06_1139,59.8982021669,MP-Perception Experiment,xx12w20,
30,training(1).mov,True,right,0,vgpdm_dyn(10)-lvm(30)_final(8).mov,0,29,29,18,,,,,,,,11:42:57:170,11:42:57:933,11:43:00:904,right,11:43:01:271,,,2018_Jun_06_1139,59.8982021669,MP-Perception Experiment,xx12w20,
31,training(28).mov,True,right,0,vgpdm_dyn(35)-lvm(30)_final(9).mov,0,30,30,32,,,,,,,,11:43:02:028,11:43:02:772,11:43:05:775,left,11:43:06:192,,,2018_Jun_06_1139,59.8982021669,MP-Perception Experiment,xx12w20,
32,training(3).mov,True,right,0,vgpdm_dyn(20)-lvm(30)_final(2).mov,0,31,31,47,,,,,,,,11:43:06:938,11:43:07:693,11:43:10:713,left,11:43:11:213,,,2018_Jun_06_1139,59.8982021669,MP-Perception Experiment,xx12w20,
33,training(9).mov,False,right,0,tmp_numprim(4)_final(0).mov,0,32,32,51,,,,,,,,11:43:11:967,11:43:12:715,11:43:15:717,right,11:43:16:084,,,2018_Jun_06_1139,59.8982021669,MP-Perception Experiment,xx12w20,
34,training(15).mov,False,right,0,vgpdm_dyn(20)-lvm(5)_final(5).mov,0,33,33,97,,,,,,,,11:43:16:841,11:43:17:585,11:43:20:587,right,11:43:21:055,,,2018_Jun_06_1139,59.8982021669,MP-Perception Experiment,xx12w20,
35,vgpdm_dyn(10)-lvm(20)_final(2).mov,True,left,0,training(7).mov,0,34,34,114,,,,,,,,11:43:21:810,11:43:22:556,11:43:25:559,left,11:43:25:960,,,2018_Jun_06_1139,59.8982021669,MP-Perception Experiment,xx12w20,
36,vgpdm_dyn(35)-lvm(35)_final(2).mov,True,left,0,training(20).mov,0,35,35,33,,,,,,,,11:43:26:719,11:43:27:477,11:43:30:463,right,11:43:31:064,,,2018_Jun_06_1139,59.8982021669,MP-Perception Experiment,xx12w20,
37,training(37).mov,True,right,0,vgpdm_dyn(10)-lvm(5)_final(4).mov,0,36,36,61,,,,,,,,11:43:31:836,11:43:32:565,11:43:35:584,left,11:43:36:151,,,2018_Jun_06_1139,59.8982021669,MP-Perception Experiment,xx12w20,
38,training(5).mov,False,right,0,vgpdm_dyn(35)-lvm(10)_final(0).mov,0,37,37,157,,,,,,,,11:43:36:917,11:43:37:652,11:43:40:653,right,11:43:41:020,,,2018_Jun_06_1139,59.8982021669,MP-Perception Experiment,xx12w20,
39,training(27).mov,False,right,0,vcgpdm_dyn(30)-lvm(20)_final(1).mov,0,38,38,144,,,,,,,,11:43:41:798,11:43:42:521,11:43:45:525,left,11:43:45:892,,,2018_Jun_06_1139,59.8982021669,MP-Perception Experiment,xx12w20,
40,training(16).mov,True,right,0,vcgpdm_dyn(25)-lvm(30)_final(9).mov,0,39,39,10,,,,,,,,11:43:46:650,11:43:47:393,11:43:50:380,left,11:43:50:731,,,2018_Jun_06_1139,59.8982021669,MP-Perception Experiment,xx12w20,
41,vgpdm_dyn(25)-lvm(20)_final(0).mov,False,left,0,training(27).mov,0,40,40,130,,,,,,,,11:43:51:491,11:43:52:232,11:43:55:234,right,11:43:55:685,,,2018_Jun_06_1139,59.8982021669,MP-Perception Experiment,xx12w20,
42,training(13).mov,True,right,0,vcgpdm_dyn(10)-lvm(15)_final(4).mov,0,41,41,38,,,,,,,,11:43:56:442,11:43:57:186,11:44:00:188,right,11:44:00:673,,,2018_Jun_06_1139,59.8982021669,MP-Perception Experiment,xx12w20,
43,vgpdm_dyn(10)-lvm(20)_final(7).mov,False,left,0,training(32).mov,0,42,42,87,,,,,,,,11:44:01:435,11:44:02:174,11:44:05:176,right,11:44:05:677,,,2018_Jun_06_1139,59.8982021669,MP-Perception Experiment,xx12w20,
44,training(3).mov,False,right,0,dmp_npsi(40)_final(6).mov,0,43,43,155,,,,,,,,11:44:06:443,11:44:07:178,11:44:10:197,right,11:44:10:514,,,2018_Jun_06_1139,59.8982021669,MP-Perception Experiment,xx12w20,
45,training(36).mov,True,right,0,vcgpdm_dyn(15)-lvm(20)_final(0).mov,0,44,44,84,,,,,,,,11:44:11:262,11:44:12:015,11:44:15:018,left,11:44:15:085,,,2018_Jun_06_1139,59.8982021669,MP-Perception Experiment,xx12w20,
46,vcgpdm_dyn(10)-lvm(5)_final(0).mov,False,left,0,training(15).mov,0,45,45,131,,,,,,,,11:44:15:847,11:44:16:586,11:44:19:606,left,11:44:20:623,,,2018_Jun_06_1139,59.8982021669,MP-Perception Experiment,xx12w20,
47,vgpdm_dyn(30)-lvm(10)_final(5).mov,False,left,0,training(10).mov,0,46,46,53,,,,,,,,11:44:21:381,11:44:22:124,11:44:25:144,right,11:44:25:777,,,2018_Jun_06_1139,59.8982021669,MP-Perception Experiment,xx12w20,
48,tmp_numprim(4)_final(6).mov,False,left,0,training(29).mov,0,47,47,115,,,,,,,,11:44:26:529,11:44:27:279,11:44:30:279,left,11:44:30:663,,,2018_Jun_06_1139,59.8982021669,MP-Perception Experiment,xx12w20,
49,training(23).mov,True,right,0,vgpdm_dyn(30)-lvm(35)_final(8).mov,0,48,48,55,,,,,,,,11:44:31:428,11:44:32:164,11:44:35:167,left,11:44:35:968,,,2018_Jun_06_1139,59.8982021669,MP-Perception Experiment,xx12w20,
50,vgpdm_dyn(5)-lvm(15)_final(8).mov,False,left,0,training(7).mov,0,49,49,132,,,,,,,,11:44:36:719,11:44:37:469,11:44:40:472,left,11:44:40:822,,,2018_Jun_06_1139,59.8982021669,MP-Perception Experiment,xx12w20,
51,dmp_npsi(35)_final(0).mov,True,left,0,training(8).mov,0,50,50,50,,,,,,,,11:44:41:583,11:44:42:325,11:44:45:311,left,11:44:46:078,,,2018_Jun_06_1139,59.8982021669,MP-Perception Experiment,xx12w20,
52,training(7).mov,True,right,0,tmp_numprim(10)_final(8).mov,0,51,51,126,,,,,,,,11:44:46:832,11:44:47:596,11:44:50:648,right,11:44:51:049,,,2018_Jun_06_1139,59.8982021669,MP-Perception Experiment,xx12w20,
53,training(31).mov,True,right,0,vcgpdm_dyn(25)-lvm(15)_final(3).mov,0,52,52,102,,,,,,,,11:44:51:797,11:44:52:550,11:44:55:553,left,11:44:56:237,,,2018_Jun_06_1139,59.8982021669,MP-Perception Experiment,xx12w20,
54,training(6).mov,True,right,0,dmp_npsi(50)_final(4).mov,0,53,53,1,,,,,,,,11:44:56:987,11:44:57:739,11:45:00:741,left,11:45:01:292,,,2018_Jun_06_1139,59.8982021669,MP-Perception Experiment,xx12w20,
55,vcgpdm_dyn(10)-lvm(15)_final(6).mov,False,left,0,training(2).mov,0,54,54,59,,,,,,,,11:45:02:045,11:45:02:809,11:45:05:795,right,11:45:06:229,,,2018_Jun_06_1139,59.8982021669,MP-Perception Experiment,xx12w20,
56,training(11).mov,False,right,0,vgpdm_dyn(30)-lvm(25)_final(7).mov,0,55,55,122,,,,,,,,11:45:06:979,11:45:07:730,11:45:10:733,left,11:45:11:351,,,2018_Jun_06_1139,59.8982021669,MP-Perception Experiment,xx12w20,
57,vgpdm_dyn(35)-lvm(30)_final(3).mov,True,left,0,training(19).mov,0,56,56,76,,,,,,,,11:45:12:151,11:45:12:852,11:45:15:854,left,11:45:16:538,,,2018_Jun_06_1139,59.8982021669,MP-Perception Experiment,xx12w20,
58,training(27).mov,True,right,0,vgpdm_dyn(20)-lvm(20)_final(2).mov,0,57,57,74,,,,,,,,11:45:18:259,11:45:18:259,11:45:21:040,left,11:45:21:907,,,2018_Jun_06_1139,59.8982021669,MP-Perception Experiment,xx12w20,
59,vcgpdm_dyn(20)-lvm(5)_final(6).mov,True,left,0,training(20).mov,0,58,58,73,,,,,,,,11:45:22:674,11:45:23:409,11:45:26:411,left,11:45:26:962,,,2018_Jun_06_1139,59.8982021669,MP-Perception Experiment,xx12w20,
60,training(35).mov,False,right,0,vgpdm_dyn(20)-lvm(5)_final(9).mov,0,59,59,68,,,,,,,,11:45:27:720,11:45:28:464,11:45:31:451,right,11:45:32:052,,,2018_Jun_06_1139,59.8982021669,MP-Perception Experiment,xx12w20,
61,training(2).mov,False,right,0,dmp_npsi(20)_final(2).mov,0,60,60,75,,,,,,,,11:45:32:816,11:45:33:553,11:45:36:555,right,11:45:37:006,,,2018_Jun_06_1139,59.8982021669,MP-Perception Experiment,xx12w20,
62,training(36).mov,True,right,0,vgpdm_dyn(15)-lvm(25)_final(6).mov,0,61,61,82,,,,,,,,11:45:37:757,11:45:38:507,11:45:41:509,right,11:45:42:076,,,2018_Jun_06_1139,59.8982021669,MP-Perception Experiment,xx12w20,
63,training(24).mov,False,right,0,dmp_npsi(45)_final(7).mov,0,62,62,94,,,,,,,,11:45:42:848,11:45:43:594,11:45:46:581,right,11:45:47:065,,,2018_Jun_06_1139,59.8982021669,MP-Perception Experiment,xx12w20,
64,dmp_npsi(25)_final(9).mov,False,left,0,training(41).mov,0,63,63,52,,,,,,,,11:45:47:818,11:45:48:566,11:45:51:585,left,11:45:52:386,,,2018_Jun_06_1139,59.8982021669,MP-Perception Experiment,xx12w20,
65,training(13).mov,True,right,0,vcgpdm_dyn(35)-lvm(20)_final(9).mov,0,64,64,116,,,,,,,,11:45:53:140,11:45:53:904,11:45:56:889,right,11:45:57:490,,,2018_Jun_06_1139,59.8982021669,MP-Perception Experiment,xx12w20,
66,training(29).mov,False,right,0,vgpdm_dyn(35)-lvm(25)_final(7).mov,0,65,65,134,,,,,,,,11:45:58:242,11:45:58:991,11:46:01:993,right,11:46:02:677,,,2018_Jun_06_1139,59.8982021669,MP-Perception Experiment,xx12w20,
67,training(26).mov,False,right,0,vgpdm_dyn(30)-lvm(15)_final(2).mov,0,66,66,27,,,,,,,,11:46:03:440,11:46:04:196,11:46:07:182,left,11:46:07:783,,,2018_Jun_06_1139,59.8982021669,MP-Perception Experiment,xx12w20,
68,vcgpdm_dyn(5)-lvm(10)_final(6).mov,True,left,0,training(12).mov,0,67,67,121,,,,,,,,11:46:08:566,11:46:09:299,11:46:12:301,right,11:46:13:302,,,2018_Jun_06_1139,59.8982021669,MP-Perception Experiment,xx12w20,
69,training(14).mov,False,right,0,vcgpdm_dyn(30)-lvm(30)_final(5).mov,0,68,68,66,,,,,,,,11:46:14:060,11:46:14:803,11:46:17:806,right,11:46:18:189,,,2018_Jun_06_1139,59.8982021669,MP-Perception Experiment,xx12w20,
70,vgpdm_dyn(25)-lvm(5)_final(0).mov,False,left,0,training(35).mov,0,69,69,109,,,,,,,,11:46:18:957,11:46:19:690,11:46:22:679,right,11:46:23:396,,,2018_Jun_06_1139,59.8982021669,MP-Perception Experiment,xx12w20,
71,training(7).mov,False,right,0,tmp_numprim(8)_final(5).mov,0,70,70,35,,,,,,,,11:46:24:145,11:46:24:914,11:46:27:900,left,11:46:28:467,,,2018_Jun_06_1139,59.8982021669,MP-Perception Experiment,xx12w20,
72,training(21).mov,False,right,0,vcgpdm_dyn(20)-lvm(20)_final(2).mov,0,71,71,14,,,,,,,,11:46:29:221,11:46:29:968,11:46:32:971,right,11:46:33:454,,,2018_Jun_06_1139,59.8982021669,MP-Perception Experiment,xx12w20,
73,vcgpdm_dyn(35)-lvm(30)_final(4).mov,False,left,0,training(13).mov,0,72,72,21,,,,,,,,11:46:34:213,11:46:34:955,11:46:37:959,left,11:46:38:526,,,2018_Jun_06_1139,59.8982021669,MP-Perception Experiment,xx12w20,
74,training(3).mov,True,right,0,vcgpdm_dyn(35)-lvm(30)_final(8).mov,0,73,73,95,,,,,,,,11:46:39:288,11:46:40:027,11:46:43:029,right,11:46:43:697,,,2018_Jun_06_1139,59.8982021669,MP-Perception Experiment,xx12w20,
75,training(18).mov,False,right,0,dmp_npsi(20)_final(1).mov,0,74,74,158,,,,,,,,11:46:44:454,11:46:45:215,11:46:48:200,right,11:46:48:784,,,2018_Jun_06_1139,59.8982021669,MP-Perception Experiment,xx12w20,
76,training(17).mov,True,right,0,dmp_npsi(25)_final(3).mov,0,75,75,57,,,,,,,,11:46:49:552,11:46:50:285,11:46:53:288,right,11:46:53:872,,,2018_Jun_06_1139,59.8982021669,MP-Perception Experiment,xx12w20,
77,training(32).mov,False,right,0,vcgpdm_dyn(15)-lvm(30)_final(1).mov,0,76,76,9,,,,,,,,11:46:54:627,11:46:55:374,11:46:58:375,left,11:46:58:992,,,2018_Jun_06_1139,59.8982021669,MP-Perception Experiment,xx12w20,
78,vcgpdm_dyn(30)-lvm(5)_final(9).mov,False,left,0,training(11).mov,0,77,77,31,,,,,,,,11:46:59:757,11:47:00:493,11:47:03:495,right,11:47:03:896,,,2018_Jun_06_1139,59.8982021669,MP-Perception Experiment,xx12w20,
79,training(20).mov,False,right,0,vcgpdm_dyn(35)-lvm(5)_final(4).mov,0,78,78,111,,,,,,,,11:47:04:654,11:47:05:397,11:47:08:399,left,11:47:08:916,,,2018_Jun_06_1139,59.8982021669,MP-Perception Experiment,xx12w20,
80,tmp_numprim(3)_final(2).mov,True,left,0,training(10).mov,0,79,79,56,,,,,,,,11:47:09:672,11:47:10:418,11:47:13:406,left,11:47:13:873,,,2018_Jun_06_1139,59.8982021669,MP-Perception Experiment,xx12w20,
81,training(16).mov,False,right,0,vcgpdm_dyn(25)-lvm(5)_final(6).mov,0,80,80,70,,,,,,,,11:47:14:626,11:47:15:374,11:47:18:377,right,11:47:18:911,,,2018_Jun_06_1139,59.8982021669,MP-Perception Experiment,xx12w20,
82,vcgpdm_dyn(5)-lvm(35)_final(9)_bad.mov,True,left,0,training(41).mov,0,81,81,108,,,,,,,,11:47:19:658,11:47:20:428,11:47:23:431,left,11:47:24:065,,,2018_Jun_06_1139,59.8982021669,MP-Perception Experiment,xx12w20,
83,training(8).mov,False,right,0,vgpdm_dyn(25)-lvm(20)_final(2).mov,0,82,82,120,,,,,,,,11:47:24:820,11:47:25:566,11:47:28:568,left,11:47:29:102,,,2018_Jun_06_1139,59.8982021669,MP-Perception Experiment,xx12w20,
84,training(29).mov,True,right,0,vcgpdm_dyn(15)-lvm(10)_final(0).mov,0,83,83,103,,,,,,,,11:47:29:856,11:47:30:604,11:47:33:607,right,11:47:34:057,,,2018_Jun_06_1139,59.8982021669,MP-Perception Experiment,xx12w20,
85,training(10).mov,True,right,0,vgpdm_dyn(35)-lvm(30)_final(6).mov,0,84,84,0,,,,,,,,11:47:34:801,11:47:35:558,11:47:38:561,left,11:47:39:662,,,2018_Jun_06_1139,59.8982021669,MP-Perception Experiment,xx12w20,
86,training(33).mov,True,right,0,vgpdm_dyn(15)-lvm(25)_final(3).mov,0,85,85,92,,,,,,,,11:47:40:425,11:47:41:163,11:47:44:165,right,11:47:44:632,,,2018_Jun_06_1139,59.8982021669,MP-Perception Experiment,xx12w20,
87,training(8).mov,False,right,0,vcgpdm_dyn(15)-lvm(20)_final(6).mov,0,86,86,25,,,,,,,,11:47:45:384,11:47:46:150,11:47:49:135,right,11:47:49:669,,,2018_Jun_06_1139,59.8982021669,MP-Perception Experiment,xx12w20,
88,training(16).mov,True,right,0,vcgpdm_dyn(20)-lvm(20)_final(6).mov,0,87,87,30,,,,,,,,11:47:50:427,11:47:51:170,11:47:54:173,left,11:47:54:707,,,2018_Jun_06_1139,59.8982021669,MP-Perception Experiment,xx12w20,
89,training(14).mov,True,right,0,vcgpdm_dyn(25)-lvm(5)_final(6).mov,0,88,88,40,,,,,,,,11:47:55:468,11:47:56:208,11:47:59:210,right,11:47:59:811,,,2018_Jun_06_1139,59.8982021669,MP-Perception Experiment,xx12w20,
90,training(3).mov,True,right,0,map_cgpdm_final(0).mov,0,89,89,101,,,,,,,,11:48:00:568,11:48:01:313,11:48:04:316,right,11:48:05:351,,,2018_Jun_06_1139,59.8982021669,MP-Perception Experiment,xx12w20,
91,map_gpdm_final(4).mov,False,left,0,training(31).mov,0,90,90,99,,,,,,,,11:48:06:105,11:48:06:869,11:48:09:855,left,11:48:10:422,,,2018_Jun_06_1139,59.8982021669,MP-Perception Experiment,xx12w20,
92,vgpdm_dyn(20)-lvm(25)_final(9).mov,True,left,0,training(20).mov,0,91,91,37,,,,,,,,11:48:11:179,11:48:11:923,11:48:14:925,left,11:48:15:609,,,2018_Jun_06_1139,59.8982021669,MP-Perception Experiment,xx12w20,
93,training(3).mov,True,right,0,vgpdm_dyn(30)-lvm(5)_final(6).mov,0,92,92,19,,,,,,,,11:48:16:368,11:48:17:110,11:48:20:113,right,11:48:20:764,,,2018_Jun_06_1139,59.8982021669,MP-Perception Experiment,xx12w20,
94,vcgpdm_dyn(20)-lvm(25)_final(7).mov,False,left,0,training(25).mov,0,93,93,117,,,,,,,,11:48:21:526,11:48:22:265,11:48:25:268,right,11:48:25:819,,,2018_Jun_06_1139,59.8982021669,MP-Perception Experiment,xx12w20,
95,training(17).mov,False,right,0,tmp_numprim(6)_final(3).mov,0,94,94,152,,,,,,,,11:48:26:580,11:48:27:336,11:48:30:322,right,11:48:30:856,,,2018_Jun_06_1139,59.8982021669,MP-Perception Experiment,xx12w20,
96,vcgpdm_dyn(35)-lvm(10)_final(2).mov,False,left,0,training(22).mov,0,95,95,113,,,,,,,,11:48:31:626,11:48:32:374,11:48:35:360,right,11:48:36:077,,,2018_Jun_06_1139,59.8982021669,MP-Perception Experiment,xx12w20,
97,vgpdm_dyn(10)-lvm(25)_final(6).mov,True,left,0,training(22).mov,0,96,96,16,,,,,,,,11:48:36:840,11:48:37:578,11:48:40:580,left,11:48:41:230,,,2018_Jun_06_1139,59.8982021669,MP-Perception Experiment,xx12w20,
98,vcgpdm_dyn(5)-lvm(20)_final(0).mov,True,left,0,training(29).mov,0,97,97,54,,,,,,,,11:48:41:999,11:48:42:731,11:48:45:734,left,11:48:46:201,,,2018_Jun_06_1139,59.8982021669,MP-Perception Experiment,xx12w20,
99,training(4).mov,True,right,0,vgpdm_dyn(30)-lvm(25)_final(0).mov,0,98,98,41,,,,,,,,11:48:46:970,11:48:47:702,11:48:50:705,right,11:48:51:105,,,2018_Jun_06_1139,59.8982021669,MP-Perception Experiment,xx12w20,
100,vcgpdm_dyn(25)-lvm(10)_final(2).mov,False,left,0,training(39).mov,0,99,99,80,,,,,,,,11:48:51:866,11:48:52:606,11:48:55:593,right,11:48:56:177,,,2018_Jun_06_1139,59.8982021669,MP-Perception Experiment,xx12w20,
101,vgpdm_dyn(5)-lvm(30)_final(1).mov,False,left,0,training(14).mov,0,100,100,23,,,,,,,,11:48:56:948,11:48:57:679,11:49:00:682,left,11:49:01:166,,,2018_Jun_06_1139,59.8982021669,MP-Perception Experiment,xx12w20,
102,vgpdm_dyn(35)-lvm(30)_final(6).mov,False,left,0,training(15).mov,0,101,101,151,,,,,,,,11:49:01:923,11:49:02:667,11:49:05:669,right,11:49:06:253,,,2018_Jun_06_1139,59.8982021669,MP-Perception Experiment,xx12w20,
103,dmp_npsi(30)_final(1).mov,True,left,0,training(15).mov,0,102,102,72,,,,,,,,11:49:07:007,11:49:07:754,11:49:10:757,left,11:49:11:241,,,2018_Jun_06_1139,59.8982021669,MP-Perception Experiment,xx12w20,
104,map_gpdm_final(9).mov,True,left,0,training(14).mov,0,103,103,104,,,,,,,,11:49:11:995,11:49:12:742,11:49:15:745,left,11:49:16:229,,,2018_Jun_06_1139,59.8982021669,MP-Perception Experiment,xx12w20,
105,vcgpdm_dyn(35)-lvm(5)_final(1).mov,False,left,0,training(37).mov,0,104,104,43,,,,,,,,11:49:16:978,11:49:17:730,11:49:20:733,right,11:49:21:333,,,2018_Jun_06_1139,59.8982021669,MP-Perception Experiment,xx12w20,
106,vcgpdm_dyn(35)-lvm(30)_final(9).mov,True,left,0,training(23).mov,0,105,105,11,,,,,,,,11:49:22:105,11:49:22:834,11:49:25:837,left,11:49:26:387,,,2018_Jun_06_1139,59.8982021669,MP-Perception Experiment,xx12w20,
107,training(29).mov,True,right,0,vgpdm_dyn(20)-lvm(25)_final(9).mov,0,106,106,148,,,,,,,,11:49:27:137,11:49:27:888,11:49:30:889,left,11:49:31:640,,,2018_Jun_06_1139,59.8982021669,MP-Perception Experiment,xx12w20,
108,vgpdm_dyn(25)-lvm(15)_final(1)_out_of_screen.mov,False,left,0,training(10).mov,0,107,107,4,,,,,,,,11:49:32:390,11:49:33:142,11:49:36:144,left,11:49:37:179,,,2018_Jun_06_1139,59.8982021669,MP-Perception Experiment,xx12w20,
109,vcgpdm_dyn(25)-lvm(15)_final(1).mov,True,left,0,training(21).mov,0,108,108,119,,,,,,,,11:49:37:928,11:49:38:680,11:49:41:667,left,11:49:42:651,,,2018_Jun_06_1139,59.8982021669,MP-Perception Experiment,xx12w20,
110,training(15).mov,True,right,0,vgpdm_dyn(5)-lvm(20)_final(6).mov,0,109,109,65,,,,,,,,11:49:43:406,11:49:44:152,11:49:47:155,right,11:49:47:689,,,2018_Jun_06_1139,59.8982021669,MP-Perception Experiment,xx12w20,
111,training(1).mov,False,right,0,vgpdm_dyn(35)-lvm(35)_final(0).mov,0,110,110,34,,,,,,,,11:49:48:462,11:49:49:206,11:49:52:193,right,11:49:52:761,,,2018_Jun_06_1139,59.8982021669,MP-Perception Experiment,xx12w20,
112,dmp_npsi(45)_final(0).mov,False,left,0,training(17).mov,0,111,111,46,,,,,,,,11:49:53:509,11:49:54:262,11:49:57:281,left,11:49:57:715,,,2018_Jun_06_1139,59.8982021669,MP-Perception Experiment,xx12w20,
113,training(23).mov,True,right,0,vcgpdm_dyn(30)-lvm(30)_final(4).mov,0,112,112,91,,,,,,,,11:49:58:500,11:49:59:216,11:50:02:218,right,11:50:02:735,,,2018_Jun_06_1139,59.8982021669,MP-Perception Experiment,xx12w20,
114,training(19).mov,False,right,0,vgpdm_dyn(20)-lvm(15)_final(7).mov,0,113,113,142,,,,,,,,11:50:03:485,11:50:04:236,11:50:07:256,left,11:50:07:924,,,2018_Jun_06_1139,59.8982021669,MP-Perception Experiment,xx12w20,
115,vcgpdm_dyn(15)-lvm(5)_final(0).mov,True,left,0,training(41).mov,0,114,114,135,,,,,,,,11:50:08:676,11:50:09:441,11:50:12:427,left,11:50:12:894,,,2018_Jun_06_1139,59.8982021669,MP-Perception Experiment,xx12w20,
116,vcgpdm_dyn(20)-lvm(20)_final(8).mov,False,left,0,training(2).mov,0,115,115,49,,,,,,,,11:50:13:615,11:50:14:395,11:50:17:398,right,11:50:18:032,,,2018_Jun_06_1139,59.8982021669,MP-Perception Experiment,xx12w20,
117,vcgpdm_dyn(25)-lvm(15)_final(5).mov,False,left,0,training(34).mov,0,116,116,44,,,,,,,,11:50:18:794,11:50:19:548,11:50:22:550,right,11:50:22:984,,,2018_Jun_06_1139,59.8982021669,MP-Perception Experiment,xx12w20,
118,tmp_numprim(9)_final(1).mov,False,left,0,training(14).mov,0,117,117,15,,,,,,,,11:50:23:760,11:50:24:502,11:50:27:489,left,11:50:27:989,,,2018_Jun_06_1139,59.8982021669,MP-Perception Experiment,xx12w20,
119,training(17).mov,False,right,0,vcgpdm_dyn(25)-lvm(25)_final(1).mov,0,118,118,137,,,,,,,,11:50:28:752,11:50:29:490,11:50:32:478,right,11:50:32:995,,,2018_Jun_06_1139,59.8982021669,MP-Perception Experiment,xx12w20,
120,training(1).mov,False,right,0,vgpdm_dyn(25)-lvm(20)_final(8).mov,0,119,119,133,,,,,,,,11:50:33:709,11:50:34:496,11:50:37:498,right,11:50:39:033,,,2018_Jun_06_1139,59.8982021669,MP-Perception Experiment,xx12w20,
121,dmp_npsi(15)_final(4).mov,False,left,0,training(34).mov,0,120,120,88,,,,,,,,11:50:39:986,11:50:40:534,11:50:43:538,left,11:50:44:022,,,2018_Jun_06_1139,59.8982021669,MP-Perception Experiment,xx12w20,
122,vgpdm_dyn(35)-lvm(5)_final(1).mov,False,left,0,training(31).mov,0,121,121,124,,,,,,,,11:50:44:946,11:50:45:523,11:50:48:525,left,11:50:48:959,,,2018_Jun_06_1139,59.8982021669,MP-Perception Experiment,xx12w20,
123,vgpdm_dyn(15)-lvm(15)_final(9).mov,False,left,0,training(31).mov,0,122,122,139,,,,,,,,11:50:49:733,11:50:50:477,11:50:53:462,left,11:50:53:879,,,2018_Jun_06_1139,59.8982021669,MP-Perception Experiment,xx12w20,
124,dmp_npsi(35)_final(1).mov,False,left,0,training(19).mov,0,123,123,141,,,,,,,,11:50:54:633,11:50:55:381,11:50:58:383,left,11:50:58:984,,,2018_Jun_06_1139,59.8982021669,MP-Perception Experiment,xx12w20,
125,vcgpdm_dyn(20)-lvm(15)_final(9).mov,True,left,0,training(24).mov,0,124,124,2,,,,,,,,11:50:59:738,11:51:00:486,11:51:03:488,left,11:51:04:072,,,2018_Jun_06_1139,59.8982021669,MP-Perception Experiment,xx12w20,
126,vgpdm_dyn(25)-lvm(30)_final(7).mov,True,left,0,training(38).mov,0,125,125,39,,,,,,,,11:51:04:822,11:51:05:573,11:51:08:574,left,11:51:09:191,,,2018_Jun_06_1139,59.8982021669,MP-Perception Experiment,xx12w20,
127,training(21).mov,False,right,0,vcgpdm_dyn(15)-lvm(15)_final(2).mov,0,126,126,45,,,,,,,,11:51:09:953,11:51:10:692,11:51:13:695,right,11:51:14:095,,,2018_Jun_06_1139,59.8982021669,MP-Perception Experiment,xx12w20,
128,vgpdm_dyn(15)-lvm(15)_final(9).mov,True,left,0,training(35).mov,0,127,127,62,,,,,,,,11:51:14:845,11:51:15:613,11:51:18:600,left,11:51:19:083,,,2018_Jun_06_1139,59.8982021669,MP-Perception Experiment,xx12w20,
129,training(1).mov,True,right,0,vgpdm_dyn(30)-lvm(25)_final(8).mov,0,128,128,77,,,,,,,,11:51:19:896,11:51:20:586,11:51:23:589,right,11:51:24:340,,,2018_Jun_06_1139,59.8982021669,MP-Perception Experiment,xx12w20,
130,training(40).mov,False,right,0,vcgpdm_dyn(5)-lvm(10)_final(4).mov,0,129,129,79,,,,,,,,11:51:25:088,11:51:25:840,11:51:28:843,right,11:51:29:343,,,2018_Jun_06_1139,59.8982021669,MP-Perception Experiment,xx12w20,
131,training(31).mov,True,right,0,vcgpdm_dyn(20)-lvm(30)_final(2).mov,0,130,130,48,,,,,,,,11:51:30:100,11:51:30:845,11:51:33:864,right,11:51:34:331,,,2018_Jun_06_1139,59.8982021669,MP-Perception Experiment,xx12w20,
132,training(0).mov,True,right,0,vcgpdm_dyn(30)-lvm(10)_final(6).mov,0,131,131,110,,,,,,,,11:51:35:087,11:51:35:833,11:51:38:852,left,11:51:39:553,,,2018_Jun_06_1139,59.8982021669,MP-Perception Experiment,xx12w20,
133,training(15).mov,True,right,0,map_gpdm_final(2).mov,0,132,132,6,,,,,,,,11:51:40:301,11:51:41:071,11:51:44:074,right,11:51:44:641,,,2018_Jun_06_1139,59.8982021669,MP-Perception Experiment,xx12w20,
134,training(40).mov,False,right,0,vcgpdm_dyn(10)-lvm(20)_final(6).mov,0,133,133,71,,,,,,,,11:51:45:401,11:51:46:141,11:51:49:160,right,11:51:49:627,,,2018_Jun_06_1139,59.8982021669,MP-Perception Experiment,xx12w20,
135,vcgpdm_dyn(20)-lvm(25)_final(0).mov,False,left,0,training(39).mov,0,134,134,100,,,,,,,,11:51:50:380,11:51:51:145,11:51:54:132,left,11:51:54:649,,,2018_Jun_06_1139,59.8982021669,MP-Perception Experiment,xx12w20,
136,training(40).mov,True,right,0,dmp_npsi(20)_final(0).mov,0,135,135,96,,,,,,,,11:51:55:400,11:51:56:150,11:51:59:151,right,11:51:59:668,,,2018_Jun_06_1139,59.8982021669,MP-Perception Experiment,xx12w20,
137,training(3).mov,False,right,0,dmp_npsi(15)_final(8).mov,0,136,136,106,,,,,,,,11:52:00:428,11:52:01:169,11:52:04:172,right,11:52:04:656,,,2018_Jun_06_1139,59.8982021669,MP-Perception Experiment,xx12w20,
138,training(34).mov,True,right,0,vgpdm_dyn(10)-lvm(35)_final(6).mov,0,137,137,63,,,,,,,,11:52:05:413,11:52:06:173,11:52:09:159,right,11:52:09:559,,,2018_Jun_06_1139,59.8982021669,MP-Perception Experiment,xx12w20,
139,vcgpdm_dyn(10)-lvm(20)_final(1).mov,True,left,0,training(22).mov,0,138,138,146,,,,,,,,11:52:10:324,11:52:11:062,11:52:14:066,left,11:52:14:466,,,2018_Jun_06_1139,59.8982021669,MP-Perception Experiment,xx12w20,
140,training(18).mov,False,right,0,vgpdm_dyn(30)-lvm(25)_final(7).mov,0,139,139,129,,,,,,,,11:52:15:212,11:52:15:967,11:52:18:970,left,11:52:19:437,,,2018_Jun_06_1139,59.8982021669,MP-Perception Experiment,xx12w20,
141,vgpdm_dyn(25)-lvm(20)_final(3).mov,True,left,0,training(13).mov,0,140,140,60,,,,,,,,11:52:20:185,11:52:20:955,11:52:23:941,left,11:52:25:575,,,2018_Jun_06_1139,59.8982021669,MP-Perception Experiment,xx12w20,
142,training(18).mov,False,right,0,vgpdm_dyn(30)-lvm(15)_final(0).mov,0,141,141,8,,,,,,,,11:52:26:524,11:52:27:076,11:52:30:096,right,11:52:30:463,,,2018_Jun_06_1139,59.8982021669,MP-Perception Experiment,xx12w20,
143,training(37).mov,True,right,0,vcgpdm_dyn(25)-lvm(10)_final(5).mov,0,142,142,156,,,,,,,,11:52:31:217,11:52:31:981,11:52:34:967,right,11:52:35:501,,,2018_Jun_06_1139,59.8982021669,MP-Perception Experiment,xx12w20,
144,vcgpdm_dyn(15)-lvm(10)_final(9).mov,True,left,0,training(3).mov,0,143,143,22,,,,,,,,11:52:36:246,11:52:37:019,11:52:40:171,left,11:52:40:538,,,2018_Jun_06_1139,59.8982021669,MP-Perception Experiment,xx12w20,
145,dmp_npsi(50)_final(7).mov,False,left,0,training(20).mov,0,144,144,90,,,,,,,,11:52:41:281,11:52:42:056,11:52:45:059,right,11:52:45:577,,,2018_Jun_06_1139,59.8982021669,MP-Perception Experiment,xx12w20,
146,vgpdm_dyn(30)-lvm(10)_final(6).mov,False,left,0,training(3).mov,0,145,145,85,,,,,,,,11:52:46:355,11:52:47:078,11:52:50:078,right,11:52:50:429,,,2018_Jun_06_1139,59.8982021669,MP-Perception Experiment,xx12w20,
147,training(33).mov,False,right,0,vcgpdm_dyn(20)-lvm(25)_final(2).mov,0,146,146,81,,,,,,,,11:52:51:188,11:52:51:930,11:52:54:932,right,11:52:55:383,,,2018_Jun_06_1139,59.8982021669,MP-Perception Experiment,xx12w20,
148,vgpdm_dyn(35)-lvm(30)_final(3).mov,False,left,0,training(27).mov,0,147,147,36,,,,,,,,11:52:56:132,11:52:56:884,11:52:59:886,right,11:53:00:322,,,2018_Jun_06_1139,59.8982021669,MP-Perception Experiment,xx12w20,
149,dmp_npsi(30)_final(6).mov,True,left,0,training(20).mov,0,148,148,105,,,,,,,,11:53:01:077,11:53:01:840,11:53:04:826,left,11:53:05:377,,,2018_Jun_06_1139,59.8982021669,MP-Perception Experiment,xx12w20,
150,training(23).mov,False,right,0,vgpdm_dyn(30)-lvm(25)_final(7).mov,0,149,149,143,,,,,,,,11:53:06:119,11:53:06:895,11:53:09:881,right,11:53:10:381,,,2018_Jun_06_1139,59.8982021669,MP-Perception Experiment,xx12w20,
151,vgpdm_dyn(10)-lvm(10)_final(4).mov,False,left,0,training(39).mov,0,150,150,26,,,,,,,,11:53:11:141,11:53:11:882,11:53:14:901,right,11:53:15:318,,,2018_Jun_06_1139,59.8982021669,MP-Perception Experiment,xx12w20,
152,vgpdm_dyn(25)-lvm(30)_final(4).mov,True,left,0,training(15).mov,0,151,151,28,,,,,,,,11:53:16:089,11:53:16:819,11:53:19:823,left,11:53:20:307,,,2018_Jun_06_1139,59.8982021669,MP-Perception Experiment,xx12w20,
153,training(3).mov,True,right,0,map_cgpdm_final(6).mov,0,152,152,20,,,,,,,,11:53:21:064,11:53:21:808,11:53:24:810,right,11:53:25:394,,,2018_Jun_06_1139,59.8982021669,MP-Perception Experiment,xx12w20,
154,training(41).mov,True,right,0,vcgpdm_dyn(10)-lvm(20)_final(6).mov,0,153,153,17,,,,,,,,11:53:26:155,11:53:26:895,11:53:29:898,right,11:53:30:415,,,2018_Jun_06_1139,59.8982021669,MP-Perception Experiment,xx12w20,
155,training(7).mov,True,right,0,vgpdm_dyn(10)-lvm(35)_final(9).mov,0,154,154,125,,,,,,,,11:53:31:350,11:53:31:916,11:53:34:918,right,11:53:35:369,,,2018_Jun_06_1139,59.8982021669,MP-Perception Experiment,xx12w20,
156,vcgpdm_dyn(10)-lvm(10)_final(8).mov,False,left,0,training(30).mov,0,155,155,147,,,,,,,,11:53:36:128,11:53:36:870,11:53:39:872,left,11:53:40:339,,,2018_Jun_06_1139,59.8982021669,MP-Perception Experiment,xx12w20,
157,dmp_npsi(35)_final(9).mov,True,left,0,training(4).mov,0,156,156,3,,,,,,,,11:53:41:086,11:53:41:856,11:53:44:842,right,11:53:45:443,,,2018_Jun_06_1139,59.8982021669,MP-Perception Experiment,xx12w20,
158,vcgpdm_dyn(10)-lvm(10)_final(1).mov,False,left,0,training(37).mov,0,157,157,83,,,,,,,,11:53:46:198,11:53:46:944,11:53:49:946,left,11:53:50:280,,,2018_Jun_06_1139,59.8982021669,MP-Perception Experiment,xx12w20,
159,training(37).mov,False,right,0,tmp_numprim(8)_final(3).mov,0,158,158,93,,,,,,,,11:53:51:050,11:53:51:781,11:53:54:769,left,11:53:55:220,,,2018_Jun_06_1139,59.8982021669,MP-Perception Experiment,xx12w20,
160,vgpdm_dyn(10)-lvm(15)_final(6).mov,False,left,1,training(8).mov,0,0,0,59,,,,,,,,11:56:06:477,11:56:07:050,11:56:10:034,left,11:56:10:735,,,2018_Jun_06_1139,59.8982021669,MP-Perception Experiment,xx12w20,
161,vcgpdm_dyn(10)-lvm(35)_final(0).mov,False,left,1,training(29).mov,0,1,1,65,,,,,,,,11:56:11:482,11:56:12:253,11:56:15:239,left,11:56:15:673,,,2018_Jun_06_1139,59.8982021669,MP-Perception Experiment,xx12w20,
162,dmp_npsi(25)_final(2).mov,False,left,1,training(36).mov,0,2,2,90,,,,,,,,11:56:16:433,11:56:17:174,11:56:20:162,left,11:56:20:479,,,2018_Jun_06_1139,59.8982021669,MP-Perception Experiment,xx12w20,
163,vgpdm_dyn(10)-lvm(30)_final(7).mov,False,left,1,training(8).mov,0,3,3,35,,,,,,,,11:56:21:239,11:56:21:996,11:56:24:982,left,11:56:25:499,,,2018_Jun_06_1139,59.8982021669,MP-Perception Experiment,xx12w20,
164,training(32).mov,True,right,1,vcgpdm_dyn(20)-lvm(20)_final(6).mov,0,4,4,141,,,,,,,,11:56:26:243,11:56:27:001,11:56:30:003,left,11:56:30:621,,,2018_Jun_06_1139,59.8982021669,MP-Perception Experiment,xx12w20,
165,training(35).mov,True,right,1,vgpdm_dyn(25)-lvm(30)_final(4).mov,0,5,5,115,,,,,,,,11:56:31:562,11:56:32:138,11:56:35:258,right,11:56:35:809,,,2018_Jun_06_1139,59.8982021669,MP-Perception Experiment,xx12w20,
166,vgpdm_dyn(10)-lvm(15)_final(2).mov,False,left,1,training(23).mov,0,6,6,29,,,,,,,,11:56:36:573,11:56:37:327,11:56:40:329,right,11:56:40:729,,,2018_Jun_06_1139,59.8982021669,MP-Perception Experiment,xx12w20,
167,vcgpdm_dyn(10)-lvm(35)_final(5).mov,False,left,1,training(5).mov,0,7,7,80,,,,,,,,11:56:41:506,11:56:42:231,11:56:45:233,left,11:56:45:767,,,2018_Jun_06_1139,59.8982021669,MP-Perception Experiment,xx12w20,
168,vcgpdm_dyn(25)-lvm(10)_final(0).mov,True,left,1,training(24).mov,0,8,8,91,,,,,,,,11:56:46:520,11:56:47:268,11:56:50:272,right,11:56:50:955,,,2018_Jun_06_1139,59.8982021669,MP-Perception Experiment,xx12w20,
169,vgpdm_dyn(10)-lvm(10)_final(8).mov,False,left,1,training(5).mov,0,9,9,130,,,,,,,,11:56:51:723,11:56:52:473,11:56:55:476,left,11:56:56:043,,,2018_Jun_06_1139,59.8982021669,MP-Perception Experiment,xx12w20,
170,tmp_numprim(3)_final(4).mov,False,left,1,training(2).mov,0,10,10,119,,,,,,,,11:56:56:814,11:56:57:544,11:57:00:545,left,11:57:00:978,,,2018_Jun_06_1139,59.8982021669,MP-Perception Experiment,xx12w20,
171,training(39).mov,False,right,1,vcgpdm_dyn(20)-lvm(35)_final(0).mov,0,11,11,151,,,,,,,,11:57:01:761,11:57:02:479,11:57:05:482,left,11:57:05:849,,,2018_Jun_06_1139,59.8982021669,MP-Perception Experiment,xx12w20,
172,training(28).mov,False,right,1,vcgpdm_dyn(20)-lvm(25)_final(8).mov,0,12,12,135,,,,,,,,11:57:06:607,11:57:07:351,11:57:10:354,right,11:57:10:887,,,2018_Jun_06_1139,59.8982021669,MP-Perception Experiment,xx12w20,
173,training(31).mov,False,right,1,vcgpdm_dyn(15)-lvm(30)_final(1).mov,0,13,13,136,,,,,,,,11:57:11:667,11:57:12:389,11:57:15:376,right,11:57:15:810,,,2018_Jun_06_1139,59.8982021669,MP-Perception Experiment,xx12w20,
174,training(41).mov,False,right,1,tmp_numprim(5)_final(1).mov,0,14,14,157,,,,,,,,11:57:16:694,11:57:17:311,11:57:20:313,right,11:57:20:730,,,2018_Jun_06_1139,59.8982021669,MP-Perception Experiment,xx12w20,
175,training(17).mov,True,right,1,vcgpdm_dyn(10)-lvm(15)_final(1).mov,0,15,15,97,,,,,,,,11:57:21:510,11:57:22:231,11:57:25:235,left,11:57:25:852,,,2018_Jun_06_1139,59.8982021669,MP-Perception Experiment,xx12w20,
176,training(14).mov,True,right,1,vgpdm_dyn(10)-lvm(10)_final(3).mov,0,16,16,63,,,,,,,,11:57:26:609,11:57:27:353,11:57:30:356,left,11:57:31:040,,,2018_Jun_06_1139,59.8982021669,MP-Perception Experiment,xx12w20,
177,training(27).mov,False,right,1,vgpdm_dyn(30)-lvm(30)_final(3).mov,0,17,17,67,,,,,,,,11:57:31:811,11:57:32:541,11:57:35:543,right,11:57:35:994,,,2018_Jun_06_1139,59.8982021669,MP-Perception Experiment,xx12w20,
178,training(33).mov,True,right,1,vgpdm_dyn(35)-lvm(5)_final(5).mov,0,18,18,50,,,,,,,,11:57:36:745,11:57:37:495,11:57:40:497,right,11:57:41:031,,,2018_Jun_06_1139,59.8982021669,MP-Perception Experiment,xx12w20,
179,training(1).mov,True,right,1,vcgpdm_dyn(15)-lvm(5)_final(4).mov,0,19,19,114,,,,,,,,11:57:41:789,11:57:42:533,11:57:45:536,right,11:57:46:037,,,2018_Jun_06_1139,59.8982021669,MP-Perception Experiment,xx12w20,
180,training(37).mov,True,right,1,tmp_numprim(7)_final(6).mov,0,20,20,122,,,,,,,,11:57:46:795,11:57:47:554,11:57:50:538,right,11:57:51:289,,,2018_Jun_06_1139,59.8982021669,MP-Perception Experiment,xx12w20,
181,vgpdm_dyn(30)-lvm(35)_final(6).mov,False,left,1,training(37).mov,0,21,21,19,,,,,,,,11:57:52:047,11:57:52:806,11:57:55:792,right,11:57:56:109,,,2018_Jun_06_1139,59.8982021669,MP-Perception Experiment,xx12w20,
182,vgpdm_dyn(35)-lvm(5)_final(5).mov,False,left,1,training(2).mov,0,22,22,78,,,,,,,,11:57:56:859,11:57:57:610,11:58:00:599,right,11:58:00:999,,,2018_Jun_06_1139,59.8982021669,MP-Perception Experiment,xx12w20,
183,training(17).mov,False,right,1,vgpdm_dyn(20)-lvm(20)_final(1).mov,0,23,23,62,,,,,,,,11:58:01:753,11:58:02:500,11:58:05:503,right,11:58:05:937,,,2018_Jun_06_1139,59.8982021669,MP-Perception Experiment,xx12w20,
184,vgpdm_dyn(30)-lvm(20)_final(5).mov,False,left,1,training(15).mov,0,24,24,154,,,,,,,,11:58:06:710,11:58:07:438,11:58:10:440,left,11:58:10:991,,,2018_Jun_06_1139,59.8982021669,MP-Perception Experiment,xx12w20,
185,vgpdm_dyn(10)-lvm(5)_final(1).mov,True,left,1,training(21).mov,0,25,25,55,,,,,,,,11:58:11:753,11:58:12:492,11:58:15:494,left,11:58:16:529,,,2018_Jun_06_1139,59.8982021669,MP-Perception Experiment,xx12w20,
186,vcgpdm_dyn(10)-lvm(30)_final(1).mov,True,left,1,training(19).mov,0,26,26,33,,,,,,,,11:58:18:225,11:58:18:225,11:58:21:033,left,11:58:21:550,,,2018_Jun_06_1139,59.8982021669,MP-Perception Experiment,xx12w20,
187,vcgpdm_dyn(30)-lvm(15)_final(6).mov,True,left,1,training(27).mov,0,27,27,18,,,,,,,,11:58:22:316,11:58:23:051,11:58:26:054,right,11:58:26:488,,,2018_Jun_06_1139,59.8982021669,MP-Perception Experiment,xx12w20,
188,training(28).mov,False,right,1,tmp_numprim(10)_final(1).mov,0,28,28,99,,,,,,,,11:58:27:236,11:58:28:005,11:58:31:008,left,11:58:31:642,,,2018_Jun_06_1139,59.8982021669,MP-Perception Experiment,xx12w20,
189,vcgpdm_dyn(30)-lvm(10)_final(6).mov,False,left,1,training(16).mov,0,29,29,156,,,,,,,,11:58:32:391,11:58:33:143,11:58:36:146,left,11:58:36:547,,,2018_Jun_06_1139,59.8982021669,MP-Perception Experiment,xx12w20,
190,vcgpdm_dyn(35)-lvm(20)_final(4).mov,False,left,1,training(22).mov,0,30,30,38,,,,,,,,11:58:37:299,11:58:38:064,11:58:41:049,left,11:58:41:299,,,2018_Jun_06_1139,59.8982021669,MP-Perception Experiment,xx12w20,
191,dmp_npsi(15)_final(2).mov,False,left,1,training(23).mov,0,31,31,113,,,,,,,,11:58:42:065,11:58:42:816,11:58:45:802,left,11:58:46:186,,,2018_Jun_06_1139,59.8982021669,MP-Perception Experiment,xx12w20,
192,training(39).mov,False,right,1,vgpdm_dyn(10)-lvm(25)_final(4).mov,0,32,32,69,,,,,,,,11:58:46:947,11:58:47:687,11:58:50:690,right,11:58:50:990,,,2018_Jun_06_1139,59.8982021669,MP-Perception Experiment,xx12w20,
193,tmp_numprim(2)_final(9).mov,True,left,1,training(7).mov,0,33,33,106,,,,,,,,11:58:51:739,11:58:52:492,11:58:55:480,left,11:58:55:930,,,2018_Jun_06_1139,59.8982021669,MP-Perception Experiment,xx12w20,
194,vcgpdm_dyn(15)-lvm(5)_final(0).mov,False,left,1,training(17).mov,0,34,34,105,,,,,,,,11:58:56:686,11:58:57:431,11:59:00:433,left,11:59:00:851,,,2018_Jun_06_1139,59.8982021669,MP-Perception Experiment,xx12w20,
195,training(10).mov,False,right,1,vgpdm_dyn(30)-lvm(10)_final(8).mov,0,35,35,3,,,,,,,,11:59:01:594,11:59:02:352,11:59:05:371,right,11:59:05:855,,,2018_Jun_06_1139,59.8982021669,MP-Perception Experiment,xx12w20,
196,map_cgpdm_final(8).mov,False,left,1,training(0).mov,0,36,36,94,,,,,,,,11:59:06:620,11:59:07:356,11:59:10:376,left,11:59:10:843,,,2018_Jun_06_1139,59.8982021669,MP-Perception Experiment,xx12w20,
197,training(22).mov,False,right,1,tmp_numprim(5)_final(0).mov,0,37,37,2,,,,,,,,11:59:11:622,11:59:12:344,11:59:15:347,right,11:59:15:730,,,2018_Jun_06_1139,59.8982021669,MP-Perception Experiment,xx12w20,
198,training(3).mov,True,right,1,vgpdm_dyn(10)-lvm(20)_final(0).mov,0,38,38,92,,,,,,,,11:59:16:493,11:59:17:231,11:59:20:234,left,11:59:20:817,,,2018_Jun_06_1139,59.8982021669,MP-Perception Experiment,xx12w20,
199,vcgpdm_dyn(30)-lvm(15)_final(2).mov,True,left,1,training(11).mov,0,39,39,140,,,,,,,,11:59:21:574,11:59:22:335,11:59:25:321,right,11:59:25:838,,,2018_Jun_06_1139,59.8982021669,MP-Perception Experiment,xx12w20,
200,training(35).mov,True,right,1,vcgpdm_dyn(10)-lvm(10)_final(0).mov,0,40,40,28,,,,,,,,11:59:26:601,11:59:27:340,11:59:30:341,left,11:59:30:692,,,2018_Jun_06_1139,59.8982021669,MP-Perception Experiment,xx12w20,
201,map_cgpdm_final(3).mov,True,left,1,training(21).mov,0,41,41,30,,,,,,,,11:59:31:452,11:59:32:193,11:59:35:195,left,11:59:35:579,,,2018_Jun_06_1139,59.8982021669,MP-Perception Experiment,xx12w20,
202,training(1).mov,False,right,1,dmp_npsi(15)_final(5).mov,0,42,42,131,,,,,,,,11:59:36:340,11:59:37:097,11:59:40:082,right,11:59:40:484,,,2018_Jun_06_1139,59.8982021669,MP-Perception Experiment,xx12w20,
203,training(9).mov,True,right,1,vcgpdm_dyn(15)-lvm(10)_final(3).mov,0,43,43,1,,,,,,,,11:59:41:243,11:59:41:986,11:59:44:989,left,11:59:45:506,,,2018_Jun_06_1139,59.8982021669,MP-Perception Experiment,xx12w20,
204,training(33).mov,True,right,1,vgpdm_dyn(15)-lvm(20)_final(1)_out_of_screen.mov,0,44,44,70,,,,,,,,11:59:46:256,11:59:47:007,11:59:50:010,left,11:59:50:661,,,2018_Jun_06_1139,59.8982021669,MP-Perception Experiment,xx12w20,
205,training(34).mov,False,right,1,vcgpdm_dyn(25)-lvm(15)_final(1).mov,0,45,45,150,,,,,,,,11:59:51:411,11:59:52:161,11:59:55:164,right,11:59:55:514,,,2018_Jun_06_1139,59.8982021669,MP-Perception Experiment,xx12w20,
206,vcgpdm_dyn(25)-lvm(30)_final(0).mov,False,left,1,training(19).mov,0,46,46,153,,,,,,,,11:59:56:413,11:59:57:032,12:00:00:034,left,12:00:00:485,,,2018_Jun_06_1139,59.8982021669,MP-Perception Experiment,xx12w20,
207,training(25).mov,False,right,1,vcgpdm_dyn(5)-lvm(10)_final(9).mov,0,47,47,158,,,,,,,,12:00:01:231,12:00:01:986,12:00:04:990,right,12:00:05:440,,,2018_Jun_06_1139,59.8982021669,MP-Perception Experiment,xx12w20,
208,training(17).mov,False,right,1,vcgpdm_dyn(25)-lvm(35)_final(0).mov,0,48,48,10,,,,,,,,12:00:06:205,12:00:06:941,12:00:09:943,right,12:00:10:461,,,2018_Jun_06_1139,59.8982021669,MP-Perception Experiment,xx12w20,
209,vcgpdm_dyn(25)-lvm(30)_final(5).mov,False,left,1,training(19).mov,0,49,49,7,,,,,,,,12:00:11:210,12:00:11:962,12:00:14:964,left,12:00:15:432,,,2018_Jun_06_1139,59.8982021669,MP-Perception Experiment,xx12w20,
210,training(35).mov,False,right,1,vcgpdm_dyn(35)-lvm(25)_final(0).mov,0,50,50,124,,,,,,,,12:00:16:193,12:00:16:949,12:00:19:934,right,12:00:20:351,,,2018_Jun_06_1139,59.8982021669,MP-Perception Experiment,xx12w20,
211,training(39).mov,False,right,1,vgpdm_dyn(15)-lvm(30)_final(9).mov,0,51,51,36,,,,,,,,12:00:21:105,12:00:21:852,12:00:24:855,right,12:00:25:189,,,2018_Jun_06_1139,59.8982021669,MP-Perception Experiment,xx12w20,
212,training(20).mov,False,right,1,vcgpdm_dyn(30)-lvm(35)_final(9).mov,0,52,52,51,,,,,,,,12:00:25:940,12:00:26:690,12:00:29:692,left,12:00:30:159,,,2018_Jun_06_1139,59.8982021669,MP-Perception Experiment,xx12w20,
213,vcgpdm_dyn(15)-lvm(30)_final(3).mov,True,left,1,training(3).mov,0,53,53,66,,,,,,,,12:00:30:922,12:00:31:677,12:00:34:648,left,12:00:34:965,,,2018_Jun_06_1139,59.8982021669,MP-Perception Experiment,xx12w20,
214,training(22).mov,False,right,1,vgpdm_dyn(30)-lvm(5)_final(5).mov,0,54,54,45,,,,,,,,12:00:35:714,12:00:36:466,12:00:39:469,right,12:00:39:953,,,2018_Jun_06_1139,59.8982021669,MP-Perception Experiment,xx12w20,
215,vcgpdm_dyn(5)-lvm(15)_final(2).mov,False,left,1,training(33).mov,0,55,55,148,,,,,,,,12:00:40:707,12:00:41:454,12:00:44:457,right,12:00:44:857,,,2018_Jun_06_1139,59.8982021669,MP-Perception Experiment,xx12w20,
216,vcgpdm_dyn(15)-lvm(10)_final(7).mov,False,left,1,training(28).mov,0,56,56,37,,,,,,,,12:00:45:608,12:00:46:358,12:00:49:361,left,12:00:49:828,,,2018_Jun_06_1139,59.8982021669,MP-Perception Experiment,xx12w20,
217,vcgpdm_dyn(35)-lvm(30)_final(4).mov,False,left,1,training(38).mov,0,57,57,101,,,,,,,,12:00:50:577,12:00:51:346,12:00:54:332,left,12:00:54:983,,,2018_Jun_06_1139,59.8982021669,MP-Perception Experiment,xx12w20,
218,training(32).mov,False,right,1,vgpdm_dyn(25)-lvm(30)_final(4).mov,0,58,58,17,,,,,,,,12:00:55:728,12:00:56:484,12:00:59:503,right,12:01:00:071,,,2018_Jun_06_1139,59.8982021669,MP-Perception Experiment,xx12w20,
219,training(40).mov,False,right,1,vcgpdm_dyn(5)-lvm(5)_final(0).mov,0,59,59,12,,,,,,,,12:01:00:823,12:01:01:588,12:01:04:574,right,12:01:05:041,,,2018_Jun_06_1139,59.8982021669,MP-Perception Experiment,xx12w20,
220,training(48).mov,False,right,1,vgpdm_dyn(30)-lvm(10)_final(6).mov,0,60,60,75,,,,,,,,12:01:05:778,12:01:06:542,12:01:09:543,right,12:01:09:927,,,2018_Jun_06_1139,59.8982021669,MP-Perception Experiment,xx12w20,
221,training(2).mov,True,right,1,dmp_npsi(20)_final(0).mov,0,61,61,84,,,,,,,,12:01:10:854,12:01:11:428,12:01:14:431,right,12:01:14:948,,,2018_Jun_06_1139,59.8982021669,MP-Perception Experiment,xx12w20,
222,vgpdm_dyn(20)-lvm(35)_final(7).mov,False,left,1,training(29).mov,0,62,62,117,,,,,,,,12:01:15:716,12:01:16:449,12:01:19:452,right,12:01:19:786,,,2018_Jun_06_1139,59.8982021669,MP-Perception Experiment,xx12w20,
223,vcgpdm_dyn(20)-lvm(35)_final(1).mov,True,left,1,training(7).mov,0,63,63,85,,,,,,,,12:01:20:549,12:01:21:288,12:01:24:291,left,12:01:24:791,,,2018_Jun_06_1139,59.8982021669,MP-Perception Experiment,xx12w20,
224,training(3).mov,True,right,1,vgpdm_dyn(15)-lvm(15)_final(1).mov,0,64,64,146,,,,,,,,12:01:25:549,12:01:26:292,12:01:29:295,right,12:01:29:730,,,2018_Jun_06_1139,59.8982021669,MP-Perception Experiment,xx12w20,
225,training(28).mov,False,right,1,vcgpdm_dyn(15)-lvm(35)_final(2).mov,0,65,65,71,,,,,,,,12:01:30:486,12:01:31:231,12:01:34:233,right,12:01:34:567,,,2018_Jun_06_1139,59.8982021669,MP-Perception Experiment,xx12w20,
226,training(33).mov,True,right,1,vgpdm_dyn(20)-lvm(35)_final(0).mov,0,66,66,46,,,,,,,,12:01:35:333,12:01:36:085,12:01:39:087,left,12:01:39:471,,,2018_Jun_06_1139,59.8982021669,MP-Perception Experiment,xx12w20,
227,training(25).mov,True,right,1,dmp_npsi(40)_final(1).mov,0,67,67,125,,,,,,,,12:01:40:214,12:01:40:972,12:01:43:991,right,12:01:44:492,,,2018_Jun_06_1139,59.8982021669,MP-Perception Experiment,xx12w20,
228,training(33).mov,True,right,1,vcgpdm_dyn(20)-lvm(30)_final(9).mov,0,68,68,103,,,,,,,,12:01:45:253,12:01:46:009,12:01:48:996,right,12:01:49:513,,,2018_Jun_06_1139,59.8982021669,MP-Perception Experiment,xx12w20,
229,training(4).mov,False,right,1,vgpdm_dyn(30)-lvm(35)_final(7).mov,0,69,69,89,,,,,,,,12:01:50:309,12:01:51:014,12:01:54:033,left,12:01:54:517,,,2018_Jun_06_1139,59.8982021669,MP-Perception Experiment,xx12w20,
230,training(20).mov,False,right,1,vcgpdm_dyn(20)-lvm(25)_final(6).mov,0,70,70,93,,,,,,,,12:01:55:282,12:01:56:019,12:01:59:019,right,12:01:59:470,,,2018_Jun_06_1139,59.8982021669,MP-Perception Experiment,xx12w20,
231,vcgpdm_dyn(20)-lvm(25)_final(2).mov,False,left,1,training(27).mov,0,71,71,120,,,,,,,,12:02:00:217,12:02:00:971,12:02:03:973,left,12:02:04:374,,,2018_Jun_06_1139,59.8982021669,MP-Perception Experiment,xx12w20,
232,training(8).mov,False,right,1,vcgpdm_dyn(20)-lvm(10)_final(5).mov,0,72,72,14,,,,,,,,12:02:05:134,12:02:05:876,12:02:08:878,right,12:02:09:279,,,2018_Jun_06_1139,59.8982021669,MP-Perception Experiment,xx12w20,
233,vcgpdm_dyn(5)-lvm(5)_final(8).mov,True,left,1,training(48).mov,0,73,73,23,,,,,,,,12:02:10:024,12:02:10:781,12:02:13:767,left,12:02:14:167,,,2018_Jun_06_1139,59.8982021669,MP-Perception Experiment,xx12w20,
234,training(18).mov,True,right,1,vcgpdm_dyn(15)-lvm(10)_final(9).mov,0,74,74,73,,,,,,,,12:02:14:914,12:02:15:669,12:02:18:688,right,12:02:19:105,,,2018_Jun_06_1139,59.8982021669,MP-Perception Experiment,xx12w20,
235,vgpdm_dyn(30)-lvm(20)_final(3).mov,True,left,1,training(29).mov,0,75,75,49,,,,,,,,12:02:19:854,12:02:20:606,12:02:23:609,left,12:02:24:027,,,2018_Jun_06_1139,59.8982021669,MP-Perception Experiment,xx12w20,
236,dmp_npsi(50)_final(8).mov,True,left,1,training(25).mov,0,76,76,0,,,,,,,,12:02:24:783,12:02:25:528,12:02:28:530,left,12:02:29:047,,,2018_Jun_06_1139,59.8982021669,MP-Perception Experiment,xx12w20,
237,vgpdm_dyn(5)-lvm(15)_final(3).mov,True,left,1,training(8).mov,0,77,77,47,,,,,,,,12:02:29:804,12:02:30:548,12:02:33:568,left,12:02:34:085,,,2018_Jun_06_1139,59.8982021669,MP-Perception Experiment,xx12w20,
238,vcgpdm_dyn(20)-lvm(15)_final(2).mov,True,left,1,training(41).mov,0,78,78,9,,,,,,,,12:02:34:837,12:02:35:586,12:02:38:588,right,12:02:39:339,,,2018_Jun_06_1139,59.8982021669,MP-Perception Experiment,xx12w20,
239,training(12).mov,False,right,1,tmp_numprim(7)_final(7).mov,0,79,79,79,,,,,,,,12:02:40:091,12:02:40:841,12:02:43:844,right,12:02:44:227,,,2018_Jun_06_1139,59.8982021669,MP-Perception Experiment,xx12w20,
240,training(26).mov,True,right,1,vcgpdm_dyn(5)-lvm(20)_final(2).mov,0,80,80,129,,,,,,,,12:02:44:968,12:02:45:728,12:02:48:729,left,12:02:49:196,,,2018_Jun_06_1139,59.8982021669,MP-Perception Experiment,xx12w20,
241,vcgpdm_dyn(15)-lvm(15)_final(9).mov,True,left,1,training(32).mov,0,81,81,134,,,,,,,,12:02:49:959,12:02:50:697,12:02:53:700,right,12:02:54:050,,,2018_Jun_06_1139,59.8982021669,MP-Perception Experiment,xx12w20,
242,training(32).mov,False,right,1,vcgpdm_dyn(20)-lvm(35)_final(8).mov,0,82,82,145,,,,,,,,12:02:54:807,12:02:55:568,12:02:58:555,right,12:02:58:888,,,2018_Jun_06_1139,59.8982021669,MP-Perception Experiment,xx12w20,
243,training(21).mov,True,right,1,tmp_numprim(10)_final(8).mov,0,83,83,87,,,,,,,,12:02:59:646,12:03:00:391,12:03:03:377,left,12:03:03:711,,,2018_Jun_06_1139,59.8982021669,MP-Perception Experiment,xx12w20,
244,tmp_numprim(4)_final(5).mov,False,left,1,training(19).mov,0,84,84,25,,,,,,,,12:03:04:481,12:03:05:212,12:03:08:231,left,12:03:08:798,,,2018_Jun_06_1139,59.8982021669,MP-Perception Experiment,xx12w20,
245,training(38).mov,False,right,1,vgpdm_dyn(10)-lvm(20)_final(0).mov,0,85,85,40,,,,,,,,12:03:09:551,12:03:10:316,12:03:13:302,right,12:03:14:169,,,2018_Jun_06_1139,59.8982021669,MP-Perception Experiment,xx12w20,
246,vcgpdm_dyn(30)-lvm(10)_final(6).mov,False,left,1,training(31).mov,0,86,86,11,,,,,,,,12:03:15:101,12:03:15:671,12:03:18:674,right,12:03:19:558,,,2018_Jun_06_1139,59.8982021669,MP-Perception Experiment,xx12w20,
247,training(40).mov,False,right,1,vgpdm_dyn(15)-lvm(35)_final(3).mov,0,87,87,31,,,,,,,,12:03:20:302,12:03:21:076,12:03:24:061,right,12:03:24:562,,,2018_Jun_06_1139,59.8982021669,MP-Perception Experiment,xx12w20,
248,vgpdm_dyn(15)-lvm(25)_final(2).mov,True,left,1,training(40).mov,0,88,88,5,,,,,,,,12:03:25:305,12:03:26:063,12:03:29:065,left,12:03:29:499,,,2018_Jun_06_1139,59.8982021669,MP-Perception Experiment,xx12w20,
249,vcgpdm_dyn(20)-lvm(5)_final(5).mov,False,left,1,training(7).mov,0,89,89,147,,,,,,,,12:03:30:259,12:03:31:000,12:03:34:004,left,12:03:34:721,,,2018_Jun_06_1139,59.8982021669,MP-Perception Experiment,xx12w20,
250,vgpdm_dyn(5)-lvm(20)_final(0).mov,False,left,1,training(40).mov,0,90,90,32,,,,,,,,12:03:35:484,12:03:36:222,12:03:39:223,left,12:03:39:740,,,2018_Jun_06_1139,59.8982021669,MP-Perception Experiment,xx12w20,
251,vcgpdm_dyn(35)-lvm(5)_final(2).mov,True,left,1,training(34).mov,0,91,91,39,,,,,,,,12:03:40:497,12:03:41:241,12:03:44:243,left,12:03:44:627,,,2018_Jun_06_1139,59.8982021669,MP-Perception Experiment,xx12w20,
252,training(17).mov,False,right,1,vcgpdm_dyn(25)-lvm(10)_final(4).mov,0,92,92,108,,,,,,,,12:03:45:387,12:03:46:128,12:03:49:131,left,12:03:49:549,,,2018_Jun_06_1139,59.8982021669,MP-Perception Experiment,xx12w20,
253,vgpdm_dyn(35)-lvm(10)_final(3).mov,False,left,1,training(22).mov,0,93,93,110,,,,,,,,12:03:50:306,12:03:51:067,12:03:54:037,right,12:03:54:538,,,2018_Jun_06_1139,59.8982021669,MP-Perception Experiment,xx12w20,
254,vgpdm_dyn(20)-lvm(25)_final(7).mov,True,left,1,training(19).mov,0,94,94,42,,,,,,,,12:03:55:310,12:03:56:039,12:03:59:041,left,12:03:59:525,,,2018_Jun_06_1139,59.8982021669,MP-Perception Experiment,xx12w20,
255,training(1).mov,True,right,1,vgpdm_dyn(20)-lvm(15)_final(2).mov,0,95,95,24,,,,,,,,12:04:00:284,12:04:01:027,12:04:04:045,left,12:04:04:496,,,2018_Jun_06_1139,59.8982021669,MP-Perception Experiment,xx12w20,
256,training(15).mov,False,right,1,vcgpdm_dyn(15)-lvm(30)_final(6).mov,0,96,96,4,,,,,,,,12:04:05:255,12:04:06:014,12:04:09:001,right,12:04:09:501,,,2018_Jun_06_1139,59.8982021669,MP-Perception Experiment,xx12w20,
257,training(17).mov,True,right,1,vcgpdm_dyn(5)-lvm(5)_final(5).mov,0,97,97,60,,,,,,,,12:04:10:258,12:04:11:019,12:04:14:021,left,12:04:14:605,,,2018_Jun_06_1139,59.8982021669,MP-Perception Experiment,xx12w20,
258,training(4).mov,False,right,1,tmp_numprim(4)_final(6).mov,0,98,98,56,,,,,,,,12:04:15:358,12:04:16:106,12:04:19:125,right,12:04:19:542,,,2018_Jun_06_1139,59.8982021669,MP-Perception Experiment,xx12w20,
259,training(40).mov,False,right,1,vgpdm_dyn(5)-lvm(20)_final(9).mov,0,99,99,72,,,,,,,,12:04:20:296,12:04:21:043,12:04:24:046,right,12:04:24:381,,,2018_Jun_06_1139,59.8982021669,MP-Perception Experiment,xx12w20,
260,training(40).mov,True,right,1,vcgpdm_dyn(20)-lvm(5)_final(3).mov,0,100,100,54,,,,,,,,12:04:25:132,12:04:25:898,12:04:28:882,left,12:04:29:450,,,2018_Jun_06_1139,59.8982021669,MP-Perception Experiment,xx12w20,
261,training(36).mov,True,right,1,vcgpdm_dyn(30)-lvm(20)_final(6).mov,0,101,101,128,,,,,,,,12:04:30:215,12:04:30:951,12:04:33:953,right,12:04:34:287,,,2018_Jun_06_1139,59.8982021669,MP-Perception Experiment,xx12w20,
262,training(36).mov,True,right,1,vgpdm_dyn(10)-lvm(15)_final(1).mov,0,102,102,13,,,,,,,,12:04:35:045,12:04:35:805,12:04:38:790,left,12:04:39:241,,,2018_Jun_06_1139,59.8982021669,MP-Perception Experiment,xx12w20,
263,vcgpdm_dyn(10)-lvm(35)_final(7).mov,False,left,1,training(39).mov,0,103,103,57,,,,,,,,12:04:39:989,12:04:40:744,12:04:43:730,left,12:04:44:398,,,2018_Jun_06_1139,59.8982021669,MP-Perception Experiment,xx12w20,
264,dmp_npsi(20)_final(9).mov,False,left,1,training(14).mov,0,104,104,20,,,,,,,,12:04:45:177,12:04:45:899,12:04:48:901,left,12:04:49:419,,,2018_Jun_06_1139,59.8982021669,MP-Perception Experiment,xx12w20,
265,tmp_numprim(3)_final(6).mov,False,left,1,training(7).mov,0,105,105,109,,,,,,,,12:04:50:169,12:04:50:920,12:04:53:922,left,12:04:54:506,,,2018_Jun_06_1139,59.8982021669,MP-Perception Experiment,xx12w20,
266,training(41).mov,False,right,1,vcgpdm_dyn(15)-lvm(35)_final(6).mov,0,106,106,155,,,,,,,,12:04:55:247,12:04:56:007,12:04:59:009,right,12:04:59:878,,,2018_Jun_06_1139,59.8982021669,MP-Perception Experiment,xx12w20,
267,dmp_npsi(45)_final(6).mov,True,left,1,training(12).mov,0,107,107,149,,,,,,,,12:05:00:620,12:05:01:379,12:05:04:398,right,12:05:04:832,,,2018_Jun_06_1139,59.8982021669,MP-Perception Experiment,xx12w20,
268,training(31).mov,False,right,1,vgpdm_dyn(35)-lvm(25)_final(8).mov,0,108,108,52,,,,,,,,12:05:05:590,12:05:06:333,12:05:09:336,right,12:05:09:820,,,2018_Jun_06_1139,59.8982021669,MP-Perception Experiment,xx12w20,
269,vgpdm_dyn(30)-lvm(5)_final(3).mov,False,left,1,training(35).mov,0,109,109,143,,,,,,,,12:05:10:576,12:05:11:320,12:05:14:340,right,12:05:15:407,,,2018_Jun_06_1139,59.8982021669,MP-Perception Experiment,xx12w20,
270,training(40).mov,False,right,1,vcgpdm_dyn(20)-lvm(30)_final(7).mov,0,110,110,83,,,,,,,,12:05:16:157,12:05:16:909,12:05:19:910,right,12:05:20:327,,,2018_Jun_06_1139,59.8982021669,MP-Perception Experiment,xx12w20,
271,training(6).mov,True,right,1,vgpdm_dyn(25)-lvm(35)_final(7).mov,0,111,111,76,,,,,,,,12:05:21:085,12:05:21:828,12:05:24:831,left,12:05:25:131,,,2018_Jun_06_1139,59.8982021669,MP-Perception Experiment,xx12w20,
272,training(30).mov,True,right,1,vcgpdm_dyn(30)-lvm(15)_final(9).mov,0,112,112,121,,,,,,,,12:05:25:891,12:05:26:632,12:05:29:634,right,12:05:30:268,,,2018_Jun_06_1139,59.8982021669,MP-Perception Experiment,xx12w20,
273,training(11).mov,True,right,1,vcgpdm_dyn(20)-lvm(35)_final(7).mov,0,113,113,133,,,,,,,,12:05:31:027,12:05:31:786,12:05:34:758,right,12:05:35:092,,,2018_Jun_06_1139,59.8982021669,MP-Perception Experiment,xx12w20,
274,vgpdm_dyn(35)-lvm(35)_final(9).mov,True,left,1,training(40).mov,0,114,114,81,,,,,,,,12:05:35:854,12:05:36:593,12:05:39:596,left,12:05:40:546,,,2018_Jun_06_1139,59.8982021669,MP-Perception Experiment,xx12w20,
275,training(19).mov,True,right,1,vgpdm_dyn(5)-lvm(10)_final(9).mov,0,115,115,127,,,,,,,,12:05:41:292,12:05:42:047,12:05:45:050,right,12:05:45:567,,,2018_Jun_06_1139,59.8982021669,MP-Perception Experiment,xx12w20,
276,training(2).mov,True,right,1,vgpdm_dyn(20)-lvm(30)_final(6).mov,0,116,116,53,,,,,,,,12:05:46:315,12:05:47:085,12:05:50:070,right,12:05:50:804,,,2018_Jun_06_1139,59.8982021669,MP-Perception Experiment,xx12w20,
277,vcgpdm_dyn(15)-lvm(30)_final(8).mov,True,left,1,training(24).mov,0,117,117,139,,,,,,,,12:05:51:552,12:05:52:306,12:05:55:309,right,12:05:55:743,,,2018_Jun_06_1139,59.8982021669,MP-Perception Experiment,xx12w20,
278,dmp_npsi(15)_final(2).mov,False,left,1,training(15).mov,0,118,118,137,,,,,,,,12:05:56:496,12:05:57:244,12:06:00:246,left,12:06:00:697,,,2018_Jun_06_1139,59.8982021669,MP-Perception Experiment,xx12w20,
279,vcgpdm_dyn(10)-lvm(5)_final(0).mov,True,left,1,training(8).mov,0,119,119,107,,,,,,,,12:06:01:438,12:06:02:198,12:06:05:200,right,12:06:05:851,,,2018_Jun_06_1139,59.8982021669,MP-Perception Experiment,xx12w20,
280,vgpdm_dyn(15)-lvm(25)_final(8).mov,True,left,1,training(32).mov,0,120,120,111,,,,,,,,12:06:06:789,12:06:07:352,12:06:10:354,left,12:06:10:837,,,2018_Jun_06_1139,59.8982021669,MP-Perception Experiment,xx12w20,
281,vgpdm_dyn(30)-lvm(30)_final(1).mov,True,left,1,training(4).mov,0,121,121,61,,,,,,,,12:06:11:601,12:06:12:355,12:06:15:341,left,12:06:15:708,,,2018_Jun_06_1139,59.8982021669,MP-Perception Experiment,xx12w20,
282,training(31).mov,False,right,1,vcgpdm_dyn(30)-lvm(35)_final(4).mov,0,122,122,152,,,,,,,,12:06:16:478,12:06:17:209,12:06:20:197,right,12:06:20:530,,,2018_Jun_06_1139,59.8982021669,MP-Perception Experiment,xx12w20,
283,training(1).mov,True,right,1,vgpdm_dyn(15)-lvm(5)_final(0).mov,0,123,123,132,,,,,,,,12:06:21:283,12:06:22:032,12:06:25:034,left,12:06:25:701,,,2018_Jun_06_1139,59.8982021669,MP-Perception Experiment,xx12w20,
284,vgpdm_dyn(25)-lvm(5)_final(5).mov,False,left,1,training(18).mov,0,124,124,138,,,,,,,,12:06:26:456,12:06:27:203,12:06:30:222,left,12:06:30:689,,,2018_Jun_06_1139,59.8982021669,MP-Perception Experiment,xx12w20,
285,vgpdm_dyn(10)-lvm(30)_final(4).mov,True,left,1,training(19).mov,0,125,125,86,,,,,,,,12:06:31:445,12:06:32:207,12:06:35:210,left,12:06:35:610,,,2018_Jun_06_1139,59.8982021669,MP-Perception Experiment,xx12w20,
286,training(38).mov,False,right,1,vgpdm_dyn(20)-lvm(5)_final(3).mov,0,126,126,15,,,,,,,,12:06:36:401,12:06:37:111,12:06:40:114,right,12:06:40:448,,,2018_Jun_06_1139,59.8982021669,MP-Perception Experiment,xx12w20,
287,training(29).mov,False,right,1,vgpdm_dyn(30)-lvm(30)_final(0).mov,0,127,127,112,,,,,,,,12:06:41:201,12:06:41:965,12:06:44:952,left,12:06:45:369,,,2018_Jun_06_1139,59.8982021669,MP-Perception Experiment,xx12w20,
288,vcgpdm_dyn(10)-lvm(15)_final(7).mov,True,left,1,training(39).mov,0,128,128,6,,,,,,,,12:06:46:126,12:06:46:870,12:06:49:873,right,12:06:50:507,,,2018_Jun_06_1139,59.8982021669,MP-Perception Experiment,xx12w20,
289,training(34).mov,True,right,1,vgpdm_dyn(30)-lvm(20)_final(9).mov,0,129,129,102,,,,,,,,12:06:51:262,12:06:52:008,12:06:55:027,right,12:06:55:344,,,2018_Jun_06_1139,59.8982021669,MP-Perception Experiment,xx12w20,
290,training(10).mov,True,right,1,vgpdm_dyn(35)-lvm(10)_final(8).mov,0,130,130,64,,,,,,,,12:06:56:102,12:06:56:845,12:06:59:846,right,12:07:00:246,,,2018_Jun_06_1139,59.8982021669,MP-Perception Experiment,xx12w20,
291,vgpdm_dyn(25)-lvm(20)_final(8).mov,True,left,1,training(31).mov,0,131,131,34,,,,,,,,12:07:00:997,12:07:01:748,12:07:04:751,left,12:07:05:068,,,2018_Jun_06_1139,59.8982021669,MP-Perception Experiment,xx12w20,
292,training(22).mov,False,right,1,vgpdm_dyn(25)-lvm(5)_final(5).mov,0,132,132,48,,,,,,,,12:07:05:821,12:07:06:569,12:07:09:571,left,12:07:10:138,,,2018_Jun_06_1139,59.8982021669,MP-Perception Experiment,xx12w20,
293,training(41).mov,False,right,1,vgpdm_dyn(30)-lvm(15)_final(0).mov,0,133,133,74,,,,,,,,12:07:10:885,12:07:11:639,12:07:14:627,right,12:07:14:977,,,2018_Jun_06_1139,59.8982021669,MP-Perception Experiment,xx12w20,
294,vcgpdm_dyn(10)-lvm(10)_final(5).mov,False,left,1,training(48).mov,0,134,134,144,,,,,,,,12:07:15:737,12:07:16:478,12:07:19:498,left,12:07:20:216,,,2018_Jun_06_1139,59.8982021669,MP-Perception Experiment,xx12w20,
295,vcgpdm_dyn(20)-lvm(20)_final(6).mov,False,left,1,training(10).mov,0,135,135,123,,,,,,,,12:07:20:964,12:07:21:717,12:07:24:720,right,12:07:25:070,,,2018_Jun_06_1139,59.8982021669,MP-Perception Experiment,xx12w20,
296,vgpdm_dyn(35)-lvm(25)_final(4).mov,False,left,1,training(38).mov,0,136,136,77,,,,,,,,12:07:25:825,12:07:26:571,12:07:29:573,right,12:07:30:074,,,2018_Jun_06_1139,59.8982021669,MP-Perception Experiment,xx12w20,
297,training(19).mov,False,right,1,vcgpdm_dyn(35)-lvm(10)_final(2).mov,0,137,137,142,,,,,,,,12:07:30:820,12:07:31:575,12:07:34:677,right,12:07:35:061,,,2018_Jun_06_1139,59.8982021669,MP-Perception Experiment,xx12w20,
298,vgpdm_dyn(5)-lvm(20)_final(8).mov,False,left,1,training(21).mov,0,138,138,44,,,,,,,,12:07:35:808,12:07:36:562,12:07:39:566,left,12:07:40:100,,,2018_Jun_06_1139,59.8982021669,MP-Perception Experiment,xx12w20,
299,training(39).mov,False,right,1,vgpdm_dyn(25)-lvm(35)_final(5).mov,0,139,139,96,,,,,,,,12:07:40:865,12:07:41:601,12:07:44:603,left,12:07:44:920,,,2018_Jun_06_1139,59.8982021669,MP-Perception Experiment,xx12w20,
300,training(40).mov,True,right,1,map_gpdm_final(0).mov,0,140,140,104,,,,,,,,12:07:45:684,12:07:46:421,12:07:49:422,right,12:07:49:889,,,2018_Jun_06_1139,59.8982021669,MP-Perception Experiment,xx12w20,
301,vcgpdm_dyn(20)-lvm(15)_final(9).mov,True,left,1,training(27).mov,0,141,141,43,,,,,,,,12:07:50:635,12:07:51:390,12:07:54:394,right,12:07:55:011,,,2018_Jun_06_1139,59.8982021669,MP-Perception Experiment,xx12w20,
302,training(11).mov,True,right,1,vcgpdm_dyn(30)-lvm(35)_final(7).mov,0,142,142,8,,,,,,,,12:07:55:764,12:07:56:512,12:07:59:514,left,12:07:59:848,,,2018_Jun_06_1139,59.8982021669,MP-Perception Experiment,xx12w20,
303,training(31).mov,False,right,1,map_cgpdm_final(1).mov,0,143,143,126,,,,,,,,12:08:00:612,12:08:01:351,12:08:04:353,right,12:08:05:288,,,2018_Jun_06_1139,59.8982021669,MP-Perception Experiment,xx12w20,
304,vcgpdm_dyn(30)-lvm(30)_final(0).mov,False,left,1,training(22).mov,0,144,144,21,,,,,,,,12:08:06:040,12:08:06:789,12:08:09:791,left,12:08:10:275,,,2018_Jun_06_1139,59.8982021669,MP-Perception Experiment,xx12w20,
305,training(29).mov,True,right,1,vcgpdm_dyn(15)-lvm(35)_final(0).mov,0,145,145,100,,,,,,,,12:08:11:063,12:08:11:777,12:08:14:779,right,12:08:15:180,,,2018_Jun_06_1139,59.8982021669,MP-Perception Experiment,xx12w20,
306,training(8).mov,True,right,1,vcgpdm_dyn(25)-lvm(35)_final(4).mov,0,146,146,95,,,,,,,,12:08:15:946,12:08:16:681,12:08:19:683,right,12:08:20:234,,,2018_Jun_06_1139,59.8982021669,MP-Perception Experiment,xx12w20,
307,vgpdm_dyn(5)-lvm(15)_final(7).mov,True,left,1,training(25).mov,0,147,147,26,,,,,,,,12:08:21:002,12:08:21:735,12:08:24:737,left,12:08:25:305,,,2018_Jun_06_1139,59.8982021669,MP-Perception Experiment,xx12w20,
308,training(14).mov,True,right,1,vgpdm_dyn(25)-lvm(35)_final(7).mov,0,148,148,118,,,,,,,,12:08:26:066,12:08:26:806,12:08:29:809,right,12:08:30:276,,,2018_Jun_06_1139,59.8982021669,MP-Perception Experiment,xx12w20,
309,training(19).mov,True,right,1,vgpdm_dyn(20)-lvm(5)_final(6).mov,0,149,149,116,,,,,,,,12:08:31:225,12:08:31:778,12:08:34:780,left,12:08:35:714,,,2018_Jun_06_1139,59.8982021669,MP-Perception Experiment,xx12w20,
310,training(32).mov,False,right,1,vgpdm_dyn(5)-lvm(10)_final(1).mov,0,150,150,58,,,,,,,,12:08:36:467,12:08:37:215,12:08:40:216,right,12:08:40:900,,,2018_Jun_06_1139,59.8982021669,MP-Perception Experiment,xx12w20,
311,tmp_numprim(6)_final(0).mov,False,left,1,training(26).mov,0,151,151,68,,,,,,,,12:08:41:671,12:08:42:401,12:08:45:403,right,12:08:45:754,,,2018_Jun_06_1139,59.8982021669,MP-Perception Experiment,xx12w20,
312,vgpdm_dyn(15)-lvm(30)_final(2).mov,True,left,1,training(12).mov,0,152,152,22,,,,,,,,12:08:46:517,12:08:47:256,12:08:50:258,left,12:08:50:559,,,2018_Jun_06_1139,59.8982021669,MP-Perception Experiment,xx12w20,
313,training(26).mov,False,right,1,vcgpdm_dyn(35)-lvm(20)_final(8).mov,0,153,153,16,,,,,,,,12:08:51:321,12:08:52:060,12:08:55:064,left,12:08:55:481,,,2018_Jun_06_1139,59.8982021669,MP-Perception Experiment,xx12w20,
314,vcgpdm_dyn(5)-lvm(25)_final(2).mov,True,left,1,training(35).mov,0,154,154,98,,,,,,,,12:08:56:232,12:08:56:982,12:09:00:001,left,12:09:00:469,,,2018_Jun_06_1139,59.8982021669,MP-Perception Experiment,xx12w20,
315,vcgpdm_dyn(30)-lvm(10)_final(2).mov,False,left,1,training(48).mov,0,155,155,41,,,,,,,,12:09:01:220,12:09:01:986,12:09:04:973,left,12:09:05:524,,,2018_Jun_06_1139,59.8982021669,MP-Perception Experiment,xx12w20,
316,training(16).mov,True,right,1,vcgpdm_dyn(5)-lvm(20)_final(4).mov,0,156,156,88,,,,,,,,12:09:06:282,12:09:07:025,12:09:10:027,left,12:09:10:628,,,2018_Jun_06_1139,59.8982021669,MP-Perception Experiment,xx12w20,
317,training(15).mov,False,right,1,dmp_npsi(25)_final(6).mov,0,157,157,82,,,,,,,,12:09:11:379,12:09:12:145,12:09:15:131,right,12:09:15:648,,,2018_Jun_06_1139,59.8982021669,MP-Perception Experiment,xx12w20,
318,training(23).mov,True,right,1,vgpdm_dyn(25)-lvm(25)_final(1)_bad.mov,0,158,158,27,,,,,,,,12:09:16:405,12:09:17:166,12:09:20:169,right,12:09:20:636,,,2018_Jun_06_1139,59.8982021669,MP-Perception Experiment,xx12w20,
319,training(24).mov,False,right,2,tmp_numprim(6)_final(7).mov,0,0,0,158,,,,,,,,12:11:09:440,12:11:10:179,12:11:13:165,right,12:11:13:982,,,2018_Jun_06_1139,59.8982021669,MP-Perception Experiment,xx12w20,
320,training(10).mov,False,right,2,vgpdm_dyn(10)-lvm(35)_final(4).mov,0,1,1,90,,,,,,,,12:11:14:728,12:11:15:500,12:11:18:486,right,12:11:18:853,,,2018_Jun_06_1139,59.8982021669,MP-Perception Experiment,xx12w20,
321,vgpdm_dyn(35)-lvm(10)_final(1).mov,False,left,2,training(29).mov,0,2,2,36,,,,,,,,12:11:19:618,12:11:20:356,12:11:23:341,left,12:11:23:725,,,2018_Jun_06_1139,59.8982021669,MP-Perception Experiment,xx12w20,
322,training(4).mov,False,right,2,vgpdm_dyn(10)-lvm(15)_final(7).mov,0,3,3,54,,,,,,,,12:11:24:481,12:11:25:228,12:11:28:230,right,12:11:28:697,,,2018_Jun_06_1139,59.8982021669,MP-Perception Experiment,xx12w20,
323,vcgpdm_dyn(25)-lvm(25)_final(3).mov,True,left,2,training(30).mov,0,4,4,63,,,,,,,,12:11:29:456,12:11:30:198,12:11:33:201,right,12:11:33:885,,,2018_Jun_06_1139,59.8982021669,MP-Perception Experiment,xx12w20,
324,dmp_npsi(40)_final(0).mov,False,left,2,training(0).mov,0,5,5,6,,,,,,,,12:11:34:618,12:11:35:386,12:11:38:389,right,12:11:39:189,,,2018_Jun_06_1139,59.8982021669,MP-Perception Experiment,xx12w20,
325,training(39).mov,False,right,2,dmp_npsi(25)_final(0).mov,0,6,6,76,,,,,,,,12:11:39:943,12:11:40:690,12:11:43:710,right,12:11:44:127,,,2018_Jun_06_1139,59.8982021669,MP-Perception Experiment,xx12w20,
326,training(34).mov,True,right,2,dmp_npsi(10)_final(7)_bad.mov,0,7,7,144,,,,,,,,12:11:44:892,12:11:45:628,12:11:48:631,right,12:11:49:181,,,2018_Jun_06_1139,59.8982021669,MP-Perception Experiment,xx12w20,
327,vcgpdm_dyn(25)-lvm(5)_final(0).mov,True,left,2,training(5).mov,0,8,8,91,,,,,,,,12:11:49:936,12:11:50:682,12:11:53:701,right,12:11:54:085,,,2018_Jun_06_1139,59.8982021669,MP-Perception Experiment,xx12w20,
328,training(14).mov,True,right,2,vcgpdm_dyn(35)-lvm(20)_final(6).mov,0,9,9,136,,,,,,,,12:11:54:841,12:11:55:586,12:11:58:589,right,12:11:59:038,,,2018_Jun_06_1139,59.8982021669,MP-Perception Experiment,xx12w20,
329,tmp_numprim(8)_final(6).mov,True,left,2,training(3).mov,0,10,10,65,,,,,,,,12:11:59:804,12:12:00:556,12:12:03:542,left,12:12:03:942,,,2018_Jun_06_1139,59.8982021669,MP-Perception Experiment,xx12w20,
330,training(2).mov,False,right,2,vcgpdm_dyn(30)-lvm(20)_final(4).mov,0,11,11,52,,,,,,,,12:12:04:697,12:12:05:444,12:12:08:446,right,12:12:08:763,,,2018_Jun_06_1139,59.8982021669,MP-Perception Experiment,xx12w20,
331,dmp_npsi(30)_final(7).mov,False,left,2,training(27).mov,0,12,12,115,,,,,,,,12:12:09:514,12:12:10:266,12:12:13:251,right,12:12:13:802,,,2018_Jun_06_1139,59.8982021669,MP-Perception Experiment,xx12w20,
332,training(5).mov,False,right,2,tmp_numprim(6)_final(0).mov,0,13,13,94,,,,,,,,12:12:14:559,12:12:15:320,12:12:18:323,right,12:12:18:674,,,2018_Jun_06_1139,59.8982021669,MP-Perception Experiment,xx12w20,
333,vcgpdm_dyn(15)-lvm(25)_final(8).mov,False,left,2,training(25).mov,0,14,14,133,,,,,,,,12:12:19:427,12:12:20:192,12:12:23:177,left,12:12:23:694,,,2018_Jun_06_1139,59.8982021669,MP-Perception Experiment,xx12w20,
334,training(26).mov,True,right,2,vcgpdm_dyn(30)-lvm(20)_final(7).mov,0,15,15,116,,,,,,,,12:12:24:448,12:12:25:196,12:12:28:198,left,12:12:28:682,,,2018_Jun_06_1139,59.8982021669,MP-Perception Experiment,xx12w20,
335,dmp_npsi(30)_final(3).mov,True,left,2,training(30).mov,0,16,16,153,,,,,,,,12:12:29:460,12:12:30:183,12:12:33:185,left,12:12:33:636,,,2018_Jun_06_1139,59.8982021669,MP-Perception Experiment,xx12w20,
336,tmp_numprim(5)_final(0).mov,False,left,2,training(5).mov,0,17,17,87,,,,,,,,12:12:34:391,12:12:35:138,12:12:38:140,left,12:12:38:524,,,2018_Jun_06_1139,59.8982021669,MP-Perception Experiment,xx12w20,
337,vgpdm_dyn(20)-lvm(35)_final(5).mov,False,left,2,training(31).mov,0,18,18,44,,,,,,,,12:12:39:469,12:12:40:025,12:12:43:028,left,12:12:43:395,,,2018_Jun_06_1139,59.8982021669,MP-Perception Experiment,xx12w20,
338,vcgpdm_dyn(35)-lvm(5)_final(5).mov,False,left,2,training(0).mov,0,19,19,156,,,,,,,,12:12:44:160,12:12:44:896,12:12:47:898,left,12:12:48:365,,,2018_Jun_06_1139,59.8982021669,MP-Perception Experiment,xx12w20,
339,tmp_numprim(2)_final(9).mov,False,left,2,training(18).mov,0,20,20,80,,,,,,,,12:12:49:136,12:12:49:881,12:12:52:885,left,12:12:53:385,,,2018_Jun_06_1139,59.8982021669,MP-Perception Experiment,xx12w20,
340,training(20).mov,False,right,2,vgpdm_dyn(35)-lvm(15)_final(0)_out_of_screen.mov,0,21,21,135,,,,,,,,12:12:54:142,12:12:54:903,12:12:57:889,right,12:12:58:306,,,2018_Jun_06_1139,59.8982021669,MP-Perception Experiment,xx12w20,
341,training(39).mov,False,right,2,dmp_npsi(35)_final(8).mov,0,22,22,9,,,,,,,,12:12:59:066,12:12:59:807,12:13:02:794,right,12:13:03:212,,,2018_Jun_06_1139,59.8982021669,MP-Perception Experiment,xx12w20,
342,training(24).mov,False,right,2,vcgpdm_dyn(30)-lvm(5)_final(3).mov,0,23,23,98,,,,,,,,12:13:03:974,12:13:04:713,12:13:07:715,right,12:13:08:166,,,2018_Jun_06_1139,59.8982021669,MP-Perception Experiment,xx12w20,
343,training(11).mov,True,right,2,vgpdm_dyn(30)-lvm(10)_final(6).mov,0,24,24,142,,,,,,,,12:13:08:944,12:13:09:684,12:13:12:670,left,12:13:13:104,,,2018_Jun_06_1139,59.8982021669,MP-Perception Experiment,xx12w20,
344,training(6).mov,False,right,2,vcgpdm_dyn(35)-lvm(10)_final(8).mov,0,25,25,55,,,,,,,,12:13:13:864,12:13:14:622,12:13:17:608,right,12:13:17:991,,,2018_Jun_06_1139,59.8982021669,MP-Perception Experiment,xx12w20,
345,vgpdm_dyn(30)-lvm(5)_final(1).mov,False,left,2,training(24).mov,0,26,26,14,,,,,,,,12:13:18:740,12:13:19:492,12:13:22:495,left,12:13:22:979,,,2018_Jun_06_1139,59.8982021669,MP-Perception Experiment,xx12w20,
346,training(2).mov,False,right,2,vcgpdm_dyn(30)-lvm(20)_final(6).mov,0,27,27,122,,,,,,,,12:13:23:733,12:13:24:480,12:13:27:484,right,12:13:27:950,,,2018_Jun_06_1139,59.8982021669,MP-Perception Experiment,xx12w20,
347,vcgpdm_dyn(5)-lvm(25)_final(2).mov,False,left,2,training(26).mov,0,28,28,106,,,,,,,,12:13:28:696,12:13:29:451,12:13:32:454,left,12:13:32:921,,,2018_Jun_06_1139,59.8982021669,MP-Perception Experiment,xx12w20,
348,training(2).mov,True,right,2,vgpdm_dyn(15)-lvm(10)_final(9)_out_of_screen.mov,0,29,29,102,,,,,,,,12:13:33:862,12:13:34:422,12:13:37:424,right,12:13:37:942,,,2018_Jun_06_1139,59.8982021669,MP-Perception Experiment,xx12w20,
349,training(32).mov,False,right,2,vcgpdm_dyn(25)-lvm(20)_final(7).mov,0,30,30,48,,,,,,,,12:13:38:700,12:13:39:458,12:13:42:444,left,12:13:42:811,,,2018_Jun_06_1139,59.8982021669,MP-Perception Experiment,xx12w20,
350,training(25).mov,False,right,2,dmp_npsi(45)_final(0).mov,0,31,31,34,,,,,,,,12:13:43:562,12:13:44:313,12:13:47:315,right,12:13:47:732,,,2018_Jun_06_1139,59.8982021669,MP-Perception Experiment,xx12w20,
351,tmp_numprim(2)_final(7).mov,True,left,2,training(32).mov,0,32,32,61,,,,,,,,12:13:48:487,12:13:49:250,12:13:52:221,left,12:13:52:638,,,2018_Jun_06_1139,59.8982021669,MP-Perception Experiment,xx12w20,
352,training(21).mov,False,right,2,vgpdm_dyn(25)-lvm(5)_final(2).mov,0,33,33,59,,,,,,,,12:13:53:400,12:13:54:139,12:13:57:142,right,12:13:57:576,,,2018_Jun_06_1139,59.8982021669,MP-Perception Experiment,xx12w20,
353,training(30).mov,False,right,2,vcgpdm_dyn(10)-lvm(25)_final(8).mov,0,34,34,124,,,,,,,,12:13:58:343,12:13:59:076,12:14:02:097,right,12:14:02:497,,,2018_Jun_06_1139,59.8982021669,MP-Perception Experiment,xx12w20,
354,vcgpdm_dyn(25)-lvm(10)_final(5).mov,True,left,2,training(21).mov,0,35,35,108,,,,,,,,12:14:03:249,12:14:04:015,12:14:07:000,right,12:14:07:384,,,2018_Jun_06_1139,59.8982021669,MP-Perception Experiment,xx12w20,
355,training(7).mov,True,right,2,vcgpdm_dyn(35)-lvm(15)_final(5)_out_of_screen.mov,0,36,36,37,,,,,,,,12:14:08:317,12:14:08:885,12:14:11:888,right,12:14:12:255,,,2018_Jun_06_1139,59.8982021669,MP-Perception Experiment,xx12w20,
356,vgpdm_dyn(15)-lvm(5)_final(4).mov,False,left,2,training(15).mov,0,37,37,62,,,,,,,,12:14:13:028,12:14:13:756,12:14:16:758,left,12:14:17:159,,,2018_Jun_06_1139,59.8982021669,MP-Perception Experiment,xx12w20,
357,training(31).mov,True,right,2,vcgpdm_dyn(10)-lvm(10)_final(6).mov,0,38,38,140,,,,,,,,12:14:18:813,12:14:18:813,12:14:21:663,right,12:14:22:147,,,2018_Jun_06_1139,59.8982021669,MP-Perception Experiment,xx12w20,
358,tmp_numprim(10)_final(0).mov,False,left,2,training(48).mov,0,39,39,151,,,,,,,,12:14:22:918,12:14:23:648,12:14:26:651,right,12:14:27:218,,,2018_Jun_06_1139,59.8982021669,MP-Perception Experiment,xx12w20,
359,vcgpdm_dyn(30)-lvm(30)_final(8).mov,True,left,2,training(30).mov,0,40,40,137,,,,,,,,12:14:27:969,12:14:28:719,12:14:31:720,left,12:14:32:087,,,2018_Jun_06_1139,59.8982021669,MP-Perception Experiment,xx12w20,
360,training(26).mov,True,right,2,vcgpdm_dyn(25)-lvm(25)_final(6).mov,0,41,41,72,,,,,,,,12:14:32:854,12:14:33:588,12:14:36:591,right,12:14:37:242,,,2018_Jun_06_1139,59.8982021669,MP-Perception Experiment,xx12w20,
361,vcgpdm_dyn(30)-lvm(25)_final(4).mov,True,left,2,training(41).mov,0,42,42,92,,,,,,,,12:14:38:003,12:14:38:743,12:14:41:730,left,12:14:42:198,,,2018_Jun_06_1139,59.8982021669,MP-Perception Experiment,xx12w20,
362,training(24).mov,True,right,2,vcgpdm_dyn(15)-lvm(20)_final(2).mov,0,43,43,84,,,,,,,,12:14:42:962,12:14:43:699,12:14:46:701,left,12:14:47:152,,,2018_Jun_06_1139,59.8982021669,MP-Perception Experiment,xx12w20,
363,training(40).mov,False,right,2,vgpdm_dyn(30)-lvm(25)_final(1).mov,0,44,44,139,,,,,,,,12:14:47:923,12:14:48:653,12:14:51:672,right,12:14:52:189,,,2018_Jun_06_1139,59.8982021669,MP-Perception Experiment,xx12w20,
364,tmp_numprim(8)_final(8).mov,False,left,2,training(23).mov,0,45,45,81,,,,,,,,12:14:52:955,12:14:53:690,12:14:56:694,right,12:14:57:027,,,2018_Jun_06_1139,59.8982021669,MP-Perception Experiment,xx12w20,
365,vcgpdm_dyn(30)-lvm(5)_final(6).mov,False,left,2,training(16).mov,0,46,46,13,,,,,,,,12:14:57:798,12:14:58:528,12:15:01:531,right,12:15:01:981,,,2018_Jun_06_1139,59.8982021669,MP-Perception Experiment,xx12w20,
366,training(6).mov,False,right,2,vcgpdm_dyn(10)-lvm(30)_final(6).mov,0,47,47,107,,,,,,,,12:15:02:737,12:15:03:482,12:15:06:485,right,12:15:06:868,,,2018_Jun_06_1139,59.8982021669,MP-Perception Experiment,xx12w20,
367,vcgpdm_dyn(30)-lvm(15)_final(0).mov,True,left,2,training(5).mov,0,48,48,131,,,,,,,,12:15:07:627,12:15:08:370,12:15:11:540,left,12:15:11:924,,,2018_Jun_06_1139,59.8982021669,MP-Perception Experiment,xx12w20,
368,vcgpdm_dyn(25)-lvm(20)_final(3).mov,True,left,2,training(35).mov,0,49,49,89,,,,,,,,12:15:12:665,12:15:13:425,12:15:16:427,left,12:15:16:945,,,2018_Jun_06_1139,59.8982021669,MP-Perception Experiment,xx12w20,
369,vgpdm_dyn(5)-lvm(30)_final(1).mov,True,left,2,training(39).mov,0,50,50,7,,,,,,,,12:15:18:429,12:15:18:445,12:15:21:446,left,12:15:21:963,,,2018_Jun_06_1139,59.8982021669,MP-Perception Experiment,xx12w20,
370,vcgpdm_dyn(15)-lvm(15)_final(0).mov,False,left,2,training(41).mov,0,51,51,47,,,,,,,,12:15:22:901,12:15:23:464,12:15:26:467,left,12:15:26:917,,,2018_Jun_06_1139,59.8982021669,MP-Perception Experiment,xx12w20,
371,training(3).mov,False,right,2,dmp_npsi(20)_final(2).mov,0,52,52,103,,,,,,,,12:15:27:678,12:15:28:418,12:15:31:407,right,12:15:31:841,,,2018_Jun_06_1139,59.8982021669,MP-Perception Experiment,xx12w20,
372,tmp_numprim(9)_final(8).mov,False,left,2,training(1).mov,0,53,53,57,,,,,,,,12:15:32:599,12:15:33:342,12:15:36:361,left,12:15:36:878,,,2018_Jun_06_1139,59.8982021669,MP-Perception Experiment,xx12w20,
373,vgpdm_dyn(25)-lvm(35)_final(4).mov,False,left,2,training(26).mov,0,54,54,25,,,,,,,,12:15:37:633,12:15:38:396,12:15:41:382,right,12:15:41:849,,,2018_Jun_06_1139,59.8982021669,MP-Perception Experiment,xx12w20,
374,tmp_numprim(2)_final(3).mov,True,left,2,training(41).mov,0,55,55,127,,,,,,,,12:15:42:641,12:15:43:366,12:15:46:353,left,12:15:46:804,,,2018_Jun_06_1139,59.8982021669,MP-Perception Experiment,xx12w20,
375,training(2).mov,False,right,2,vgpdm_dyn(35)-lvm(10)_final(3).mov,0,56,56,58,,,,,,,,12:15:47:563,12:15:48:305,12:15:51:307,left,12:15:51:825,,,2018_Jun_06_1139,59.8982021669,MP-Perception Experiment,xx12w20,
376,training(14).mov,False,right,2,tmp_numprim(6)_final(5).mov,0,57,57,85,,,,,,,,12:15:52:749,12:15:53:326,12:15:56:328,left,12:15:56:829,,,2018_Jun_06_1139,59.8982021669,MP-Perception Experiment,xx12w20,
377,vcgpdm_dyn(10)-lvm(25)_final(9).mov,True,left,2,training(9).mov,0,58,58,42,,,,,,,,12:15:57:598,12:15:58:346,12:16:01:332,left,12:16:01:733,,,2018_Jun_06_1139,59.8982021669,MP-Perception Experiment,xx12w20,
378,training(36).mov,True,right,2,tmp_numprim(6)_final(9).mov,0,59,59,21,,,,,,,,12:16:02:483,12:16:03:234,12:16:06:237,right,12:16:06:687,,,2018_Jun_06_1139,59.8982021669,MP-Perception Experiment,xx12w20,
379,vcgpdm_dyn(5)-lvm(5)_final(6).mov,False,left,2,training(23).mov,0,60,60,1,,,,,,,,12:16:07:449,12:16:08:205,12:16:11:189,left,12:16:11:723,,,2018_Jun_06_1139,59.8982021669,MP-Perception Experiment,xx12w20,
380,training(9).mov,True,right,2,vgpdm_dyn(5)-lvm(15)_final(8).mov,0,61,61,97,,,,,,,,12:16:12:473,12:16:13:241,12:16:16:227,right,12:16:16:527,,,2018_Jun_06_1139,59.8982021669,MP-Perception Experiment,xx12w20,
381,vgpdm_dyn(25)-lvm(35)_final(3).mov,True,left,2,training(11).mov,0,62,62,155,,,,,,,,12:16:18:213,12:16:18:213,12:16:21:015,right,12:16:21:567,,,2018_Jun_06_1139,59.8982021669,MP-Perception Experiment,xx12w20,
382,dmp_npsi(50)_final(1).mov,False,left,2,training(38).mov,0,63,63,109,,,,,,,,12:16:22:325,12:16:23:068,12:16:26:071,right,12:16:26:521,,,2018_Jun_06_1139,59.8982021669,MP-Perception Experiment,xx12w20,
383,training(25).mov,True,right,2,vcgpdm_dyn(10)-lvm(15)_final(3).mov,0,64,64,74,,,,,,,,12:16:27:297,12:16:28:022,12:16:31:025,right,12:16:31:392,,,2018_Jun_06_1139,59.8982021669,MP-Perception Experiment,xx12w20,
384,training(3).mov,False,right,2,vcgpdm_dyn(25)-lvm(5)_final(6).mov,0,65,65,129,,,,,,,,12:16:32:153,12:16:32:910,12:16:35:895,right,12:16:36:279,,,2018_Jun_06_1139,59.8982021669,MP-Perception Experiment,xx12w20,
385,vgpdm_dyn(10)-lvm(10)_final(7).mov,True,left,2,training(15).mov,0,66,66,30,,,,,,,,12:16:37:229,12:16:37:780,12:16:40:784,left,12:16:41:234,,,2018_Jun_06_1139,59.8982021669,MP-Perception Experiment,xx12w20,
386,vcgpdm_dyn(35)-lvm(10)_final(8).mov,False,left,2,training(34).mov,0,67,67,50,,,,,,,,12:16:41:982,12:16:42:752,12:16:45:737,left,12:16:46:238,,,2018_Jun_06_1139,59.8982021669,MP-Perception Experiment,xx12w20,
387,training(14).mov,False,right,2,vgpdm_dyn(10)-lvm(10)_final(2).mov,0,68,68,110,,,,,,,,12:16:47:183,12:16:47:739,12:16:50:742,right,12:16:51:142,,,2018_Jun_06_1139,59.8982021669,MP-Perception Experiment,xx12w20,
388,vcgpdm_dyn(30)-lvm(5)_final(6).mov,True,left,2,training(14).mov,0,69,69,39,,,,,,,,12:16:51:903,12:16:52:643,12:16:55:645,left,12:16:55:996,,,2018_Jun_06_1139,59.8982021669,MP-Perception Experiment,xx12w20,
389,vcgpdm_dyn(15)-lvm(15)_final(3).mov,False,left,2,training(40).mov,0,70,70,5,,,,,,,,12:16:56:933,12:16:57:498,12:17:00:499,left,12:17:00:866,,,2018_Jun_06_1139,59.8982021669,MP-Perception Experiment,xx12w20,
390,vcgpdm_dyn(25)-lvm(15)_final(1).mov,False,left,2,training(28).mov,0,71,71,20,,,,,,,,12:17:01:612,12:17:02:367,12:17:05:503,left,12:17:05:853,,,2018_Jun_06_1139,59.8982021669,MP-Perception Experiment,xx12w20,
391,tmp_numprim(5)_final(1).mov,True,left,2,training(8).mov,0,72,72,145,,,,,,,,12:17:06:591,12:17:07:371,12:17:10:375,left,12:17:10:659,,,2018_Jun_06_1139,59.8982021669,MP-Perception Experiment,xx12w20,
392,training(38).mov,False,right,2,vgpdm_dyn(25)-lvm(20)_final(5).mov,0,73,73,120,,,,,,,,12:17:11:412,12:17:12:160,12:17:15:163,right,12:17:15:564,,,2018_Jun_06_1139,59.8982021669,MP-Perception Experiment,xx12w20,
393,training(32).mov,False,right,2,vgpdm_dyn(25)-lvm(5)_final(1).mov,0,74,74,132,,,,,,,,12:17:16:322,12:17:17:065,12:17:20:067,right,12:17:20:768,,,2018_Jun_06_1139,59.8982021669,MP-Perception Experiment,xx12w20,
394,training(27).mov,True,right,2,vcgpdm_dyn(20)-lvm(10)_final(9).mov,0,75,75,32,,,,,,,,12:17:21:531,12:17:22:269,12:17:25:271,left,12:17:26:189,,,2018_Jun_06_1139,59.8982021669,MP-Perception Experiment,xx12w20,
395,training(16).mov,True,right,2,vgpdm_dyn(15)-lvm(25)_final(6).mov,0,76,76,69,,,,,,,,12:17:26:935,12:17:27:690,12:17:30:843,right,12:17:31:244,,,2018_Jun_06_1139,59.8982021669,MP-Perception Experiment,xx12w20,
396,training(22).mov,True,right,2,vcgpdm_dyn(20)-lvm(20)_final(6).mov,0,77,77,150,,,,,,,,12:17:31:993,12:17:32:762,12:17:35:747,left,12:17:36:448,,,2018_Jun_06_1139,59.8982021669,MP-Perception Experiment,xx12w20,
397,training(7).mov,False,right,2,vcgpdm_dyn(30)-lvm(35)_final(0).mov,0,78,78,26,,,,,,,,12:17:37:389,12:17:37:949,12:17:40:952,right,12:17:41:602,,,2018_Jun_06_1139,59.8982021669,MP-Perception Experiment,xx12w20,
398,vcgpdm_dyn(5)-lvm(10)_final(8).mov,True,left,2,training(13).mov,0,79,79,33,,,,,,,,12:17:42:365,12:17:43:103,12:17:46:122,left,12:17:46:973,,,2018_Jun_06_1139,59.8982021669,MP-Perception Experiment,xx12w20,
399,vcgpdm_dyn(25)-lvm(15)_final(8).mov,False,left,2,training(15).mov,0,80,80,79,,,,,,,,12:17:47:746,12:17:48:475,12:17:51:476,left,12:17:51:726,,,2018_Jun_06_1139,59.8982021669,MP-Perception Experiment,xx12w20,
400,training(23).mov,True,right,2,vcgpdm_dyn(25)-lvm(20)_final(3).mov,0,81,81,146,,,,,,,,12:17:52:476,12:17:53:227,12:17:56:347,right,12:17:56:631,,,2018_Jun_06_1139,59.8982021669,MP-Perception Experiment,xx12w20,
401,dmp_npsi(30)_final(0).mov,False,left,2,training(30).mov,0,82,82,41,,,,,,,,12:17:57:390,12:17:58:131,12:18:01:134,left,12:18:01:585,,,2018_Jun_06_1139,59.8982021669,MP-Perception Experiment,xx12w20,
402,dmp_npsi(30)_final(1).mov,False,left,2,training(10).mov,0,83,83,148,,,,,,,,12:18:02:342,12:18:03:087,12:18:06:091,left,12:18:06:675,,,2018_Jun_06_1139,59.8982021669,MP-Perception Experiment,xx12w20,
403,training(24).mov,True,right,2,vcgpdm_dyn(5)-lvm(15)_final(3).mov,0,84,84,49,,,,,,,,12:18:07:602,12:18:08:192,12:18:11:195,left,12:18:11:862,,,2018_Jun_06_1139,59.8982021669,MP-Perception Experiment,xx12w20,
404,training(27).mov,True,right,2,vgpdm_dyn(5)-lvm(35)_final(4)_bad.mov,0,85,85,53,,,,,,,,12:18:12:620,12:18:13:363,12:18:16:366,right,12:18:16:749,,,2018_Jun_06_1139,59.8982021669,MP-Perception Experiment,xx12w20,
405,vgpdm_dyn(5)-lvm(20)_final(6).mov,False,left,2,training(37).mov,0,86,86,130,,,,,,,,12:18:18:371,12:18:18:371,12:18:21:253,right,12:18:21:787,,,2018_Jun_06_1139,59.8982021669,MP-Perception Experiment,xx12w20,
406,training(35).mov,False,right,2,vgpdm_dyn(15)-lvm(30)_final(0).mov,0,87,87,101,,,,,,,,12:18:22:733,12:18:23:288,12:18:26:291,right,12:18:26:758,,,2018_Jun_06_1139,59.8982021669,MP-Perception Experiment,xx12w20,
407,vcgpdm_dyn(20)-lvm(10)_final(4).mov,False,left,2,training(4).mov,0,88,88,104,,,,,,,,12:18:27:699,12:18:28:276,12:18:31:279,left,12:18:31:746,,,2018_Jun_06_1139,59.8982021669,MP-Perception Experiment,xx12w20,
408,vgpdm_dyn(30)-lvm(15)_final(0).mov,False,left,2,training(27).mov,0,89,89,15,,,,,,,,12:18:32:492,12:18:33:247,12:18:36:249,right,12:18:36:750,,,2018_Jun_06_1139,59.8982021669,MP-Perception Experiment,xx12w20,
409,vgpdm_dyn(35)-lvm(20)_final(8)_out_of_screen.mov,True,left,2,training(29).mov,0,90,90,23,,,,,,,,12:18:37:682,12:18:38:268,12:18:41:253,left,12:18:41:603,,,2018_Jun_06_1139,59.8982021669,MP-Perception Experiment,xx12w20,
410,vcgpdm_dyn(25)-lvm(35)_final(7).mov,True,left,2,training(48).mov,0,91,91,88,,,,,,,,12:18:42:364,12:18:43:121,12:18:46:107,left,12:18:46:407,,,2018_Jun_06_1139,59.8982021669,MP-Perception Experiment,xx12w20,
411,vgpdm_dyn(20)-lvm(15)_final(0).mov,False,left,2,training(4).mov,0,92,92,152,,,,,,,,12:18:47:161,12:18:47:908,12:18:50:896,right,12:18:51:429,,,2018_Jun_06_1139,59.8982021669,MP-Perception Experiment,xx12w20,
412,vcgpdm_dyn(5)-lvm(5)_final(5).mov,True,left,2,training(4).mov,0,93,93,154,,,,,,,,12:18:52:186,12:18:52:947,12:18:55:933,left,12:18:56:283,,,2018_Jun_06_1139,59.8982021669,MP-Perception Experiment,xx12w20,
413,vcgpdm_dyn(25)-lvm(30)_final(2).mov,False,left,2,training(11).mov,0,94,94,73,,,,,,,,12:18:57:040,12:18:57:784,12:19:00:788,right,12:19:01:205,,,2018_Jun_06_1139,59.8982021669,MP-Perception Experiment,xx12w20,
414,vcgpdm_dyn(25)-lvm(30)_final(0).mov,False,left,2,training(29).mov,0,95,95,2,,,,,,,,12:19:01:964,12:19:02:723,12:19:05:708,right,12:19:06:126,,,2018_Jun_06_1139,59.8982021669,MP-Perception Experiment,xx12w20,
415,tmp_numprim(7)_final(1).mov,False,left,2,training(41).mov,0,96,96,8,,,,,,,,12:19:06:888,12:19:07:627,12:19:10:629,left,12:19:11:046,,,2018_Jun_06_1139,59.8982021669,MP-Perception Experiment,xx12w20,
416,training(37).mov,True,right,2,vcgpdm_dyn(15)-lvm(25)_final(4).mov,0,97,97,95,,,,,,,,12:19:11:807,12:19:12:547,12:19:15:550,right,12:19:16:185,,,2018_Jun_06_1139,59.8982021669,MP-Perception Experiment,xx12w20,
417,tmp_numprim(8)_final(0).mov,True,left,2,training(32).mov,0,98,98,126,,,,,,,,12:19:16:945,12:19:17:686,12:19:20:688,right,12:19:21:305,,,2018_Jun_06_1139,59.8982021669,MP-Perception Experiment,xx12w20,
418,training(29).mov,False,right,2,vcgpdm_dyn(15)-lvm(5)_final(7).mov,0,99,99,138,,,,,,,,12:19:22:062,12:19:22:807,12:19:25:809,right,12:19:26:310,,,2018_Jun_06_1139,59.8982021669,MP-Perception Experiment,xx12w20,
419,training(6).mov,True,right,2,tmp_numprim(3)_final(4).mov,0,100,100,128,,,,,,,,12:19:27:056,12:19:27:811,12:19:30:811,right,12:19:31:195,,,2018_Jun_06_1139,59.8982021669,MP-Perception Experiment,xx12w20,
420,training(16).mov,True,right,2,tmp_numprim(3)_final(7).mov,0,101,101,141,,,,,,,,12:19:31:952,12:19:32:713,12:19:35:700,right,12:19:36:067,,,2018_Jun_06_1139,59.8982021669,MP-Perception Experiment,xx12w20,
421,vcgpdm_dyn(20)-lvm(5)_final(2).mov,False,left,2,training(24).mov,0,102,102,149,,,,,,,,12:19:36:821,12:19:37:584,12:19:40:587,left,12:19:40:987,,,2018_Jun_06_1139,59.8982021669,MP-Perception Experiment,xx12w20,
422,training(37).mov,True,right,2,vgpdm_dyn(20)-lvm(20)_final(9).mov,0,103,103,45,,,,,,,,12:19:41:760,12:19:42:488,12:19:45:493,left,12:19:45:826,,,2018_Jun_06_1139,59.8982021669,MP-Perception Experiment,xx12w20,
423,vcgpdm_dyn(20)-lvm(10)_final(0).mov,True,left,2,training(11).mov,0,104,104,93,,,,,,,,12:19:46:594,12:19:47:327,12:19:50:330,left,12:19:50:764,,,2018_Jun_06_1139,59.8982021669,MP-Perception Experiment,xx12w20,
424,training(33).mov,False,right,2,vgpdm_dyn(35)-lvm(35)_final(2).mov,0,105,105,157,,,,,,,,12:19:51:530,12:19:52:266,12:19:55:268,right,12:19:56:002,,,2018_Jun_06_1139,59.8982021669,MP-Perception Experiment,xx12w20,
425,training(31).mov,False,right,2,vgpdm_dyn(15)-lvm(15)_final(8).mov,0,106,106,3,,,,,,,,12:19:56:929,12:19:57:520,12:20:00:506,right,12:20:00:939,,,2018_Jun_06_1139,59.8982021669,MP-Perception Experiment,xx12w20,
426,training(25).mov,False,right,2,vcgpdm_dyn(20)-lvm(5)_final(1).mov,0,107,107,134,,,,,,,,12:20:01:708,12:20:02:441,12:20:05:443,right,12:20:06:244,,,2018_Jun_06_1139,59.8982021669,MP-Perception Experiment,xx12w20,
427,training(16).mov,False,right,2,vgpdm_dyn(20)-lvm(20)_final(8).mov,0,108,108,118,,,,,,,,12:20:07:011,12:20:07:745,12:20:10:748,right,12:20:11:149,,,2018_Jun_06_1139,59.8982021669,MP-Perception Experiment,xx12w20,
428,vcgpdm_dyn(20)-lvm(15)_final(0).mov,True,left,2,training(15).mov,0,109,109,66,,,,,,,,12:20:11:907,12:20:12:650,12:20:15:669,left,12:20:16:019,,,2018_Jun_06_1139,59.8982021669,MP-Perception Experiment,xx12w20,
429,vcgpdm_dyn(25)-lvm(20)_final(5).mov,False,left,2,training(0).mov,0,110,110,123,,,,,,,,12:20:16:774,12:20:17:537,12:20:20:521,left,12:20:20:771,,,2018_Jun_06_1139,59.8982021669,MP-Perception Experiment,xx12w20,
430,training(30).mov,True,right,2,vcgpdm_dyn(10)-lvm(5)_final(3).mov,0,111,111,147,,,,,,,,12:20:21:545,12:20:22:272,12:20:25:275,right,12:20:25:625,,,2018_Jun_06_1139,59.8982021669,MP-Perception Experiment,xx12w20,
431,training(11).mov,False,right,2,vgpdm_dyn(20)-lvm(20)_final(2).mov,0,112,112,18,,,,,,,,12:20:26:376,12:20:27:127,12:20:30:130,left,12:20:30:483,,,2018_Jun_06_1139,59.8982021669,MP-Perception Experiment,xx12w20,
432,vcgpdm_dyn(30)-lvm(35)_final(4).mov,True,left,2,training(1).mov,0,113,113,27,,,,,,,,12:20:31:238,12:20:31:983,12:20:34:986,left,12:20:35:403,,,2018_Jun_06_1139,59.8982021669,MP-Perception Experiment,xx12w20,
433,training(32).mov,True,right,2,tmp_numprim(9)_final(1).mov,0,114,114,83,,,,,,,,12:20:36:156,12:20:36:904,12:20:39:906,right,12:20:40:290,,,2018_Jun_06_1139,59.8982021669,MP-Perception Experiment,xx12w20,
434,vcgpdm_dyn(30)-lvm(15)_final(4).mov,True,left,2,training(3).mov,0,115,115,35,,,,,,,,12:20:41:226,12:20:41:791,12:20:44:795,left,12:20:45:345,,,2018_Jun_06_1139,59.8982021669,MP-Perception Experiment,xx12w20,
435,training(29).mov,True,right,2,vgpdm_dyn(5)-lvm(25)_final(7)_out_of_screen.mov,0,116,116,67,,,,,,,,12:20:46:103,12:20:46:846,12:20:49:848,left,12:20:50:282,,,2018_Jun_06_1139,59.8982021669,MP-Perception Experiment,xx12w20,
436,training(36).mov,True,right,2,vcgpdm_dyn(15)-lvm(5)_final(8).mov,0,117,117,60,,,,,,,,12:20:51:048,12:20:51:800,12:20:54:786,right,12:20:55:253,,,2018_Jun_06_1139,59.8982021669,MP-Perception Experiment,xx12w20,
437,dmp_npsi(50)_final(2).mov,True,left,2,training(38).mov,0,118,118,17,,,,,,,,12:20:55:996,12:20:56:754,12:20:59:757,left,12:21:00:140,,,2018_Jun_06_1139,59.8982021669,MP-Perception Experiment,xx12w20,
438,vcgpdm_dyn(35)-lvm(25)_final(2).mov,True,left,2,training(30).mov,0,119,119,24,,,,,,,,12:21:00:918,12:21:01:642,12:21:04:645,left,12:21:04:995,,,2018_Jun_06_1139,59.8982021669,MP-Perception Experiment,xx12w20,
439,vcgpdm_dyn(15)-lvm(25)_final(7).mov,False,left,2,training(14).mov,0,120,120,11,,,,,,,,12:21:05:747,12:21:06:513,12:21:09:497,right,12:21:10:014,,,2018_Jun_06_1139,59.8982021669,MP-Perception Experiment,xx12w20,
440,training(12).mov,False,right,2,vcgpdm_dyn(30)-lvm(10)_final(1).mov,0,121,121,70,,,,,,,,12:21:10:785,12:21:11:515,12:21:14:518,right,12:21:14:901,,,2018_Jun_06_1139,59.8982021669,MP-Perception Experiment,xx12w20,
441,training(23).mov,True,right,2,vgpdm_dyn(10)-lvm(35)_final(7).mov,0,122,122,71,,,,,,,,12:21:15:653,12:21:16:403,12:21:19:406,right,12:21:19:690,,,2018_Jun_06_1139,59.8982021669,MP-Perception Experiment,xx12w20,
442,vgpdm_dyn(35)-lvm(10)_final(1).mov,True,left,2,training(6).mov,0,123,123,68,,,,,,,,12:21:20:462,12:21:21:191,12:21:24:178,left,12:21:24:662,,,2018_Jun_06_1139,59.8982021669,MP-Perception Experiment,xx12w20,
443,vgpdm_dyn(20)-lvm(15)_final(7).mov,True,left,2,training(34).mov,0,124,124,40,,,,,,,,12:21:25:423,12:21:26:180,12:21:29:165,left,12:21:29:616,,,2018_Jun_06_1139,59.8982021669,MP-Perception Experiment,xx12w20,
444,training(8).mov,False,right,2,vcgpdm_dyn(15)-lvm(35)_final(7).mov,0,125,125,121,,,,,,,,12:21:30:379,12:21:31:117,12:21:34:119,right,12:21:34:437,,,2018_Jun_06_1139,59.8982021669,MP-Perception Experiment,xx12w20,
445,tmp_numprim(9)_final(5).mov,False,left,2,training(1).mov,0,126,126,111,,,,,,,,12:21:35:205,12:21:35:955,12:21:38:941,right,12:21:39:425,,,2018_Jun_06_1139,59.8982021669,MP-Perception Experiment,xx12w20,
446,training(8).mov,True,right,2,map_cgpdm_final(5).mov,0,127,127,99,,,,,,,,12:21:40:174,12:21:40:926,12:21:43:928,right,12:21:44:262,,,2018_Jun_06_1139,59.8982021669,MP-Perception Experiment,xx12w20,
447,vcgpdm_dyn(10)-lvm(35)_final(2).mov,True,left,2,training(29).mov,0,128,128,51,,,,,,,,12:21:45:011,12:21:45:763,12:21:48:766,left,12:21:49:283,,,2018_Jun_06_1139,59.8982021669,MP-Perception Experiment,xx12w20,
448,vgpdm_dyn(30)-lvm(5)_final(6).mov,True,left,2,training(40).mov,0,129,129,75,,,,,,,,12:21:50:041,12:21:50:784,12:21:53:787,right,12:21:54:338,,,2018_Jun_06_1139,59.8982021669,MP-Perception Experiment,xx12w20,
449,vgpdm_dyn(10)-lvm(20)_final(0).mov,False,left,2,training(18).mov,0,130,130,119,,,,,,,,12:21:55:104,12:21:55:839,12:21:58:841,right,12:22:00:191,,,2018_Jun_06_1139,59.8982021669,MP-Perception Experiment,xx12w20,
450,vgpdm_dyn(25)-lvm(35)_final(1).mov,False,left,2,training(8).mov,0,131,131,117,,,,,,,,12:22:00:954,12:22:01:692,12:22:04:695,right,12:22:04:995,,,2018_Jun_06_1139,59.8982021669,MP-Perception Experiment,xx12w20,
451,vcgpdm_dyn(10)-lvm(25)_final(7).mov,False,left,2,training(11).mov,0,132,132,12,,,,,,,,12:22:05:741,12:22:06:496,12:22:09:498,left,12:22:09:816,,,2018_Jun_06_1139,59.8982021669,MP-Perception Experiment,xx12w20,
452,vcgpdm_dyn(25)-lvm(10)_final(8).mov,True,left,2,training(4).mov,0,133,133,64,,,,,,,,12:22:10:568,12:22:11:319,12:22:14:322,left,12:22:14:805,,,2018_Jun_06_1139,59.8982021669,MP-Perception Experiment,xx12w20,
453,training(2).mov,False,right,2,vcgpdm_dyn(5)-lvm(25)_final(5).mov,0,134,134,78,,,,,,,,12:22:15:548,12:22:16:323,12:22:19:309,right,12:22:19:659,,,2018_Jun_06_1139,59.8982021669,MP-Perception Experiment,xx12w20,
454,vcgpdm_dyn(30)-lvm(20)_final(8).mov,False,left,2,training(5).mov,0,135,135,143,,,,,,,,12:22:20:427,12:22:21:160,12:22:24:163,left,12:22:24:547,,,2018_Jun_06_1139,59.8982021669,MP-Perception Experiment,xx12w20,
455,training(28).mov,False,right,2,vcgpdm_dyn(5)-lvm(25)_final(1).mov,0,136,136,96,,,,,,,,12:22:25:310,12:22:26:048,12:22:29:051,right,12:22:29:385,,,2018_Jun_06_1139,59.8982021669,MP-Perception Experiment,xx12w20,
456,training(24).mov,True,right,2,vcgpdm_dyn(10)-lvm(5)_final(5).mov,0,137,137,112,,,,,,,,12:22:30:147,12:22:30:886,12:22:33:889,left,12:22:34:306,,,2018_Jun_06_1139,59.8982021669,MP-Perception Experiment,xx12w20,
457,vcgpdm_dyn(10)-lvm(20)_final(3).mov,False,left,2,training(19).mov,0,138,138,22,,,,,,,,12:22:35:072,12:22:35:807,12:22:38:809,left,12:22:39:226,,,2018_Jun_06_1139,59.8982021669,MP-Perception Experiment,xx12w20,
458,tmp_numprim(9)_final(3).mov,False,left,2,training(12).mov,0,139,139,19,,,,,,,,12:22:39:981,12:22:40:728,12:22:43:730,right,12:22:44:230,,,2018_Jun_06_1139,59.8982021669,MP-Perception Experiment,xx12w20,
459,training(3).mov,True,right,2,vgpdm_dyn(20)-lvm(25)_final(0).mov,0,140,140,31,,,,,,,,12:22:44:995,12:22:45:731,12:22:48:735,right,12:22:49:217,,,2018_Jun_06_1139,59.8982021669,MP-Perception Experiment,xx12w20,
460,vcgpdm_dyn(20)-lvm(35)_final(1).mov,False,left,2,training(2).mov,0,141,141,16,,,,,,,,12:22:49:975,12:22:50:718,12:22:53:720,left,12:22:54:054,,,2018_Jun_06_1139,59.8982021669,MP-Perception Experiment,xx12w20,
461,training(3).mov,True,right,2,map_gpdm_final(5).mov,0,142,142,4,,,,,,,,12:22:54:797,12:22:55:572,12:22:58:558,right,12:22:58:875,,,2018_Jun_06_1139,59.8982021669,MP-Perception Experiment,xx12w20,
462,training(26).mov,True,right,2,vcgpdm_dyn(10)-lvm(35)_final(3).mov,0,143,143,105,,,,,,,,12:22:59:660,12:23:00:376,12:23:03:364,right,12:23:03:648,,,2018_Jun_06_1139,59.8982021669,MP-Perception Experiment,xx12w20,
463,vcgpdm_dyn(15)-lvm(15)_final(9).mov,False,left,2,training(25).mov,0,144,144,10,,,,,,,,12:23:04:413,12:23:05:166,12:23:08:151,left,12:23:08:519,,,2018_Jun_06_1139,59.8982021669,MP-Perception Experiment,xx12w20,
464,vgpdm_dyn(30)-lvm(20)_final(9).mov,True,left,2,training(19).mov,0,145,145,77,,,,,,,,12:23:09:280,12:23:10:020,12:23:13:022,left,12:23:13:322,,,2018_Jun_06_1139,59.8982021669,MP-Perception Experiment,xx12w20,
465,training(3).mov,True,right,2,vcgpdm_dyn(25)-lvm(35)_final(7).mov,0,146,146,0,,,,,,,,12:23:14:078,12:23:14:823,12:23:17:826,right,12:23:18:126,,,2018_Jun_06_1139,59.8982021669,MP-Perception Experiment,xx12w20,
466,vcgpdm_dyn(25)-lvm(20)_final(6).mov,False,left,2,training(9).mov,0,147,147,43,,,,,,,,12:23:18:882,12:23:19:627,12:23:22:631,left,12:23:23:031,,,2018_Jun_06_1139,59.8982021669,MP-Perception Experiment,xx12w20,
467,training(10).mov,True,right,2,vcgpdm_dyn(35)-lvm(5)_final(1).mov,0,148,148,86,,,,,,,,12:23:23:785,12:23:24:533,12:23:27:535,right,12:23:27:935,,,2018_Jun_06_1139,59.8982021669,MP-Perception Experiment,xx12w20,
468,training(29).mov,True,right,2,vgpdm_dyn(20)-lvm(10)_final(7)_out_of_screen.mov,0,149,149,56,,,,,,,,12:23:28:682,12:23:29:453,12:23:32:456,right,12:23:32:739,,,2018_Jun_06_1139,59.8982021669,MP-Perception Experiment,xx12w20,
469,training(27).mov,False,right,2,vgpdm_dyn(15)-lvm(35)_final(9).mov,0,150,150,113,,,,,,,,12:23:33:490,12:23:34:240,12:23:37:243,left,12:23:37:793,,,2018_Jun_06_1139,59.8982021669,MP-Perception Experiment,xx12w20,
470,training(26).mov,False,right,2,dmp_npsi(40)_final(7).mov,0,151,151,82,,,,,,,,12:23:38:574,12:23:39:310,12:23:42:296,right,12:23:42:580,,,2018_Jun_06_1139,59.8982021669,MP-Perception Experiment,xx12w20,
