trial_number,right,flipped,correct,block,left,trials.thisRepN,trials.thisTrialN,trials.thisN,trials.thisIndex,flipwelcome.keys,flipwelcome.corr,flipwelcome.rt,flippreparations.keys,flippreparations.rt,flipInstructions.keys,flipInstructions.rt,time_at_fixation_cross_onset,time_at_videoonset,time_at_videoend,participant_key_response,time_at_key_response,date,frameRate,expName,participant,
,,,,,,,,,,space,0,42.3380410685,,,,,,,,,,2018_Jun_07_1007,59.9676895013,MP-Perception Experiment,xx13w23,
,,,,,,,,,,,,,space,7.03802399204,,,,,,,,2018_Jun_07_1007,59.9676895013,MP-Perception Experiment,xx13w23,
,,,,,,,,,,,,,,,space,7.13957590628,,,,,,2018_Jun_07_1007,59.9676895013,MP-Perception Experiment,xx13w23,
1,vcgpdm_dyn(30)-lvm(5)_final(9).mov,True,left,0,training(9).mov,0,0,0,38,,,,,,,,10:08:35:257,10:08:35:257,10:08:38:059,left,10:08:39:760,2018_Jun_07_1007,59.9676895013,MP-Perception Experiment,xx13w23,
2,training(12).mov,True,right,0,vcgpdm_dyn(10)-lvm(30)_final(6).mov,0,1,1,20,,,,,,,,10:08:40:694,10:08:41:262,10:08:44:264,right,10:08:44:865,2018_Jun_07_1007,59.9676895013,MP-Perception Experiment,xx13w23,
3,training(6).mov,True,right,0,dmp_npsi(45)_final(8).mov,0,2,2,110,,,,,,,,10:08:45:627,10:08:46:382,10:08:49:368,left,10:08:50:185,2018_Jun_07_1007,59.9676895013,MP-Perception Experiment,xx13w23,
4,training(40).mov,False,right,0,vcgpdm_dyn(10)-lvm(25)_final(6).mov,0,3,3,123,,,,,,,,10:08:50:962,10:08:51:687,10:08:54:690,right,10:08:55:307,2018_Jun_07_1007,59.9676895013,MP-Perception Experiment,xx13w23,
5,training(24).mov,True,right,0,vgpdm_dyn(30)-lvm(10)_final(3).mov,0,4,4,48,,,,,,,,10:08:56:065,10:08:56:825,10:08:59:811,left,10:09:00:278,2018_Jun_07_1007,59.9676895013,MP-Perception Experiment,xx13w23,
6,vgpdm_dyn(30)-lvm(5)_final(8).mov,False,left,0,training(9).mov,0,5,5,102,,,,,,,,10:09:01:056,10:09:01:796,10:09:04:782,right,10:09:05:315,2018_Jun_07_1007,59.9676895013,MP-Perception Experiment,xx13w23,
7,vgpdm_dyn(25)-lvm(35)_final(9).mov,False,left,0,training(28).mov,0,6,6,61,,,,,,,,10:09:06:076,10:09:06:816,10:09:09:819,right,10:09:10:836,2018_Jun_07_1007,59.9676895013,MP-Perception Experiment,xx13w23,
8,dmp_npsi(30)_final(8).mov,False,left,0,training(38).mov,0,7,7,33,,,,,,,,10:09:11:601,10:09:12:339,10:09:15:341,left,10:09:15:907,2018_Jun_07_1007,59.9676895013,MP-Perception Experiment,xx13w23,
9,vgpdm_dyn(30)-lvm(5)_final(0).mov,True,left,0,training(28).mov,0,8,8,44,,,,,,,,10:09:16:676,10:09:17:424,10:09:20:410,left,10:09:20:810,2018_Jun_07_1007,59.9676895013,MP-Perception Experiment,xx13w23,
10,training(2).mov,False,right,0,vgpdm_dyn(10)-lvm(10)_final(5).mov,0,9,9,148,,,,,,,,10:09:21:572,10:09:22:311,10:09:25:314,left,10:09:25:764,2018_Jun_07_1007,59.9676895013,MP-Perception Experiment,xx13w23,
11,training(6).mov,False,right,0,vcgpdm_dyn(35)-lvm(5)_final(8).mov,0,10,10,60,,,,,,,,10:09:26:516,10:09:27:266,10:09:30:254,left,10:09:30:754,2018_Jun_07_1007,59.9676895013,MP-Perception Experiment,xx13w23,
12,training(41).mov,False,right,0,tmp_numprim(3)_final(0).mov,0,11,11,98,,,,,,,,10:09:31:515,10:09:32:256,10:09:35:258,right,10:09:35:659,2018_Jun_07_1007,59.9676895013,MP-Perception Experiment,xx13w23,
13,training(16).mov,True,right,0,dmp_npsi(25)_final(7).mov,0,12,12,49,,,,,,,,10:09:36:422,10:09:37:176,10:09:40:162,right,10:09:40:663,2018_Jun_07_1007,59.9676895013,MP-Perception Experiment,xx13w23,
14,vcgpdm_dyn(30)-lvm(10)_final(9).mov,False,left,0,training(22).mov,0,13,13,75,,,,,,,,10:09:41:432,10:09:42:164,10:09:45:166,right,10:09:45:517,2018_Jun_07_1007,59.9676895013,MP-Perception Experiment,xx13w23,
15,training(16).mov,False,right,0,tmp_numprim(3)_final(4).mov,0,14,14,139,,,,,,,,10:09:46:270,10:09:47:018,10:09:50:021,right,10:09:50:705,2018_Jun_07_1007,59.9676895013,MP-Perception Experiment,xx13w23,
16,training(40).mov,True,right,0,vgpdm_dyn(10)-lvm(30)_final(0).mov,0,15,15,157,,,,,,,,10:09:51:485,10:09:52:206,10:09:55:208,right,10:09:56:210,2018_Jun_07_1007,59.9676895013,MP-Perception Experiment,xx13w23,
17,training(41).mov,False,right,0,vgpdm_dyn(15)-lvm(10)_final(1)_out_of_screen.mov,0,16,16,133,,,,,,,,10:09:56:963,10:09:57:710,10:10:00:713,right,10:10:01:414,2018_Jun_07_1007,59.9676895013,MP-Perception Experiment,xx13w23,
18,training(17).mov,True,right,0,tmp_numprim(2)_final(0).mov,0,17,17,143,,,,,,,,10:10:02:178,10:10:02:915,10:10:05:916,right,10:10:06:433,2018_Jun_07_1007,59.9676895013,MP-Perception Experiment,xx13w23,
19,training(2).mov,True,right,0,vcgpdm_dyn(35)-lvm(30)_final(1).mov,0,18,18,4,,,,,,,,10:10:07:251,10:10:07:951,10:10:10:937,right,10:10:11:421,2018_Jun_07_1007,59.9676895013,MP-Perception Experiment,xx13w23,
20,training(12).mov,True,right,0,vgpdm_dyn(10)-lvm(35)_final(3).mov,0,19,19,65,,,,,,,,10:10:12:180,10:10:12:922,10:10:15:925,right,10:10:17:009,2018_Jun_07_1007,59.9676895013,MP-Perception Experiment,xx13w23,
21,vgpdm_dyn(10)-lvm(15)_final(8).mov,False,left,0,training(38).mov,0,20,20,17,,,,,,,,10:10:17:766,10:10:18:512,10:10:21:497,left,10:10:22:049,2018_Jun_07_1007,59.9676895013,MP-Perception Experiment,xx13w23,
22,vcgpdm_dyn(20)-lvm(15)_final(8).mov,False,left,0,training(12).mov,0,21,21,25,,,,,,,,10:10:22:803,10:10:23:550,10:10:26:569,right,10:10:27:070,2018_Jun_07_1007,59.9676895013,MP-Perception Experiment,xx13w23,
23,tmp_numprim(6)_final(3).mov,True,left,0,training(31).mov,0,22,22,124,,,,,,,,10:10:27:842,10:10:28:571,10:10:31:573,left,10:10:32:157,2018_Jun_07_1007,59.9676895013,MP-Perception Experiment,xx13w23,
24,training(41).mov,False,right,0,tmp_numprim(7)_final(9).mov,0,23,23,88,,,,,,,,10:10:32:918,10:10:33:658,10:10:36:661,right,10:10:37:462,2018_Jun_07_1007,59.9676895013,MP-Perception Experiment,xx13w23,
25,vcgpdm_dyn(5)-lvm(20)_final(7).mov,True,left,0,training(38).mov,0,24,24,137,,,,,,,,10:10:38:214,10:10:38:963,10:10:41:966,right,10:10:42:633,2018_Jun_07_1007,59.9676895013,MP-Perception Experiment,xx13w23,
26,training(17).mov,True,right,0,vcgpdm_dyn(30)-lvm(5)_final(4).mov,0,25,25,32,,,,,,,,10:10:43:384,10:10:44:134,10:10:47:137,right,10:10:47:787,2018_Jun_07_1007,59.9676895013,MP-Perception Experiment,xx13w23,
27,vgpdm_dyn(20)-lvm(25)_final(2).mov,False,left,0,training(26).mov,0,26,26,125,,,,,,,,10:10:48:550,10:10:49:288,10:10:52:291,left,10:10:53:092,2018_Jun_07_1007,59.9676895013,MP-Perception Experiment,xx13w23,
28,training(18).mov,True,right,0,vgpdm_dyn(10)-lvm(10)_final(0).mov,0,27,27,67,,,,,,,,10:10:53:985,10:10:54:609,10:10:57:594,left,10:10:58:178,2018_Jun_07_1007,59.9676895013,MP-Perception Experiment,xx13w23,
29,vcgpdm_dyn(10)-lvm(25)_final(4).mov,False,left,0,training(48).mov,0,28,28,27,,,,,,,,10:10:58:938,10:10:59:696,10:11:02:682,left,10:11:02:699,2018_Jun_07_1007,59.9676895013,MP-Perception Experiment,xx13w23,
30,dmp_npsi(20)_final(6).mov,True,left,0,training(38).mov,0,29,29,126,,,,,,,,10:11:03:462,10:11:04:200,10:11:07:219,left,10:11:07:236,2018_Jun_07_1007,59.9676895013,MP-Perception Experiment,xx13w23,
31,dmp_npsi(15)_final(1).mov,True,left,0,training(7).mov,0,30,30,68,,,,,,,,10:11:07:998,10:11:08:737,10:11:11:741,left,10:11:12:658,2018_Jun_07_1007,59.9676895013,MP-Perception Experiment,xx13w23,
32,training(33).mov,False,right,0,vgpdm_dyn(10)-lvm(30)_final(1).mov,0,31,31,74,,,,,,,,10:11:13:424,10:11:14:159,10:11:17:163,right,10:11:17:764,2018_Jun_07_1007,59.9676895013,MP-Perception Experiment,xx13w23,
33,vgpdm_dyn(15)-lvm(15)_final(9).mov,False,left,0,training(0).mov,0,32,32,8,,,,,,,,10:11:18:583,10:11:19:281,10:11:22:267,right,10:11:22:968,2018_Jun_07_1007,59.9676895013,MP-Perception Experiment,xx13w23,
34,vgpdm_dyn(10)-lvm(10)_final(5).mov,True,left,0,training(41).mov,0,33,33,46,,,,,,,,10:11:23:718,10:11:24:469,10:11:27:588,left,10:11:27:972,2018_Jun_07_1007,59.9676895013,MP-Perception Experiment,xx13w23,
35,training(7).mov,False,right,0,vcgpdm_dyn(20)-lvm(25)_final(6).mov,0,34,34,109,,,,,,,,10:11:28:729,10:11:29:490,10:11:32:477,right,10:11:32:843,2018_Jun_07_1007,59.9676895013,MP-Perception Experiment,xx13w23,
36,vgpdm_dyn(25)-lvm(30)_final(3).mov,False,left,0,training(20).mov,0,35,35,114,,,,,,,,10:11:33:607,10:11:34:345,10:11:37:364,left,10:11:38:014,2018_Jun_07_1007,59.9676895013,MP-Perception Experiment,xx13w23,
37,tmp_numprim(8)_final(9).mov,True,left,0,training(6).mov,0,36,36,1,,,,,,,,10:11:38:774,10:11:39:532,10:11:42:518,left,10:11:42:835,2018_Jun_07_1007,59.9676895013,MP-Perception Experiment,xx13w23,
38,training(36).mov,True,right,0,dmp_npsi(35)_final(2).mov,0,37,37,84,,,,,,,,10:11:43:588,10:11:44:336,10:11:47:337,left,10:11:48:054,2018_Jun_07_1007,59.9676895013,MP-Perception Experiment,xx13w23,
39,tmp_numprim(5)_final(1).mov,True,left,0,training(4).mov,0,38,38,52,,,,,,,,10:11:48:824,10:11:49:573,10:11:52:558,left,10:11:52:976,2018_Jun_07_1007,59.9676895013,MP-Perception Experiment,xx13w23,
40,training(14).mov,True,right,0,vcgpdm_dyn(30)-lvm(15)_final(4).mov,0,39,39,115,,,,,,,,10:11:53:953,10:11:54:493,10:11:57:479,right,10:11:57:779,2018_Jun_07_1007,59.9676895013,MP-Perception Experiment,xx13w23,
41,training(21).mov,False,right,0,map_cgpdm_final(5).mov,0,40,40,6,,,,,,,,10:11:58:538,10:11:59:297,10:12:02:268,right,10:12:02:869,2018_Jun_07_1007,59.9676895013,MP-Perception Experiment,xx13w23,
42,training(4).mov,True,right,0,vcgpdm_dyn(25)-lvm(30)_final(4).mov,0,41,41,97,,,,,,,,10:12:03:620,10:12:04:370,10:12:07:373,left,10:12:08:091,2018_Jun_07_1007,59.9676895013,MP-Perception Experiment,xx13w23,
43,vcgpdm_dyn(35)-lvm(10)_final(9).mov,True,left,0,training(12).mov,0,42,42,7,,,,,,,,10:12:08:849,10:12:09:592,10:12:12:611,right,10:12:13:528,2018_Jun_07_1007,59.9676895013,MP-Perception Experiment,xx13w23,
44,tmp_numprim(9)_final(3).mov,False,left,0,training(29).mov,0,43,43,47,,,,,,,,10:12:14:280,10:12:15:029,10:12:18:032,right,10:12:18:532,2018_Jun_07_1007,59.9676895013,MP-Perception Experiment,xx13w23,
45,training(36).mov,False,right,0,vgpdm_dyn(20)-lvm(25)_final(8).mov,0,44,44,58,,,,,,,,10:12:19:289,10:12:20:033,10:12:23:052,right,10:12:23:370,2018_Jun_07_1007,59.9676895013,MP-Perception Experiment,xx13w23,
46,vcgpdm_dyn(10)-lvm(20)_final(0).mov,False,left,0,training(4).mov,0,45,45,142,,,,,,,,10:12:24:139,10:12:24:888,10:12:27:874,left,10:12:28:341,2018_Jun_07_1007,59.9676895013,MP-Perception Experiment,xx13w23,
47,training(34).mov,True,right,0,vgpdm_dyn(30)-lvm(30)_final(1).mov,0,46,46,94,,,,,,,,10:12:29:088,10:12:29:842,10:12:32:845,left,10:12:33:262,2018_Jun_07_1007,59.9676895013,MP-Perception Experiment,xx13w23,
48,vgpdm_dyn(15)-lvm(35)_final(6).mov,False,left,0,training(17).mov,0,47,47,35,,,,,,,,10:12:34:032,10:12:34:780,10:12:37:764,right,10:12:37:997,2018_Jun_07_1007,59.9676895013,MP-Perception Experiment,xx13w23,
49,training(31).mov,False,right,0,vcgpdm_dyn(5)-lvm(20)_final(6).mov,0,48,48,131,,,,,,,,10:12:38:757,10:12:39:498,10:12:42:502,right,10:12:43:286,2018_Jun_07_1007,59.9676895013,MP-Perception Experiment,xx13w23,
50,training(1).mov,True,right,0,vgpdm_dyn(35)-lvm(5)_final(6).mov,0,49,49,99,,,,,,,,10:12:44:052,10:12:44:787,10:12:47:790,right,10:12:48:190,2018_Jun_07_1007,59.9676895013,MP-Perception Experiment,xx13w23,
51,training(0).mov,False,right,0,tmp_numprim(5)_final(3).mov,0,50,50,96,,,,,,,,10:12:48:954,10:12:49:691,10:12:52:678,right,10:12:53:329,2018_Jun_07_1007,59.9676895013,MP-Perception Experiment,xx13w23,
52,tmp_numprim(6)_final(6).mov,False,left,0,training(35).mov,0,51,51,42,,,,,,,,10:12:54:083,10:12:54:847,10:12:57:832,right,10:12:57:949,2018_Jun_07_1007,59.9676895013,MP-Perception Experiment,xx13w23,
53,vcgpdm_dyn(15)-lvm(30)_final(9).mov,False,left,0,training(26).mov,0,52,52,73,,,,,,,,10:12:58:706,10:12:59:452,10:13:02:454,right,10:13:02:938,2018_Jun_07_1007,59.9676895013,MP-Perception Experiment,xx13w23,
54,dmp_npsi(25)_final(8).mov,True,left,0,training(21).mov,0,53,53,101,,,,,,,,10:13:03:700,10:13:04:439,10:13:07:458,left,10:13:08:209,2018_Jun_07_1007,59.9676895013,MP-Perception Experiment,xx13w23,
55,training(26).mov,False,right,0,vcgpdm_dyn(20)-lvm(25)_final(7).mov,0,54,54,151,,,,,,,,10:13:08:959,10:13:09:710,10:13:12:729,left,10:13:13:330,2018_Jun_07_1007,59.9676895013,MP-Perception Experiment,xx13w23,
56,training(6).mov,False,right,0,dmp_npsi(15)_final(5).mov,0,55,55,43,,,,,,,,10:13:14:091,10:13:14:847,10:13:17:834,right,10:13:18:385,2018_Jun_07_1007,59.9676895013,MP-Perception Experiment,xx13w23,
57,training(3).mov,True,right,0,vgpdm_dyn(20)-lvm(5)_final(8).mov,0,56,56,153,,,,,,,,10:13:19:140,10:13:19:886,10:13:22:905,right,10:13:23:639,2018_Jun_07_1007,59.9676895013,MP-Perception Experiment,xx13w23,
58,training(37).mov,True,right,0,dmp_npsi(40)_final(7).mov,0,57,57,129,,,,,,,,10:13:24:394,10:13:25:140,10:13:28:141,right,10:13:28:591,2018_Jun_07_1007,59.9676895013,MP-Perception Experiment,xx13w23,
59,vcgpdm_dyn(20)-lvm(15)_final(3).mov,False,left,0,training(20).mov,0,58,58,26,,,,,,,,10:13:29:362,10:13:30:092,10:13:33:095,left,10:13:33:462,2018_Jun_07_1007,59.9676895013,MP-Perception Experiment,xx13w23,
60,vcgpdm_dyn(25)-lvm(30)_final(9).mov,False,left,0,training(5).mov,0,59,59,116,,,,,,,,10:13:34:231,10:13:34:964,10:13:37:951,right,10:13:38:585,2018_Jun_07_1007,59.9676895013,MP-Perception Experiment,xx13w23,
61,vgpdm_dyn(25)-lvm(5)_final(7).mov,False,left,0,training(5).mov,0,60,60,77,,,,,,,,10:13:39:345,10:13:40:086,10:13:43:089,left,10:13:43:723,2018_Jun_07_1007,59.9676895013,MP-Perception Experiment,xx13w23,
62,training(3).mov,True,right,0,vgpdm_dyn(5)-lvm(30)_final(9).mov,0,61,61,23,,,,,,,,10:13:44:485,10:13:45:224,10:13:48:226,right,10:13:49:094,2018_Jun_07_1007,59.9676895013,MP-Perception Experiment,xx13w23,
63,training(41).mov,True,right,0,vgpdm_dyn(5)-lvm(15)_final(7).mov,0,62,62,105,,,,,,,,10:13:49:849,10:13:50:612,10:13:53:598,right,10:13:54:232,2018_Jun_07_1007,59.9676895013,MP-Perception Experiment,xx13w23,
64,training(38).mov,True,right,0,vgpdm_dyn(5)-lvm(30)_final(7).mov,0,63,63,30,,,,,,,,10:13:55:014,10:13:55:750,10:13:58:736,right,10:13:59:320,2018_Jun_07_1007,59.9676895013,MP-Perception Experiment,xx13w23,
65,vcgpdm_dyn(30)-lvm(15)_final(6).mov,True,left,0,training(30).mov,0,64,64,155,,,,,,,,10:14:00:083,10:14:00:821,10:14:03:823,right,10:14:04:541,2018_Jun_07_1007,59.9676895013,MP-Perception Experiment,xx13w23,
66,training(37).mov,False,right,0,vcgpdm_dyn(25)-lvm(20)_final(3).mov,0,65,65,57,,,,,,,,10:14:05:291,10:14:06:042,10:14:09:044,left,10:14:10:046,2018_Jun_07_1007,59.9676895013,MP-Perception Experiment,xx13w23,
67,vgpdm_dyn(25)-lvm(20)_final(5).mov,True,left,0,training(23).mov,0,66,66,112,,,,,,,,10:14:10:809,10:14:11:564,10:14:14:549,left,10:14:15:551,2018_Jun_07_1007,59.9676895013,MP-Perception Experiment,xx13w23,
68,vcgpdm_dyn(30)-lvm(25)_final(4).mov,True,left,0,training(14).mov,0,67,67,22,,,,,,,,10:14:16:317,10:14:17:083,10:14:20:069,right,10:14:20:736,2018_Jun_07_1007,59.9676895013,MP-Perception Experiment,xx13w23,
69,training(32).mov,False,right,0,map_cgpdm_final(4).mov,0,68,68,66,,,,,,,,10:14:21:491,10:14:22:237,10:14:25:240,right,10:14:25:807,2018_Jun_07_1007,59.9676895013,MP-Perception Experiment,xx13w23,
70,training(16).mov,True,right,0,vcgpdm_dyn(25)-lvm(5)_final(1).mov,0,69,69,45,,,,,,,,10:14:26:556,10:14:27:326,10:14:30:313,left,10:14:31:114,2018_Jun_07_1007,59.9676895013,MP-Perception Experiment,xx13w23,
71,training(31).mov,True,right,0,vgpdm_dyn(15)-lvm(30)_final(4).mov,0,70,70,9,,,,,,,,10:14:31:874,10:14:32:615,10:14:35:617,right,10:14:36:068,2018_Jun_07_1007,59.9676895013,MP-Perception Experiment,xx13w23,
72,vcgpdm_dyn(30)-lvm(10)_final(0).mov,False,left,0,training(22).mov,0,71,71,150,,,,,,,,10:14:36:811,10:14:37:569,10:14:40:588,right,10:14:41:289,2018_Jun_07_1007,59.9676895013,MP-Perception Experiment,xx13w23,
73,vgpdm_dyn(35)-lvm(5)_final(3).mov,False,left,0,training(26).mov,0,72,72,145,,,,,,,,10:14:42:064,10:14:42:790,10:14:45:810,right,10:14:46:311,2018_Jun_07_1007,59.9676895013,MP-Perception Experiment,xx13w23,
74,vcgpdm_dyn(20)-lvm(30)_final(1).mov,False,left,0,training(26).mov,0,73,73,147,,,,,,,,10:14:47:059,10:14:47:812,10:14:50:814,right,10:14:51:015,2018_Jun_07_1007,59.9676895013,MP-Perception Experiment,xx13w23,
75,vcgpdm_dyn(10)-lvm(5)_final(1).mov,True,left,0,training(4).mov,0,74,74,117,,,,,,,,10:14:51:779,10:14:52:516,10:14:55:518,left,10:14:56:385,2018_Jun_07_1007,59.9676895013,MP-Perception Experiment,xx13w23,
76,training(7).mov,False,right,0,vgpdm_dyn(35)-lvm(10)_final(5).mov,0,75,75,64,,,,,,,,10:14:57:143,10:14:57:887,10:15:00:906,left,10:15:01:623,2018_Jun_07_1007,59.9676895013,MP-Perception Experiment,xx13w23,
77,vcgpdm_dyn(35)-lvm(25)_final(6).mov,False,left,0,training(23).mov,0,76,76,11,,,,,,,,10:15:02:370,10:15:03:125,10:15:06:126,left,10:15:06:643,2018_Jun_07_1007,59.9676895013,MP-Perception Experiment,xx13w23,
78,training(22).mov,True,right,0,vcgpdm_dyn(10)-lvm(5)_final(8).mov,0,77,77,31,,,,,,,,10:15:07:401,10:15:08:144,10:15:11:147,left,10:15:11:630,2018_Jun_07_1007,59.9676895013,MP-Perception Experiment,xx13w23,
79,training(21).mov,True,right,0,vcgpdm_dyn(15)-lvm(20)_final(7).mov,0,78,78,82,,,,,,,,10:15:12:396,10:15:13:148,10:15:16:134,right,10:15:16:835,2018_Jun_07_1007,59.9676895013,MP-Perception Experiment,xx13w23,
80,vcgpdm_dyn(20)-lvm(5)_final(1).mov,False,left,0,training(35).mov,0,79,79,56,,,,,,,,10:15:17:583,10:15:18:337,10:15:21:324,left,10:15:22:008,2018_Jun_07_1007,59.9676895013,MP-Perception Experiment,xx13w23,
81,vgpdm_dyn(20)-lvm(15)_final(0).mov,False,left,0,training(12).mov,0,80,80,158,,,,,,,,10:15:22:760,10:15:23:509,10:15:26:528,left,10:15:27:246,2018_Jun_07_1007,59.9676895013,MP-Perception Experiment,xx13w23,
82,tmp_numprim(6)_final(0).mov,True,left,0,training(18).mov,0,81,81,76,,,,,,,,10:15:28:007,10:15:28:747,10:15:31:749,right,10:15:32:567,2018_Jun_07_1007,59.9676895013,MP-Perception Experiment,xx13w23,
83,training(38).mov,False,right,0,tmp_numprim(10)_final(8).mov,0,82,82,10,,,,,,,,10:15:33:325,10:15:34:068,10:15:37:071,left,10:15:37:589,2018_Jun_07_1007,59.9676895013,MP-Perception Experiment,xx13w23,
84,vgpdm_dyn(5)-lvm(15)_final(2).mov,False,left,0,training(35).mov,0,83,83,21,,,,,,,,10:15:38:346,10:15:39:106,10:15:42:092,left,10:15:42:526,2018_Jun_07_1007,59.9676895013,MP-Perception Experiment,xx13w23,
85,training(8).mov,True,right,0,dmp_npsi(25)_final(5).mov,0,84,84,141,,,,,,,,10:15:43:271,10:15:44:027,10:15:47:029,right,10:15:47:713,2018_Jun_07_1007,59.9676895013,MP-Perception Experiment,xx13w23,
86,training(7).mov,True,right,0,vcgpdm_dyn(30)-lvm(20)_final(6).mov,0,85,85,119,,,,,,,,10:15:48:466,10:15:49:231,10:15:52:217,right,10:15:52:851,2018_Jun_07_1007,59.9676895013,MP-Perception Experiment,xx13w23,
87,training(40).mov,True,right,0,vcgpdm_dyn(5)-lvm(5)_final(1).mov,0,86,86,127,,,,,,,,10:15:53:889,10:15:54:403,10:15:57:353,right,10:15:57:887,2018_Jun_07_1007,59.9676895013,MP-Perception Experiment,xx13w23,
88,training(22).mov,True,right,0,vgpdm_dyn(30)-lvm(30)_final(2).mov,0,87,87,111,,,,,,,,10:15:58:654,10:15:59:405,10:16:02:391,left,10:16:02:824,2018_Jun_07_1007,59.9676895013,MP-Perception Experiment,xx13w23,
89,vcgpdm_dyn(20)-lvm(35)_final(2).mov,False,left,0,training(37).mov,0,88,88,83,,,,,,,,10:16:03:589,10:16:04:326,10:16:07:328,right,10:16:07:795,2018_Jun_07_1007,59.9676895013,MP-Perception Experiment,xx13w23,
90,training(8).mov,False,right,0,vcgpdm_dyn(20)-lvm(15)_final(7).mov,0,89,89,70,,,,,,,,10:16:08:582,10:16:09:297,10:16:12:285,right,10:16:12:635,2018_Jun_07_1007,59.9676895013,MP-Perception Experiment,xx13w23,
91,training(48).mov,False,right,0,vgpdm_dyn(20)-lvm(5)_final(0).mov,0,90,90,92,,,,,,,,10:16:13:409,10:16:14:136,10:16:17:139,right,10:16:17:589,2018_Jun_07_1007,59.9676895013,MP-Perception Experiment,xx13w23,
92,training(16).mov,True,right,0,vgpdm_dyn(10)-lvm(5)_final(4).mov,0,91,91,69,,,,,,,,10:16:18:339,10:16:19:107,10:16:22:093,right,10:16:22:727,2018_Jun_07_1007,59.9676895013,MP-Perception Experiment,xx13w23,
93,vcgpdm_dyn(20)-lvm(10)_final(5).mov,True,left,0,training(41).mov,0,92,92,149,,,,,,,,10:16:23:496,10:16:24:228,10:16:27:230,right,10:16:27:998,2018_Jun_07_1007,59.9676895013,MP-Perception Experiment,xx13w23,
94,training(4).mov,True,right,0,vgpdm_dyn(30)-lvm(20)_final(9).mov,0,93,93,2,,,,,,,,10:16:28:745,10:16:29:500,10:16:32:519,left,10:16:33:086,2018_Jun_07_1007,59.9676895013,MP-Perception Experiment,xx13w23,
95,training(33).mov,True,right,0,vgpdm_dyn(20)-lvm(5)_final(5).mov,0,94,94,24,,,,,,,,10:16:33:839,10:16:34:604,10:16:37:606,right,10:16:39:275,2018_Jun_07_1007,59.9676895013,MP-Perception Experiment,xx13w23,
96,vcgpdm_dyn(20)-lvm(10)_final(5).mov,False,left,0,training(7).mov,0,95,95,128,,,,,,,,10:16:40:030,10:16:40:776,10:16:43:778,left,10:16:44:729,2018_Jun_07_1007,59.9676895013,MP-Perception Experiment,xx13w23,
97,vcgpdm_dyn(25)-lvm(35)_final(6).mov,True,left,0,training(28).mov,0,96,96,134,,,,,,,,10:16:45:478,10:16:46:245,10:16:49:232,left,10:16:49:632,2018_Jun_07_1007,59.9676895013,MP-Perception Experiment,xx13w23,
98,training(37).mov,False,right,0,vgpdm_dyn(25)-lvm(10)_final(1)_out_of_screen.mov,0,97,97,15,,,,,,,,10:16:50:372,10:16:51:133,10:16:54:136,right,10:16:54:703,2018_Jun_07_1007,59.9676895013,MP-Perception Experiment,xx13w23,
99,vcgpdm_dyn(25)-lvm(25)_final(0).mov,False,left,0,training(16).mov,0,98,98,130,,,,,,,,10:16:55:446,10:16:56:204,10:16:59:192,left,10:16:59:909,2018_Jun_07_1007,59.9676895013,MP-Perception Experiment,xx13w23,
100,training(22).mov,False,right,0,vgpdm_dyn(20)-lvm(20)_final(4).mov,0,99,99,55,,,,,,,,10:17:00:660,10:17:01:427,10:17:04:413,left,10:17:05:014,2018_Jun_07_1007,59.9676895013,MP-Perception Experiment,xx13w23,
101,training(33).mov,False,right,0,vcgpdm_dyn(20)-lvm(20)_final(2).mov,0,100,100,79,,,,,,,,10:17:05:768,10:17:06:515,10:17:09:518,right,10:17:10:402,2018_Jun_07_1007,59.9676895013,MP-Perception Experiment,xx13w23,
102,training(27).mov,False,right,0,vgpdm_dyn(15)-lvm(5)_final(5).mov,0,101,101,50,,,,,,,,10:17:11:170,10:17:11:903,10:17:14:905,left,10:17:15:589,2018_Jun_07_1007,59.9676895013,MP-Perception Experiment,xx13w23,
103,vgpdm_dyn(5)-lvm(20)_final(7).mov,True,left,0,training(9).mov,0,102,102,62,,,,,,,,10:17:16:363,10:17:17:090,10:17:20:093,left,10:17:20:727,2018_Jun_07_1007,59.9676895013,MP-Perception Experiment,xx13w23,
104,dmp_npsi(35)_final(8).mov,True,left,0,training(27).mov,0,103,103,90,,,,,,,,10:17:21:480,10:17:22:229,10:17:25:248,left,10:17:25:915,2018_Jun_07_1007,59.9676895013,MP-Perception Experiment,xx13w23,
105,vcgpdm_dyn(35)-lvm(5)_final(1).mov,False,left,0,training(48).mov,0,104,104,118,,,,,,,,10:17:26:676,10:17:27:433,10:17:30:419,left,10:17:30:936,2018_Jun_07_1007,59.9676895013,MP-Perception Experiment,xx13w23,
106,tmp_numprim(3)_final(8).mov,False,left,0,training(0).mov,0,105,105,113,,,,,,,,10:17:31:690,10:17:32:437,10:17:35:456,left,10:17:35:523,2018_Jun_07_1007,59.9676895013,MP-Perception Experiment,xx13w23,
107,training(27).mov,False,right,0,tmp_numprim(6)_final(2).mov,0,106,106,104,,,,,,,,10:17:36:295,10:17:37:039,10:17:40:042,right,10:17:40:610,2018_Jun_07_1007,59.9676895013,MP-Perception Experiment,xx13w23,
108,training(22).mov,False,right,0,vgpdm_dyn(20)-lvm(25)_final(7).mov,0,107,107,91,,,,,,,,10:17:41:365,10:17:42:127,10:17:45:113,right,10:17:45:464,2018_Jun_07_1007,59.9676895013,MP-Perception Experiment,xx13w23,
109,training(21).mov,False,right,0,vcgpdm_dyn(20)-lvm(35)_final(1).mov,0,108,108,13,,,,,,,,10:17:46:231,10:17:46:965,10:17:49:952,left,10:17:50:453,2018_Jun_07_1007,59.9676895013,MP-Perception Experiment,xx13w23,
110,training(10).mov,True,right,0,vcgpdm_dyn(30)-lvm(30)_final(2).mov,0,109,109,86,,,,,,,,10:17:51:224,10:17:51:970,10:17:54:956,right,10:17:55:840,2018_Jun_07_1007,59.9676895013,MP-Perception Experiment,xx13w23,
111,vgpdm_dyn(30)-lvm(25)_final(0).mov,True,left,0,training(20).mov,0,110,110,12,,,,,,,,10:17:56:607,10:17:57:359,10:18:00:361,right,10:18:01:179,2018_Jun_07_1007,59.9676895013,MP-Perception Experiment,xx13w23,
112,vcgpdm_dyn(10)-lvm(25)_final(6).mov,True,left,0,training(38).mov,0,111,111,41,,,,,,,,10:18:01:925,10:18:02:680,10:18:05:699,left,10:18:06:483,2018_Jun_07_1007,59.9676895013,MP-Perception Experiment,xx13w23,
113,training(18).mov,False,right,0,tmp_numprim(7)_final(8).mov,0,112,112,3,,,,,,,,10:18:07:260,10:18:07:984,10:18:10:987,right,10:18:11:537,2018_Jun_07_1007,59.9676895013,MP-Perception Experiment,xx13w23,
114,training(35).mov,True,right,0,vcgpdm_dyn(30)-lvm(20)_final(7).mov,0,113,113,80,,,,,,,,10:18:12:290,10:18:13:038,10:18:16:042,left,10:18:16:526,2018_Jun_07_1007,59.9676895013,MP-Perception Experiment,xx13w23,
115,dmp_npsi(30)_final(9).mov,False,left,0,training(31).mov,0,114,114,40,,,,,,,,10:18:17:299,10:18:18:027,10:18:21:046,left,10:18:21:563,2018_Jun_07_1007,59.9676895013,MP-Perception Experiment,xx13w23,
116,training(25).mov,True,right,0,vgpdm_dyn(15)-lvm(35)_final(9).mov,0,115,115,135,,,,,,,,10:18:22:306,10:18:23:064,10:18:26:065,left,10:18:26:782,2018_Jun_07_1007,59.9676895013,MP-Perception Experiment,xx13w23,
117,vgpdm_dyn(25)-lvm(20)_final(5).mov,False,left,0,training(16).mov,0,116,116,37,,,,,,,,10:18:27:551,10:18:28:283,10:18:31:286,right,10:18:32:104,2018_Jun_07_1007,59.9676895013,MP-Perception Experiment,xx13w23,
118,training(8).mov,True,right,0,tmp_numprim(6)_final(3).mov,0,117,117,54,,,,,,,,10:18:32:853,10:18:33:605,10:18:36:608,right,10:18:37:025,2018_Jun_07_1007,59.9676895013,MP-Perception Experiment,xx13w23,
119,vcgpdm_dyn(10)-lvm(30)_final(8).mov,True,left,0,training(11).mov,0,118,118,122,,,,,,,,10:18:37:786,10:18:38:528,10:18:41:513,left,10:18:41:948,2018_Jun_07_1007,59.9676895013,MP-Perception Experiment,xx13w23,
120,training(34).mov,False,right,0,vgpdm_dyn(15)-lvm(35)_final(5).mov,0,119,119,63,,,,,,,,10:18:42:713,10:18:43:448,10:18:46:467,left,10:18:47:719,2018_Jun_07_1007,59.9676895013,MP-Perception Experiment,xx13w23,
121,training(25).mov,False,right,0,vcgpdm_dyn(35)-lvm(20)_final(4).mov,0,120,120,154,,,,,,,,10:18:48:475,10:18:49:221,10:18:52:223,left,10:18:52:640,2018_Jun_07_1007,59.9676895013,MP-Perception Experiment,xx13w23,
122,vcgpdm_dyn(25)-lvm(25)_final(1).mov,False,left,0,training(39).mov,0,121,121,103,,,,,,,,10:18:53:942,10:18:54:458,10:18:57:160,right,10:18:57:811,2018_Jun_07_1007,59.9676895013,MP-Perception Experiment,xx13w23,
123,vcgpdm_dyn(30)-lvm(20)_final(8).mov,True,left,0,training(7).mov,0,122,122,156,,,,,,,,10:18:58:564,10:18:59:312,10:19:02:315,left,10:19:03:032,2018_Jun_07_1007,59.9676895013,MP-Perception Experiment,xx13w23,
124,training(1).mov,False,right,0,vcgpdm_dyn(5)-lvm(5)_final(7).mov,0,123,123,14,,,,,,,,10:19:03:803,10:19:04:533,10:19:07:537,right,10:19:08:421,2018_Jun_07_1007,59.9676895013,MP-Perception Experiment,xx13w23,
125,tmp_numprim(7)_final(0).mov,True,left,0,training(34).mov,0,124,124,36,,,,,,,,10:19:09:171,10:19:09:938,10:19:12:924,right,10:19:14:475,2018_Jun_07_1007,59.9676895013,MP-Perception Experiment,xx13w23,
126,training(31).mov,False,right,0,vcgpdm_dyn(35)-lvm(10)_final(7).mov,0,125,125,95,,,,,,,,10:19:15:415,10:19:15:977,10:19:18:977,right,10:19:19:194,2018_Jun_07_1007,59.9676895013,MP-Perception Experiment,xx13w23,
127,vgpdm_dyn(25)-lvm(5)_final(7).mov,False,left,0,training(1).mov,0,126,126,34,,,,,,,,10:19:19:953,10:19:20:712,10:19:23:714,left,10:19:23:915,2018_Jun_07_1007,59.9676895013,MP-Perception Experiment,xx13w23,
128,training(37).mov,True,right,0,vcgpdm_dyn(15)-lvm(30)_final(8).mov,0,127,127,132,,,,,,,,10:19:24:686,10:19:25:417,10:19:28:404,right,10:19:28:938,2018_Jun_07_1007,59.9676895013,MP-Perception Experiment,xx13w23,
129,training(4).mov,False,right,0,vcgpdm_dyn(20)-lvm(5)_final(3).mov,0,128,128,78,,,,,,,,10:19:29:695,10:19:30:456,10:19:33:442,left,10:19:34:609,2018_Jun_07_1007,59.9676895013,MP-Perception Experiment,xx13w23,
130,vgpdm_dyn(10)-lvm(5)_final(4).mov,False,left,0,training(41).mov,0,129,129,72,,,,,,,,10:19:35:375,10:19:36:111,10:19:39:113,left,10:19:39:847,2018_Jun_07_1007,59.9676895013,MP-Perception Experiment,xx13w23,
131,training(1).mov,False,right,0,vgpdm_dyn(30)-lvm(35)_final(2).mov,0,130,130,93,,,,,,,,10:19:40:596,10:19:41:348,10:19:44:352,left,10:19:45:202,2018_Jun_07_1007,59.9676895013,MP-Perception Experiment,xx13w23,
132,training(2).mov,True,right,0,vgpdm_dyn(20)-lvm(30)_final(6).mov,0,131,131,144,,,,,,,,10:19:45:955,10:19:46:703,10:19:49:707,left,10:19:50:256,2018_Jun_07_1007,59.9676895013,MP-Perception Experiment,xx13w23,
133,tmp_numprim(10)_final(0).mov,False,left,0,training(2).mov,0,132,132,29,,,,,,,,10:19:51:020,10:19:51:757,10:19:54:760,left,10:19:55:194,2018_Jun_07_1007,59.9676895013,MP-Perception Experiment,xx13w23,
134,dmp_npsi(30)_final(1).mov,False,left,0,training(39).mov,0,133,133,140,,,,,,,,10:19:55:958,10:19:56:695,10:19:59:698,left,10:20:00:249,2018_Jun_07_1007,59.9676895013,MP-Perception Experiment,xx13w23,
135,training(48).mov,True,right,0,vgpdm_dyn(20)-lvm(15)_final(2).mov,0,134,134,39,,,,,,,,10:20:01:007,10:20:01:750,10:20:04:752,left,10:20:05:336,2018_Jun_07_1007,59.9676895013,MP-Perception Experiment,xx13w23,
136,vgpdm_dyn(25)-lvm(30)_final(6).mov,True,left,0,training(29).mov,0,135,135,106,,,,,,,,10:20:06:115,10:20:06:852,10:20:09:838,left,10:20:11:056,2018_Jun_07_1007,59.9676895013,MP-Perception Experiment,xx13w23,
137,training(16).mov,True,right,0,vgpdm_dyn(30)-lvm(10)_final(1).mov,0,136,136,28,,,,,,,,10:20:11:828,10:20:12:557,10:20:15:559,right,10:20:15:977,2018_Jun_07_1007,59.9676895013,MP-Perception Experiment,xx13w23,
138,vcgpdm_dyn(10)-lvm(20)_final(9).mov,False,left,0,training(25).mov,0,137,137,121,,,,,,,,10:20:16:734,10:20:17:478,10:20:20:466,left,10:20:21:267,2018_Jun_07_1007,59.9676895013,MP-Perception Experiment,xx13w23,
139,vcgpdm_dyn(5)-lvm(5)_final(3).mov,False,left,0,training(34).mov,0,138,138,146,,,,,,,,10:20:22:030,10:20:22:785,10:20:25:770,left,10:20:26:321,2018_Jun_07_1007,59.9676895013,MP-Perception Experiment,xx13w23,
140,vgpdm_dyn(35)-lvm(25)_final(6).mov,False,left,0,training(2).mov,0,139,139,108,,,,,,,,10:20:27:079,10:20:27:822,10:20:30:824,left,10:20:31:442,2018_Jun_07_1007,59.9676895013,MP-Perception Experiment,xx13w23,
141,vgpdm_dyn(5)-lvm(35)_final(6)_bad.mov,True,left,0,training(12).mov,0,140,140,18,,,,,,,,10:20:32:200,10:20:32:943,10:20:35:946,left,10:20:36:430,2018_Jun_07_1007,59.9676895013,MP-Perception Experiment,xx13w23,
142,training(40).mov,False,right,0,vcgpdm_dyn(10)-lvm(10)_final(1).mov,0,141,141,0,,,,,,,,10:20:37:188,10:20:37:931,10:20:40:934,right,10:20:41:250,2018_Jun_07_1007,59.9676895013,MP-Perception Experiment,xx13w23,
143,dmp_npsi(40)_final(2).mov,False,left,0,training(2).mov,0,142,142,138,,,,,,,,10:20:42:015,10:20:42:752,10:20:45:754,left,10:20:46:822,2018_Jun_07_1007,59.9676895013,MP-Perception Experiment,xx13w23,
144,vcgpdm_dyn(25)-lvm(35)_final(9).mov,False,left,0,training(39).mov,0,143,143,19,,,,,,,,10:20:47:588,10:20:48:323,10:20:51:325,left,10:20:51:944,2018_Jun_07_1007,59.9676895013,MP-Perception Experiment,xx13w23,
145,vcgpdm_dyn(30)-lvm(5)_final(3).mov,False,left,0,training(35).mov,0,144,144,107,,,,,,,,10:20:52:695,10:20:53:445,10:20:56:445,left,10:20:57:029,2018_Jun_07_1007,59.9676895013,MP-Perception Experiment,xx13w23,
146,training(22).mov,False,right,0,dmp_npsi(10)_final(0)_bad.mov,0,145,145,152,,,,,,,,10:20:57:785,10:20:58:530,10:21:01:533,right,10:21:02:167,2018_Jun_07_1007,59.9676895013,MP-Perception Experiment,xx13w23,
147,training(5).mov,False,right,0,dmp_npsi(25)_final(0).mov,0,146,146,16,,,,,,,,10:21:02:919,10:21:03:684,10:21:06:670,right,10:21:07:071,2018_Jun_07_1007,59.9676895013,MP-Perception Experiment,xx13w23,
148,vcgpdm_dyn(20)-lvm(35)_final(5).mov,False,left,0,training(18).mov,0,147,147,5,,,,,,,,10:21:07:857,10:21:08:573,10:21:11:560,right,10:21:11:861,2018_Jun_07_1007,59.9676895013,MP-Perception Experiment,xx13w23,
149,training(3).mov,False,right,0,vcgpdm_dyn(20)-lvm(20)_final(5).mov,0,148,148,85,,,,,,,,10:21:12:625,10:21:13:378,10:21:16:364,right,10:21:17:031,2018_Jun_07_1007,59.9676895013,MP-Perception Experiment,xx13w23,
150,training(18).mov,True,right,0,vgpdm_dyn(20)-lvm(30)_final(3).mov,0,149,149,59,,,,,,,,10:21:17:780,10:21:18:533,10:21:21:535,left,10:21:22:002,2018_Jun_07_1007,59.9676895013,MP-Perception Experiment,xx13w23,
151,training(34).mov,True,right,0,vgpdm_dyn(10)-lvm(25)_final(4).mov,0,150,150,87,,,,,,,,10:21:22:754,10:21:23:503,10:21:26:507,right,10:21:27:024,2018_Jun_07_1007,59.9676895013,MP-Perception Experiment,xx13w23,
152,training(1).mov,True,right,0,vcgpdm_dyn(15)-lvm(15)_final(8).mov,0,151,151,51,,,,,,,,10:21:27:765,10:21:28:525,10:21:31:527,right,10:21:32:212,2018_Jun_07_1007,59.9676895013,MP-Perception Experiment,xx13w23,
153,vgpdm_dyn(20)-lvm(35)_final(6).mov,False,left,0,training(40).mov,0,152,152,120,,,,,,,,10:21:32:969,10:21:33:729,10:21:36:732,left,10:21:37:466,2018_Jun_07_1007,59.9676895013,MP-Perception Experiment,xx13w23,
154,tmp_numprim(5)_final(3).mov,True,left,0,training(28).mov,0,153,153,81,,,,,,,,10:21:38:239,10:21:38:967,10:21:41:986,left,10:21:42:620,2018_Jun_07_1007,59.9676895013,MP-Perception Experiment,xx13w23,
155,map_cgpdm_final(1).mov,False,left,0,training(37).mov,0,154,154,89,,,,,,,,10:21:43:381,10:21:44:122,10:21:47:123,right,10:21:47:757,2018_Jun_07_1007,59.9676895013,MP-Perception Experiment,xx13w23,
156,training(37).mov,True,right,0,vgpdm_dyn(15)-lvm(25)_final(1).mov,0,155,155,71,,,,,,,,10:21:48:512,10:21:49:258,10:21:52:260,left,10:21:52:777,2018_Jun_07_1007,59.9676895013,MP-Perception Experiment,xx13w23,
157,training(12).mov,True,right,0,vgpdm_dyn(10)-lvm(35)_final(7).mov,0,156,156,136,,,,,,,,10:21:53:937,10:21:54:445,10:21:57:281,right,10:21:58:315,2018_Jun_07_1007,59.9676895013,MP-Perception Experiment,xx13w23,
158,training(24).mov,False,right,0,vgpdm_dyn(15)-lvm(5)_final(5).mov,0,157,157,53,,,,,,,,10:21:59:073,10:21:59:816,10:22:02:804,right,10:22:03:806,2018_Jun_07_1007,59.9676895013,MP-Perception Experiment,xx13w23,
159,training(40).mov,True,right,0,map_cgpdm_final(6).mov,0,158,158,100,,,,,,,,10:22:04:737,10:22:05:307,10:22:08:309,right,10:22:08:926,2018_Jun_07_1007,59.9676895013,MP-Perception Experiment,xx13w23,
160,dmp_npsi(15)_final(9).mov,False,left,1,training(3).mov,0,0,0,129,,,,,,,,10:24:35:746,10:24:36:503,10:24:39:507,left,10:24:40:258,2018_Jun_07_1007,59.9676895013,MP-Perception Experiment,xx13w23,
161,training(20).mov,False,right,1,vcgpdm_dyn(15)-lvm(5)_final(7).mov,0,1,1,30,,,,,,,,10:24:41:012,10:24:41:759,10:24:44:761,left,10:24:45:128,2018_Jun_07_1007,59.9676895013,MP-Perception Experiment,xx13w23,
162,vgpdm_dyn(20)-lvm(30)_final(1).mov,False,left,1,training(19).mov,0,2,2,69,,,,,,,,10:24:45:900,10:24:46:629,10:24:49:632,right,10:24:50:233,2018_Jun_07_1007,59.9676895013,MP-Perception Experiment,xx13w23,
163,vcgpdm_dyn(25)-lvm(20)_final(0).mov,False,left,1,training(40).mov,0,3,3,87,,,,,,,,10:24:51:000,10:24:51:750,10:24:54:753,left,10:24:55:470,2018_Jun_07_1007,59.9676895013,MP-Perception Experiment,xx13w23,
164,dmp_npsi(35)_final(2).mov,True,left,1,training(8).mov,0,4,4,47,,,,,,,,10:24:56:219,10:24:56:972,10:24:59:974,left,10:25:00:408,2018_Jun_07_1007,59.9676895013,MP-Perception Experiment,xx13w23,
165,training(13).mov,False,right,1,vcgpdm_dyn(30)-lvm(15)_final(3).mov,0,5,5,99,,,,,,,,10:25:01:338,10:25:01:926,10:25:04:928,right,10:25:05:296,2018_Jun_07_1007,59.9676895013,MP-Perception Experiment,xx13w23,
166,dmp_npsi(50)_final(4).mov,True,left,1,training(6).mov,0,6,6,121,,,,,,,,10:25:06:059,10:25:06:812,10:25:09:797,left,10:25:10:231,2018_Jun_07_1007,59.9676895013,MP-Perception Experiment,xx13w23,
167,training(39).mov,False,right,1,vgpdm_dyn(5)-lvm(10)_final(3).mov,0,7,7,144,,,,,,,,10:25:10:992,10:25:11:749,10:25:14:736,right,10:25:15:053,2018_Jun_07_1007,59.9676895013,MP-Perception Experiment,xx13w23,
168,training(30).mov,True,right,1,vgpdm_dyn(30)-lvm(15)_final(7).mov,0,8,8,23,,,,,,,,10:25:15:817,10:25:16:554,10:25:19:558,right,10:25:19:942,2018_Jun_07_1007,59.9676895013,MP-Perception Experiment,xx13w23,
169,vcgpdm_dyn(20)-lvm(5)_final(1).mov,False,left,1,training(14).mov,0,9,9,101,,,,,,,,10:25:20:698,10:25:21:443,10:25:24:445,left,10:25:25:129,2018_Jun_07_1007,59.9676895013,MP-Perception Experiment,xx13w23,
170,vgpdm_dyn(30)-lvm(5)_final(1).mov,False,left,1,training(38).mov,0,10,10,136,,,,,,,,10:25:26:046,10:25:26:630,10:25:29:633,left,10:25:29:649,2018_Jun_07_1007,59.9676895013,MP-Perception Experiment,xx13w23,
171,vcgpdm_dyn(30)-lvm(35)_final(3).mov,True,left,1,training(31).mov,0,11,11,35,,,,,,,,10:25:30:419,10:25:31:152,10:25:34:154,left,10:25:34:805,2018_Jun_07_1007,59.9676895013,MP-Perception Experiment,xx13w23,
172,vcgpdm_dyn(30)-lvm(5)_final(3).mov,False,left,1,training(4).mov,0,12,12,25,,,,,,,,10:25:35:554,10:25:36:322,10:25:39:325,left,10:25:39:375,2018_Jun_07_1007,59.9676895013,MP-Perception Experiment,xx13w23,
173,training(8).mov,False,right,1,vcgpdm_dyn(5)-lvm(15)_final(8).mov,0,13,13,40,,,,,,,,10:25:40:323,10:25:40:876,10:25:43:895,left,10:25:44:512,2018_Jun_07_1007,59.9676895013,MP-Perception Experiment,xx13w23,
174,vcgpdm_dyn(20)-lvm(35)_final(6).mov,False,left,1,training(3).mov,0,14,14,92,,,,,,,,10:25:45:273,10:25:46:014,10:25:49:017,left,10:25:49:734,2018_Jun_07_1007,59.9676895013,MP-Perception Experiment,xx13w23,
175,training(5).mov,False,right,1,vgpdm_dyn(15)-lvm(15)_final(8).mov,0,15,15,145,,,,,,,,10:25:50:484,10:25:51:235,10:25:54:238,right,10:25:54:538,2018_Jun_07_1007,59.9676895013,MP-Perception Experiment,xx13w23,
176,dmp_npsi(15)_final(5).mov,False,left,1,training(3).mov,0,16,16,131,,,,,,,,10:25:55:288,10:25:56:039,10:25:59:040,left,10:25:59:440,2018_Jun_07_1007,59.9676895013,MP-Perception Experiment,xx13w23,
177,vgpdm_dyn(30)-lvm(10)_final(8).mov,True,left,1,training(38).mov,0,17,17,100,,,,,,,,10:26:00:199,10:26:00:942,10:26:03:944,left,10:26:04:361,2018_Jun_07_1007,59.9676895013,MP-Perception Experiment,xx13w23,
178,training(0).mov,False,right,1,vgpdm_dyn(25)-lvm(5)_final(1).mov,0,18,18,143,,,,,,,,10:26:05:127,10:26:05:862,10:26:08:851,left,10:26:09:535,2018_Jun_07_1007,59.9676895013,MP-Perception Experiment,xx13w23,
179,training(16).mov,False,right,1,map_cgpdm_final(7).mov,0,19,19,105,,,,,,,,10:26:10:296,10:26:11:036,10:26:14:038,left,10:26:15:006,2018_Jun_07_1007,59.9676895013,MP-Perception Experiment,xx13w23,
180,vgpdm_dyn(15)-lvm(5)_final(2).mov,True,left,1,training(0).mov,0,20,20,0,,,,,,,,10:26:15:766,10:26:16:507,10:26:19:509,left,10:26:20:210,2018_Jun_07_1007,59.9676895013,MP-Perception Experiment,xx13w23,
181,training(25).mov,False,right,1,vgpdm_dyn(30)-lvm(10)_final(4).mov,0,21,21,68,,,,,,,,10:26:20:952,10:26:21:711,10:26:24:731,left,10:26:25:449,2018_Jun_07_1007,59.9676895013,MP-Perception Experiment,xx13w23,
182,training(29).mov,True,right,1,vcgpdm_dyn(5)-lvm(5)_final(4).mov,0,22,22,126,,,,,,,,10:26:26:215,10:26:26:966,10:26:29:952,right,10:26:30:369,2018_Jun_07_1007,59.9676895013,MP-Perception Experiment,xx13w23,
183,vcgpdm_dyn(10)-lvm(5)_final(9).mov,False,left,1,training(31).mov,0,23,23,147,,,,,,,,10:26:31:125,10:26:31:870,10:26:34:873,left,10:26:35:140,2018_Jun_07_1007,59.9676895013,MP-Perception Experiment,xx13w23,
184,training(3).mov,True,right,1,vcgpdm_dyn(35)-lvm(5)_final(6).mov,0,24,24,8,,,,,,,,10:26:35:892,10:26:36:641,10:26:39:643,right,10:26:40:127,2018_Jun_07_1007,59.9676895013,MP-Perception Experiment,xx13w23,
185,training(38).mov,True,right,1,vgpdm_dyn(20)-lvm(15)_final(2).mov,0,25,25,122,,,,,,,,10:26:40:882,10:26:41:629,10:26:44:631,right,10:26:45:199,2018_Jun_07_1007,59.9676895013,MP-Perception Experiment,xx13w23,
186,vcgpdm_dyn(5)-lvm(20)_final(5).mov,False,left,1,training(22).mov,0,26,26,130,,,,,,,,10:26:46:136,10:26:46:715,10:26:49:706,left,10:26:50:284,2018_Jun_07_1007,59.9676895013,MP-Perception Experiment,xx13w23,
187,training(1).mov,True,right,1,vcgpdm_dyn(5)-lvm(10)_final(5).mov,0,27,27,133,,,,,,,,10:26:51:032,10:26:51:785,10:26:54:788,right,10:26:55:222,2018_Jun_07_1007,59.9676895013,MP-Perception Experiment,xx13w23,
188,vgpdm_dyn(10)-lvm(5)_final(7).mov,False,left,1,training(34).mov,0,28,28,114,,,,,,,,10:26:56:004,10:26:56:723,10:26:59:732,left,10:27:00:245,2018_Jun_07_1007,59.9676895013,MP-Perception Experiment,xx13w23,
189,training(3).mov,True,right,1,vcgpdm_dyn(25)-lvm(25)_final(7).mov,0,29,29,134,,,,,,,,10:27:01:007,10:27:01:763,10:27:04:749,right,10:27:05:366,2018_Jun_07_1007,59.9676895013,MP-Perception Experiment,xx13w23,
190,training(20).mov,True,right,1,vgpdm_dyn(35)-lvm(25)_final(6).mov,0,30,30,156,,,,,,,,10:27:06:122,10:27:06:884,10:27:09:870,right,10:27:10:437,2018_Jun_07_1007,59.9676895013,MP-Perception Experiment,xx13w23,
191,training(17).mov,True,right,1,vgpdm_dyn(15)-lvm(5)_final(0).mov,0,31,31,13,,,,,,,,10:27:11:188,10:27:11:955,10:27:14:940,right,10:27:15:541,2018_Jun_07_1007,59.9676895013,MP-Perception Experiment,xx13w23,
192,training(36).mov,True,right,1,map_cgpdm_final(2).mov,0,32,32,148,,,,,,,,10:27:16:306,10:27:17:043,10:27:20:045,right,10:27:20:496,2018_Jun_07_1007,59.9676895013,MP-Perception Experiment,xx13w23,
193,dmp_npsi(35)_final(5).mov,True,left,1,training(11).mov,0,33,33,157,,,,,,,,10:27:21:262,10:27:21:997,10:27:24:999,left,10:27:25:367,2018_Jun_07_1007,59.9676895013,MP-Perception Experiment,xx13w23,
194,training(25).mov,True,right,1,vcgpdm_dyn(5)-lvm(5)_final(1).mov,0,34,34,44,,,,,,,,10:27:26:112,10:27:26:868,10:27:29:887,left,10:27:30:504,2018_Jun_07_1007,59.9676895013,MP-Perception Experiment,xx13w23,
195,training(40).mov,False,right,1,vcgpdm_dyn(5)-lvm(20)_final(8).mov,0,35,35,146,,,,,,,,10:27:31:268,10:27:32:005,10:27:35:025,right,10:27:35:826,2018_Jun_07_1007,59.9676895013,MP-Perception Experiment,xx13w23,
196,training(8).mov,True,right,1,vcgpdm_dyn(10)-lvm(25)_final(6).mov,0,36,36,56,,,,,,,,10:27:36:586,10:27:37:342,10:27:40:328,right,10:27:40:461,2018_Jun_07_1007,59.9676895013,MP-Perception Experiment,xx13w23,
197,training(7).mov,True,right,1,vgpdm_dyn(10)-lvm(20)_final(0).mov,0,37,37,81,,,,,,,,10:27:41:218,10:27:41:979,10:27:44:965,left,10:27:45:048,2018_Jun_07_1007,59.9676895013,MP-Perception Experiment,xx13w23,
198,training(41).mov,False,right,1,vcgpdm_dyn(15)-lvm(10)_final(3).mov,0,38,38,12,,,,,,,,10:27:45:826,10:27:46:549,10:27:49:554,left,10:27:49:904,2018_Jun_07_1007,59.9676895013,MP-Perception Experiment,xx13w23,
199,vgpdm_dyn(10)-lvm(10)_final(7).mov,True,left,1,training(33).mov,0,39,39,57,,,,,,,,10:27:50:659,10:27:51:406,10:27:54:409,left,10:27:54:892,2018_Jun_07_1007,59.9676895013,MP-Perception Experiment,xx13w23,
200,vgpdm_dyn(30)-lvm(30)_final(6).mov,True,left,1,training(4).mov,0,40,40,123,,,,,,,,10:27:55:648,10:27:56:393,10:27:59:412,left,10:27:59:896,2018_Jun_07_1007,59.9676895013,MP-Perception Experiment,xx13w23,
201,vgpdm_dyn(25)-lvm(35)_final(2).mov,False,left,1,training(38).mov,0,41,41,102,,,,,,,,10:28:00:665,10:28:01:397,10:28:04:400,left,10:28:04:600,2018_Jun_07_1007,59.9676895013,MP-Perception Experiment,xx13w23,
202,training(20).mov,False,right,1,vcgpdm_dyn(20)-lvm(5)_final(9).mov,0,42,42,49,,,,,,,,10:28:05:359,10:28:06:101,10:28:09:105,left,10:28:10:106,2018_Jun_07_1007,59.9676895013,MP-Perception Experiment,xx13w23,
203,training(28).mov,False,right,1,tmp_numprim(2)_final(4).mov,0,43,43,80,,,,,,,,10:28:10:856,10:28:11:607,10:28:14:609,right,10:28:14:843,2018_Jun_07_1007,59.9676895013,MP-Perception Experiment,xx13w23,
204,training(27).mov,False,right,1,vcgpdm_dyn(10)-lvm(35)_final(9).mov,0,44,44,36,,,,,,,,10:28:15:621,10:28:16:361,10:28:19:380,right,10:28:19:780,2018_Jun_07_1007,59.9676895013,MP-Perception Experiment,xx13w23,
205,training(40).mov,True,right,1,vcgpdm_dyn(20)-lvm(5)_final(9).mov,0,45,45,5,,,,,,,,10:28:20:542,10:28:21:281,10:28:24:283,left,10:28:25:084,2018_Jun_07_1007,59.9676895013,MP-Perception Experiment,xx13w23,
206,training(5).mov,False,right,1,vcgpdm_dyn(25)-lvm(5)_final(6).mov,0,46,46,82,,,,,,,,10:28:26:027,10:28:26:586,10:28:29:587,right,10:28:29:821,2018_Jun_07_1007,59.9676895013,MP-Perception Experiment,xx13w23,
207,training(6).mov,False,right,1,vcgpdm_dyn(5)-lvm(10)_final(5).mov,0,47,47,17,,,,,,,,10:28:30:580,10:28:31:322,10:28:34:324,right,10:28:34:875,2018_Jun_07_1007,59.9676895013,MP-Perception Experiment,xx13w23,
208,training(48).mov,True,right,1,tmp_numprim(6)_final(7).mov,0,48,48,72,,,,,,,,10:28:35:625,10:28:36:393,10:28:39:378,right,10:28:39:929,2018_Jun_07_1007,59.9676895013,MP-Perception Experiment,xx13w23,
209,vgpdm_dyn(35)-lvm(10)_final(5).mov,True,left,1,training(32).mov,0,49,49,132,,,,,,,,10:28:40:699,10:28:41:430,10:28:44:418,right,10:28:44:586,2018_Jun_07_1007,59.9676895013,MP-Perception Experiment,xx13w23,
210,training(48).mov,False,right,1,vcgpdm_dyn(10)-lvm(30)_final(2).mov,0,50,50,104,,,,,,,,10:28:45:521,10:28:46:087,10:28:49:106,right,10:28:49:857,2018_Jun_07_1007,59.9676895013,MP-Perception Experiment,xx13w23,
211,training(0).mov,True,right,1,tmp_numprim(9)_final(5).mov,0,51,51,52,,,,,,,,10:28:50:624,10:28:51:357,10:28:54:360,left,10:28:54:977,2018_Jun_07_1007,59.9676895013,MP-Perception Experiment,xx13w23,
212,vcgpdm_dyn(5)-lvm(25)_final(3).mov,False,left,1,training(23).mov,0,52,52,125,,,,,,,,10:28:55:728,10:28:56:495,10:28:59:481,left,10:28:59:914,2018_Jun_07_1007,59.9676895013,MP-Perception Experiment,xx13w23,
213,vcgpdm_dyn(15)-lvm(30)_final(9).mov,False,left,1,training(13).mov,0,53,53,78,,,,,,,,10:29:00:663,10:29:01:417,10:29:04:436,right,10:29:04:853,2018_Jun_07_1007,59.9676895013,MP-Perception Experiment,xx13w23,
214,vgpdm_dyn(20)-lvm(20)_final(7).mov,False,left,1,training(18).mov,0,54,54,117,,,,,,,,10:29:05:792,10:29:06:354,10:29:09:356,right,10:29:09:740,2018_Jun_07_1007,59.9676895013,MP-Perception Experiment,xx13w23,
215,training(31).mov,True,right,1,vcgpdm_dyn(20)-lvm(35)_final(9).mov,0,55,55,89,,,,,,,,10:29:10:496,10:29:11:241,10:29:14:260,left,10:29:14:778,2018_Jun_07_1007,59.9676895013,MP-Perception Experiment,xx13w23,
216,vcgpdm_dyn(25)-lvm(15)_final(8).mov,True,left,1,training(0).mov,0,56,56,154,,,,,,,,10:29:15:536,10:29:16:279,10:29:19:280,left,10:29:19:497,2018_Jun_07_1007,59.9676895013,MP-Perception Experiment,xx13w23,
217,vcgpdm_dyn(30)-lvm(10)_final(8).mov,False,left,1,training(7).mov,0,57,57,62,,,,,,,,10:29:20:261,10:29:20:998,10:29:24:001,left,10:29:24:034,2018_Jun_07_1007,59.9676895013,MP-Perception Experiment,xx13w23,
218,vcgpdm_dyn(10)-lvm(20)_final(6).mov,False,left,1,training(2).mov,0,58,58,21,,,,,,,,10:29:24:793,10:29:25:535,10:29:28:538,left,10:29:28:855,2018_Jun_07_1007,59.9676895013,MP-Perception Experiment,xx13w23,
219,vcgpdm_dyn(25)-lvm(5)_final(6).mov,False,left,1,training(19).mov,0,59,59,91,,,,,,,,10:29:29:609,10:29:30:374,10:29:33:360,left,10:29:33:627,2018_Jun_07_1007,59.9676895013,MP-Perception Experiment,xx13w23,
220,vcgpdm_dyn(15)-lvm(5)_final(2).mov,False,left,1,training(28).mov,0,60,60,37,,,,,,,,10:29:34:556,10:29:35:128,10:29:38:131,left,10:29:38:615,2018_Jun_07_1007,59.9676895013,MP-Perception Experiment,xx13w23,
221,training(18).mov,True,right,1,vcgpdm_dyn(25)-lvm(10)_final(8).mov,0,61,61,41,,,,,,,,10:29:39:375,10:29:40:116,10:29:43:136,left,10:29:43:719,2018_Jun_07_1007,59.9676895013,MP-Perception Experiment,xx13w23,
222,training(11).mov,True,right,1,vcgpdm_dyn(20)-lvm(30)_final(7).mov,0,62,62,46,,,,,,,,10:29:44:471,10:29:45:221,10:29:48:240,left,10:29:49:090,2018_Jun_07_1007,59.9676895013,MP-Perception Experiment,xx13w23,
223,training(28).mov,True,right,1,tmp_numprim(10)_final(2).mov,0,63,63,149,,,,,,,,10:29:49:850,10:29:50:608,10:29:53:595,right,10:29:54:329,2018_Jun_07_1007,59.9676895013,MP-Perception Experiment,xx13w23,
224,vcgpdm_dyn(30)-lvm(15)_final(0).mov,True,left,1,training(25).mov,0,64,64,60,,,,,,,,10:29:55:076,10:29:55:830,10:29:58:832,right,10:29:59:317,2018_Jun_07_1007,59.9676895013,MP-Perception Experiment,xx13w23,
225,training(1).mov,True,right,1,vgpdm_dyn(20)-lvm(10)_final(3)_out_of_screen.mov,0,65,65,45,,,,,,,,10:30:00:080,10:30:00:817,10:30:03:820,right,10:30:04:354,2018_Jun_07_1007,59.9676895013,MP-Perception Experiment,xx13w23,
226,training(9).mov,False,right,1,vgpdm_dyn(35)-lvm(30)_final(9).mov,0,66,66,63,,,,,,,,10:30:05:139,10:30:05:855,10:30:08:856,left,10:30:08:989,2018_Jun_07_1007,59.9676895013,MP-Perception Experiment,xx13w23,
227,training(16).mov,False,right,1,vgpdm_dyn(15)-lvm(15)_final(9).mov,0,67,67,141,,,,,,,,10:30:09:773,10:30:10:507,10:30:13:494,right,10:30:13:777,2018_Jun_07_1007,59.9676895013,MP-Perception Experiment,xx13w23,
228,vgpdm_dyn(35)-lvm(25)_final(8).mov,True,left,1,training(39).mov,0,68,68,137,,,,,,,,10:30:14:529,10:30:15:278,10:30:18:281,left,10:30:18:432,2018_Jun_07_1007,59.9676895013,MP-Perception Experiment,xx13w23,
229,training(12).mov,True,right,1,map_gpdm_final(6).mov,0,69,69,66,,,,,,,,10:30:19:183,10:30:19:932,10:30:22:920,right,10:30:23:287,2018_Jun_07_1007,59.9676895013,MP-Perception Experiment,xx13w23,
230,vcgpdm_dyn(15)-lvm(20)_final(5).mov,False,left,1,training(4).mov,0,70,70,128,,,,,,,,10:30:24:045,10:30:24:805,10:30:27:790,right,10:30:28:575,2018_Jun_07_1007,59.9676895013,MP-Perception Experiment,xx13w23,
231,training(30).mov,True,right,1,vgpdm_dyn(5)-lvm(15)_final(8).mov,0,71,71,135,,,,,,,,10:30:29:323,10:30:30:076,10:30:33:079,right,10:30:33:663,2018_Jun_07_1007,59.9676895013,MP-Perception Experiment,xx13w23,
232,vcgpdm_dyn(25)-lvm(15)_final(3).mov,True,left,1,training(16).mov,0,72,72,11,,,,,,,,10:30:34:421,10:30:35:164,10:30:38:167,left,10:30:38:934,2018_Jun_07_1007,59.9676895013,MP-Perception Experiment,xx13w23,
233,dmp_npsi(15)_final(0).mov,False,left,1,training(37).mov,0,73,73,83,,,,,,,,10:30:39:699,10:30:40:435,10:30:43:437,left,10:30:44:321,2018_Jun_07_1007,59.9676895013,MP-Perception Experiment,xx13w23,
234,vcgpdm_dyn(35)-lvm(25)_final(2).mov,False,left,1,training(36).mov,0,74,74,22,,,,,,,,10:30:45:079,10:30:45:840,10:30:48:826,left,10:30:49:660,2018_Jun_07_1007,59.9676895013,MP-Perception Experiment,xx13w23,
235,training(4).mov,True,right,1,tmp_numprim(4)_final(8).mov,0,75,75,115,,,,,,,,10:30:50:429,10:30:51:161,10:30:54:164,right,10:30:55:031,2018_Jun_07_1007,59.9676895013,MP-Perception Experiment,xx13w23,
236,vcgpdm_dyn(15)-lvm(5)_final(6).mov,True,left,1,training(23).mov,0,76,76,71,,,,,,,,10:30:55:782,10:30:56:532,10:30:59:533,right,10:31:00:067,2018_Jun_07_1007,59.9676895013,MP-Perception Experiment,xx13w23,
237,vcgpdm_dyn(5)-lvm(25)_final(5).mov,True,left,1,training(6).mov,0,77,77,73,,,,,,,,10:31:00:830,10:31:01:568,10:31:04:571,left,10:31:05:105,2018_Jun_07_1007,59.9676895013,MP-Perception Experiment,xx13w23,
238,training(29).mov,True,right,1,map_gpdm_final(4).mov,0,78,78,94,,,,,,,,10:31:05:862,10:31:06:606,10:31:09:594,right,10:31:09:911,2018_Jun_07_1007,59.9676895013,MP-Perception Experiment,xx13w23,
239,training(24).mov,False,right,1,dmp_npsi(45)_final(8).mov,0,79,79,152,,,,,,,,10:31:10:670,10:31:11:412,10:31:14:414,left,10:31:14:798,2018_Jun_07_1007,59.9676895013,MP-Perception Experiment,xx13w23,
240,vcgpdm_dyn(25)-lvm(10)_final(3).mov,False,left,1,training(18).mov,0,80,80,108,,,,,,,,10:31:15:730,10:31:16:299,10:31:19:318,right,10:31:19:802,2018_Jun_07_1007,59.9676895013,MP-Perception Experiment,xx13w23,
241,vcgpdm_dyn(10)-lvm(5)_final(7).mov,False,left,1,training(41).mov,0,81,81,86,,,,,,,,10:31:20:575,10:31:21:304,10:31:24:307,left,10:31:24:674,2018_Jun_07_1007,59.9676895013,MP-Perception Experiment,xx13w23,
242,training(41).mov,True,right,1,map_gpdm_final(1).mov,0,82,82,140,,,,,,,,10:31:25:444,10:31:26:191,10:31:29:194,right,10:31:29:761,2018_Jun_07_1007,59.9676895013,MP-Perception Experiment,xx13w23,
243,vcgpdm_dyn(30)-lvm(15)_final(1).mov,False,left,1,training(37).mov,0,83,83,84,,,,,,,,10:31:30:523,10:31:31:262,10:31:34:265,left,10:31:34:431,2018_Jun_07_1007,59.9676895013,MP-Perception Experiment,xx13w23,
244,training(11).mov,False,right,1,tmp_numprim(4)_final(8).mov,0,84,84,4,,,,,,,,10:31:35:190,10:31:35:949,10:31:38:936,right,10:31:39:220,2018_Jun_07_1007,59.9676895013,MP-Perception Experiment,xx13w23,
245,vgpdm_dyn(20)-lvm(20)_final(5).mov,False,left,1,training(28).mov,0,85,85,113,,,,,,,,10:31:40:160,10:31:40:738,10:31:43:723,right,10:31:44:291,2018_Jun_07_1007,59.9676895013,MP-Perception Experiment,xx13w23,
246,vgpdm_dyn(15)-lvm(15)_final(9).mov,False,left,1,training(9).mov,0,86,86,20,,,,,,,,10:31:45:059,10:31:45:792,10:31:48:792,left,10:31:49:326,2018_Jun_07_1007,59.9676895013,MP-Perception Experiment,xx13w23,
247,vgpdm_dyn(35)-lvm(20)_final(2)_out_of_screen.mov,True,left,1,training(21).mov,0,87,87,116,,,,,,,,10:31:50:268,10:31:50:827,10:31:53:830,left,10:31:54:380,2018_Jun_07_1007,59.9676895013,MP-Perception Experiment,xx13w23,
248,vcgpdm_dyn(25)-lvm(30)_final(9).mov,True,left,1,training(25).mov,0,88,88,29,,,,,,,,10:31:55:138,10:31:55:899,10:31:58:935,right,10:31:59:268,2018_Jun_07_1007,59.9676895013,MP-Perception Experiment,xx13w23,
249,vgpdm_dyn(30)-lvm(5)_final(3).mov,False,left,1,training(27).mov,0,89,89,75,,,,,,,,10:32:00:019,10:32:00:770,10:32:03:757,right,10:32:03:857,2018_Jun_07_1007,59.9676895013,MP-Perception Experiment,xx13w23,
250,training(7).mov,False,right,1,vcgpdm_dyn(35)-lvm(35)_final(0)_bad.mov,0,90,90,54,,,,,,,,10:32:04:617,10:32:05:358,10:32:08:361,right,10:32:08:511,2018_Jun_07_1007,59.9676895013,MP-Perception Experiment,xx13w23,
251,vgpdm_dyn(20)-lvm(25)_final(2).mov,True,left,1,training(24).mov,0,91,91,10,,,,,,,,10:32:09:267,10:32:10:012,10:32:13:015,left,10:32:13:600,2018_Jun_07_1007,59.9676895013,MP-Perception Experiment,xx13w23,
252,training(37).mov,True,right,1,vcgpdm_dyn(15)-lvm(15)_final(0).mov,0,92,92,31,,,,,,,,10:32:14:529,10:32:15:101,10:32:18:103,right,10:32:19:371,2018_Jun_07_1007,59.9676895013,MP-Perception Experiment,xx13w23,
253,dmp_npsi(35)_final(4).mov,False,left,1,training(27).mov,0,93,93,151,,,,,,,,10:32:20:131,10:32:20:872,10:32:23:891,left,10:32:24:358,2018_Jun_07_1007,59.9676895013,MP-Perception Experiment,xx13w23,
254,tmp_numprim(2)_final(5).mov,False,left,1,training(17).mov,0,94,94,7,,,,,,,,10:32:25:132,10:32:25:859,10:32:28:862,left,10:32:29:379,2018_Jun_07_1007,59.9676895013,MP-Perception Experiment,xx13w23,
255,training(37).mov,True,right,1,vgpdm_dyn(25)-lvm(35)_final(8).mov,0,95,95,26,,,,,,,,10:32:30:141,10:32:30:881,10:32:33:900,left,10:32:34:718,2018_Jun_07_1007,59.9676895013,MP-Perception Experiment,xx13w23,
256,training(23).mov,False,right,1,vcgpdm_dyn(5)-lvm(15)_final(0).mov,0,96,96,74,,,,,,,,10:32:35:475,10:32:36:219,10:32:39:236,right,10:32:40:003,2018_Jun_07_1007,59.9676895013,MP-Perception Experiment,xx13w23,
257,vcgpdm_dyn(15)-lvm(15)_final(5).mov,False,left,1,training(1).mov,0,97,97,139,,,,,,,,10:32:40:757,10:32:41:505,10:32:44:507,left,10:32:44:991,2018_Jun_07_1007,59.9676895013,MP-Perception Experiment,xx13w23,
258,training(16).mov,True,right,1,tmp_numprim(2)_final(7).mov,0,98,98,1,,,,,,,,10:32:45:741,10:32:46:492,10:32:49:495,right,10:32:49:946,2018_Jun_07_1007,59.9676895013,MP-Perception Experiment,xx13w23,
259,training(22).mov,False,right,1,vcgpdm_dyn(20)-lvm(30)_final(5).mov,0,99,99,111,,,,,,,,10:32:50:697,10:32:51:447,10:32:54:434,right,10:32:54:952,2018_Jun_07_1007,59.9676895013,MP-Perception Experiment,xx13w23,
260,vcgpdm_dyn(20)-lvm(20)_final(2).mov,False,left,1,training(30).mov,0,100,100,42,,,,,,,,10:32:55:710,10:32:56:453,10:32:59:455,right,10:32:59:956,2018_Jun_07_1007,59.9676895013,MP-Perception Experiment,xx13w23,
261,vcgpdm_dyn(20)-lvm(30)_final(7).mov,False,left,1,training(30).mov,0,101,101,107,,,,,,,,10:33:00:725,10:33:01:457,10:33:04:476,left,10:33:04:943,2018_Jun_07_1007,59.9676895013,MP-Perception Experiment,xx13w23,
262,tmp_numprim(9)_final(3).mov,True,left,1,training(11).mov,0,102,102,93,,,,,,,,10:33:05:691,10:33:06:445,10:33:09:447,left,10:33:10:148,2018_Jun_07_1007,59.9676895013,MP-Perception Experiment,xx13w23,
263,training(4).mov,True,right,1,vgpdm_dyn(20)-lvm(35)_final(6).mov,0,103,103,55,,,,,,,,10:33:11:073,10:33:11:649,10:33:14:652,right,10:33:15:169,2018_Jun_07_1007,59.9676895013,MP-Perception Experiment,xx13w23,
264,training(38).mov,True,right,1,vgpdm_dyn(20)-lvm(30)_final(6).mov,0,104,104,118,,,,,,,,10:33:16:105,10:33:16:670,10:33:19:672,right,10:33:20:039,2018_Jun_07_1007,59.9676895013,MP-Perception Experiment,xx13w23,
265,vcgpdm_dyn(35)-lvm(5)_final(7).mov,True,left,1,training(12).mov,0,105,105,39,,,,,,,,10:33:20:987,10:33:21:557,10:33:24:561,left,10:33:24:911,2018_Jun_07_1007,59.9676895013,MP-Perception Experiment,xx13w23,
266,training(37).mov,True,right,1,vgpdm_dyn(10)-lvm(5)_final(8).mov,0,106,106,67,,,,,,,,10:33:25:666,10:33:26:412,10:33:29:413,right,10:33:29:580,2018_Jun_07_1007,59.9676895013,MP-Perception Experiment,xx13w23,
267,vgpdm_dyn(15)-lvm(5)_final(4).mov,False,left,1,training(8).mov,0,107,107,16,,,,,,,,10:33:30:345,10:33:31:081,10:33:34:083,left,10:33:34:417,2018_Jun_07_1007,59.9676895013,MP-Perception Experiment,xx13w23,
268,vgpdm_dyn(10)-lvm(30)_final(2).mov,True,left,1,training(6).mov,0,108,108,109,,,,,,,,10:33:35:175,10:33:35:918,10:33:38:921,left,10:33:39:254,2018_Jun_07_1007,59.9676895013,MP-Perception Experiment,xx13w23,
269,training(40).mov,False,right,1,vcgpdm_dyn(10)-lvm(15)_final(7).mov,0,109,109,50,,,,,,,,10:33:40:034,10:33:40:773,10:33:43:744,right,10:33:44:862,2018_Jun_07_1007,59.9676895013,MP-Perception Experiment,xx13w23,
270,training(10).mov,False,right,1,vgpdm_dyn(15)-lvm(15)_final(5).mov,0,110,110,106,,,,,,,,10:33:45:627,10:33:46:363,10:33:49:365,right,10:33:49:816,2018_Jun_07_1007,59.9676895013,MP-Perception Experiment,xx13w23,
271,training(8).mov,False,right,1,vgpdm_dyn(35)-lvm(5)_final(2).mov,0,111,111,90,,,,,,,,10:33:50:575,10:33:51:317,10:33:54:319,right,10:33:55:320,2018_Jun_07_1007,59.9676895013,MP-Perception Experiment,xx13w23,
272,vgpdm_dyn(25)-lvm(30)_final(6).mov,True,left,1,training(37).mov,0,112,112,48,,,,,,,,10:33:56:104,10:33:56:821,10:33:59:824,left,10:34:00:275,2018_Jun_07_1007,59.9676895013,MP-Perception Experiment,xx13w23,
273,vcgpdm_dyn(5)-lvm(20)_final(8).mov,False,left,1,training(20).mov,0,113,113,120,,,,,,,,10:34:01:202,10:34:01:776,10:34:04:779,right,10:34:05:179,2018_Jun_07_1007,59.9676895013,MP-Perception Experiment,xx13w23,
274,training(6).mov,True,right,1,vcgpdm_dyn(30)-lvm(35)_final(9).mov,0,114,114,88,,,,,,,,10:34:05:940,10:34:06:680,10:34:09:682,right,10:34:10:200,2018_Jun_07_1007,59.9676895013,MP-Perception Experiment,xx13w23,
275,vgpdm_dyn(35)-lvm(5)_final(1).mov,True,left,1,training(8).mov,0,115,115,138,,,,,,,,10:34:10:951,10:34:11:701,10:34:14:703,left,10:34:15:037,2018_Jun_07_1007,59.9676895013,MP-Perception Experiment,xx13w23,
276,training(8).mov,True,right,1,vcgpdm_dyn(15)-lvm(25)_final(2).mov,0,116,116,70,,,,,,,,10:34:15:786,10:34:16:539,10:34:19:540,right,10:34:19:973,2018_Jun_07_1007,59.9676895013,MP-Perception Experiment,xx13w23,
277,vgpdm_dyn(25)-lvm(35)_final(3).mov,True,left,1,training(30).mov,0,117,117,77,,,,,,,,10:34:20:733,10:34:21:475,10:34:24:477,left,10:34:25:378,2018_Jun_07_1007,59.9676895013,MP-Perception Experiment,xx13w23,
278,training(11).mov,True,right,1,vgpdm_dyn(25)-lvm(25)_final(2)_bad.mov,0,118,118,9,,,,,,,,10:34:26:133,10:34:26:879,10:34:29:866,right,10:34:30:267,2018_Jun_07_1007,59.9676895013,MP-Perception Experiment,xx13w23,
279,vgpdm_dyn(15)-lvm(30)_final(3).mov,False,left,1,training(33).mov,0,119,119,158,,,,,,,,10:34:31:030,10:34:31:785,10:34:34:771,left,10:34:34:988,2018_Jun_07_1007,59.9676895013,MP-Perception Experiment,xx13w23,
280,training(33).mov,False,right,1,vgpdm_dyn(10)-lvm(30)_final(8).mov,0,120,120,27,,,,,,,,10:34:35:758,10:34:36:489,10:34:39:509,left,10:34:39:625,2018_Jun_07_1007,59.9676895013,MP-Perception Experiment,xx13w23,
281,training(12).mov,False,right,1,vgpdm_dyn(30)-lvm(30)_final(0).mov,0,121,121,43,,,,,,,,10:34:40:374,10:34:41:126,10:34:44:129,left,10:34:44:263,2018_Jun_07_1007,59.9676895013,MP-Perception Experiment,xx13w23,
282,training(20).mov,False,right,1,vcgpdm_dyn(35)-lvm(30)_final(4).mov,0,122,122,24,,,,,,,,10:34:45:026,10:34:45:764,10:34:48:766,right,10:34:49:300,2018_Jun_07_1007,59.9676895013,MP-Perception Experiment,xx13w23,
283,vcgpdm_dyn(15)-lvm(35)_final(6).mov,False,left,1,training(48).mov,0,123,123,33,,,,,,,,10:34:50:061,10:34:50:819,10:34:53:804,right,10:34:54:138,2018_Jun_07_1007,59.9676895013,MP-Perception Experiment,xx13w23,
284,vgpdm_dyn(5)-lvm(30)_final(4).mov,False,left,1,training(20).mov,0,124,124,59,,,,,,,,10:34:54:902,10:34:55:639,10:34:58:658,left,10:34:58:675,2018_Jun_07_1007,59.9676895013,MP-Perception Experiment,xx13w23,
285,vcgpdm_dyn(25)-lvm(10)_final(5).mov,True,left,1,training(8).mov,0,125,125,51,,,,,,,,10:34:59:445,10:35:00:193,10:35:03:178,right,10:35:03:379,2018_Jun_07_1007,59.9676895013,MP-Perception Experiment,xx13w23,
286,training(37).mov,True,right,1,vcgpdm_dyn(10)-lvm(35)_final(0).mov,0,126,126,53,,,,,,,,10:35:04:161,10:35:04:897,10:35:07:881,right,10:35:08:215,2018_Jun_07_1007,59.9676895013,MP-Perception Experiment,xx13w23,
287,vgpdm_dyn(5)-lvm(20)_final(8).mov,True,left,1,training(5).mov,0,127,127,153,,,,,,,,10:35:08:978,10:35:09:716,10:35:12:719,left,10:35:12:753,2018_Jun_07_1007,59.9676895013,MP-Perception Experiment,xx13w23,
288,training(34).mov,False,right,1,vcgpdm_dyn(5)-lvm(25)_final(7).mov,0,128,128,28,,,,,,,,10:35:13:506,10:35:14:253,10:35:17:256,right,10:35:17:389,2018_Jun_07_1007,59.9676895013,MP-Perception Experiment,xx13w23,
289,training(39).mov,False,right,1,tmp_numprim(3)_final(4).mov,0,129,129,38,,,,,,,,10:35:18:144,10:35:18:907,10:35:21:895,right,10:35:22:729,2018_Jun_07_1007,59.9676895013,MP-Perception Experiment,xx13w23,
290,tmp_numprim(5)_final(6).mov,False,left,1,training(37).mov,0,130,130,124,,,,,,,,10:35:23:473,10:35:24:231,10:35:27:250,right,10:35:28:118,2018_Jun_07_1007,59.9676895013,MP-Perception Experiment,xx13w23,
291,vgpdm_dyn(35)-lvm(35)_final(0).mov,True,left,1,training(17).mov,0,131,131,34,,,,,,,,10:35:28:870,10:35:29:619,10:35:32:621,left,10:35:33:922,2018_Jun_07_1007,59.9676895013,MP-Perception Experiment,xx13w23,
292,vcgpdm_dyn(30)-lvm(15)_final(2).mov,False,left,1,training(26).mov,0,132,132,119,,,,,,,,10:35:34:688,10:35:35:423,10:35:38:426,right,10:35:39:043,2018_Jun_07_1007,59.9676895013,MP-Perception Experiment,xx13w23,
293,vcgpdm_dyn(10)-lvm(10)_final(1).mov,False,left,1,training(18).mov,0,133,133,98,,,,,,,,10:35:39:806,10:35:40:544,10:35:43:564,left,10:35:44:248,2018_Jun_07_1007,59.9676895013,MP-Perception Experiment,xx13w23,
294,training(3).mov,False,right,1,vcgpdm_dyn(5)-lvm(25)_final(8).mov,0,134,134,32,,,,,,,,10:35:45:180,10:35:45:749,10:35:48:752,right,10:35:49:085,2018_Jun_07_1007,59.9676895013,MP-Perception Experiment,xx13w23,
295,training(15).mov,False,right,1,vcgpdm_dyn(15)-lvm(35)_final(0).mov,0,135,135,95,,,,,,,,10:35:49:879,10:35:50:587,10:35:53:589,right,10:35:53:706,2018_Jun_07_1007,59.9676895013,MP-Perception Experiment,xx13w23,
296,training(3).mov,False,right,1,vcgpdm_dyn(15)-lvm(20)_final(6).mov,0,136,136,85,,,,,,,,10:35:54:462,10:35:55:224,10:35:58:208,left,10:35:58:658,2018_Jun_07_1007,59.9676895013,MP-Perception Experiment,xx13w23,
297,vcgpdm_dyn(20)-lvm(20)_final(9).mov,False,left,1,training(16).mov,0,137,137,150,,,,,,,,10:35:59:426,10:36:00:159,10:36:03:163,right,10:36:03:863,2018_Jun_07_1007,59.9676895013,MP-Perception Experiment,xx13w23,
298,vcgpdm_dyn(30)-lvm(10)_final(4).mov,False,left,1,training(7).mov,0,138,138,97,,,,,,,,10:36:04:626,10:36:05:364,10:36:08:367,left,10:36:08:851,2018_Jun_07_1007,59.9676895013,MP-Perception Experiment,xx13w23,
299,training(21).mov,False,right,1,vcgpdm_dyn(30)-lvm(10)_final(8).mov,0,139,139,79,,,,,,,,10:36:09:624,10:36:10:354,10:36:13:356,right,10:36:13:823,2018_Jun_07_1007,59.9676895013,MP-Perception Experiment,xx13w23,
300,vcgpdm_dyn(15)-lvm(30)_final(6).mov,True,left,1,training(40).mov,0,140,140,2,,,,,,,,10:36:14:756,10:36:15:324,10:36:18:344,right,10:36:18:745,2018_Jun_07_1007,59.9676895013,MP-Perception Experiment,xx13w23,
301,training(20).mov,False,right,1,vcgpdm_dyn(25)-lvm(15)_final(6).mov,0,141,141,6,,,,,,,,10:36:19:511,10:36:20:263,10:36:23:265,right,10:36:23:715,2018_Jun_07_1007,59.9676895013,MP-Perception Experiment,xx13w23,
302,training(10).mov,False,right,1,vcgpdm_dyn(30)-lvm(5)_final(7).mov,0,142,142,76,,,,,,,,10:36:24:471,10:36:25:217,10:36:28:219,right,10:36:28:586,2018_Jun_07_1007,59.9676895013,MP-Perception Experiment,xx13w23,
303,training(9).mov,True,right,1,vcgpdm_dyn(30)-lvm(20)_final(8).mov,0,143,143,110,,,,,,,,10:36:29:344,10:36:30:087,10:36:33:090,right,10:36:34:291,2018_Jun_07_1007,59.9676895013,MP-Perception Experiment,xx13w23,
304,training(4).mov,False,right,1,vcgpdm_dyn(5)-lvm(15)_final(2).mov,0,144,144,112,,,,,,,,10:36:35:068,10:36:35:793,10:36:38:812,right,10:36:39:179,2018_Jun_07_1007,59.9676895013,MP-Perception Experiment,xx13w23,
305,vgpdm_dyn(5)-lvm(30)_final(8).mov,False,left,1,training(13).mov,0,145,145,3,,,,,,,,10:36:39:927,10:36:40:680,10:36:43:682,left,10:36:44:333,2018_Jun_07_1007,59.9676895013,MP-Perception Experiment,xx13w23,
306,training(25).mov,True,right,1,vgpdm_dyn(25)-lvm(20)_final(4).mov,0,146,146,64,,,,,,,,10:36:45:086,10:36:45:834,10:36:48:835,left,10:36:50:019,2018_Jun_07_1007,59.9676895013,MP-Perception Experiment,xx13w23,
307,vcgpdm_dyn(10)-lvm(20)_final(6).mov,True,left,1,training(13).mov,0,147,147,155,,,,,,,,10:36:50:777,10:36:51:520,10:36:54:524,left,10:36:54:541,2018_Jun_07_1007,59.9676895013,MP-Perception Experiment,xx13w23,
308,dmp_npsi(50)_final(6).mov,False,left,1,training(5).mov,0,148,148,14,,,,,,,,10:36:55:301,10:36:56:042,10:36:59:044,right,10:36:59:461,2018_Jun_07_1007,59.9676895013,MP-Perception Experiment,xx13w23,
309,training(37).mov,True,right,1,vcgpdm_dyn(30)-lvm(30)_final(8).mov,0,149,149,58,,,,,,,,10:37:00:226,10:37:00:962,10:37:03:950,left,10:37:04:651,2018_Jun_07_1007,59.9676895013,MP-Perception Experiment,xx13w23,
310,training(11).mov,False,right,1,vcgpdm_dyn(30)-lvm(20)_final(4).mov,0,150,150,96,,,,,,,,10:37:05:414,10:37:06:152,10:37:09:154,right,10:37:10:673,2018_Jun_07_1007,59.9676895013,MP-Perception Experiment,xx13w23,
311,vcgpdm_dyn(15)-lvm(15)_final(3).mov,True,left,1,training(32).mov,0,151,151,19,,,,,,,,10:37:11:613,10:37:12:174,10:37:15:176,right,10:37:15:844,2018_Jun_07_1007,59.9676895013,MP-Perception Experiment,xx13w23,
312,dmp_npsi(20)_final(4).mov,True,left,1,training(14).mov,0,152,152,18,,,,,,,,10:37:16:608,10:37:17:345,10:37:20:347,right,10:37:20:914,2018_Jun_07_1007,59.9676895013,MP-Perception Experiment,xx13w23,
313,vgpdm_dyn(30)-lvm(35)_final(0).mov,True,left,1,training(4).mov,0,153,153,65,,,,,,,,10:37:21:699,10:37:22:416,10:37:25:418,left,10:37:25:902,2018_Jun_07_1007,59.9676895013,MP-Perception Experiment,xx13w23,
314,vgpdm_dyn(10)-lvm(10)_final(5).mov,False,left,1,training(23).mov,0,154,154,15,,,,,,,,10:37:26:656,10:37:27:403,10:37:30:406,right,10:37:30:957,2018_Jun_07_1007,59.9676895013,MP-Perception Experiment,xx13w23,
315,vgpdm_dyn(15)-lvm(5)_final(2).mov,False,left,1,training(25).mov,0,155,155,61,,,,,,,,10:37:31:889,10:37:32:458,10:37:35:461,right,10:37:35:627,2018_Jun_07_1007,59.9676895013,MP-Perception Experiment,xx13w23,
316,training(35).mov,True,right,1,vgpdm_dyn(10)-lvm(20)_final(2).mov,0,156,156,127,,,,,,,,10:37:36:394,10:37:37:129,10:37:40:129,right,10:37:40:513,2018_Jun_07_1007,59.9676895013,MP-Perception Experiment,xx13w23,
317,training(25).mov,False,right,1,vgpdm_dyn(20)-lvm(35)_final(6).mov,0,157,157,142,,,,,,,,10:37:41:278,10:37:42:014,10:37:45:016,right,10:37:45:284,2018_Jun_07_1007,59.9676895013,MP-Perception Experiment,xx13w23,
318,vcgpdm_dyn(10)-lvm(15)_final(3).mov,True,left,1,training(39).mov,0,158,158,103,,,,,,,,10:37:46:039,10:37:46:786,10:37:49:790,left,10:37:50:340,2018_Jun_07_1007,59.9676895013,MP-Perception Experiment,xx13w23,
319,vgpdm_dyn(5)-lvm(20)_final(9).mov,False,left,2,training(12).mov,0,0,0,83,,,,,,,,10:41:25:921,10:41:26:493,10:41:29:479,left,10:41:29:763,2018_Jun_07_1007,59.9676895013,MP-Perception Experiment,xx13w23,
320,training(37).mov,True,right,2,vcgpdm_dyn(5)-lvm(15)_final(5).mov,0,1,1,67,,,,,,,,10:41:30:527,10:41:31:281,10:41:34:267,right,10:41:34:634,2018_Jun_07_1007,59.9676895013,MP-Perception Experiment,xx13w23,
321,training(1).mov,False,right,2,vgpdm_dyn(35)-lvm(35)_final(0).mov,0,2,2,126,,,,,,,,10:41:35:393,10:41:36:136,10:41:39:138,right,10:41:39:622,2018_Jun_07_1007,59.9676895013,MP-Perception Experiment,xx13w23,
322,training(19).mov,False,right,2,map_cgpdm_final(8).mov,0,3,3,121,,,,,,,,10:41:40:578,10:41:41:123,10:41:44:142,right,10:41:44:559,2018_Jun_07_1007,59.9676895013,MP-Perception Experiment,xx13w23,
323,vgpdm_dyn(10)-lvm(5)_final(1).mov,False,left,2,training(48).mov,0,4,4,74,,,,,,,,10:41:45:315,10:41:46:077,10:41:49:061,left,10:41:49:195,2018_Jun_07_1007,59.9676895013,MP-Perception Experiment,xx13w23,
324,training(20).mov,False,right,2,vgpdm_dyn(15)-lvm(35)_final(7).mov,0,5,5,75,,,,,,,,10:41:49:946,10:41:50:697,10:41:53:699,right,10:41:53:782,2018_Jun_07_1007,59.9676895013,MP-Perception Experiment,xx13w23,
325,vcgpdm_dyn(10)-lvm(35)_final(1).mov,False,left,2,training(12).mov,0,6,6,115,,,,,,,,10:41:54:546,10:41:55:284,10:41:58:286,left,10:41:58:703,2018_Jun_07_1007,59.9676895013,MP-Perception Experiment,xx13w23,
326,vgpdm_dyn(10)-lvm(15)_final(6).mov,True,left,2,training(18).mov,0,7,7,71,,,,,,,,10:41:59:447,10:42:00:207,10:42:03:225,left,10:42:03:625,2018_Jun_07_1007,59.9676895013,MP-Perception Experiment,xx13w23,
327,training(36).mov,True,right,2,vgpdm_dyn(20)-lvm(15)_final(7).mov,0,8,8,42,,,,,,,,10:42:04:402,10:42:05:127,10:42:08:147,right,10:42:08:731,2018_Jun_07_1007,59.9676895013,MP-Perception Experiment,xx13w23,
328,tmp_numprim(4)_final(1).mov,False,left,2,training(23).mov,0,9,9,30,,,,,,,,10:42:09:490,10:42:10:248,10:42:13:234,left,10:42:13:651,2018_Jun_07_1007,59.9676895013,MP-Perception Experiment,xx13w23,
329,dmp_npsi(30)_final(7).mov,True,left,2,training(1).mov,0,10,10,63,,,,,,,,10:42:14:429,10:42:15:152,10:42:18:155,left,10:42:18:422,2018_Jun_07_1007,59.9676895013,MP-Perception Experiment,xx13w23,
330,tmp_numprim(4)_final(4).mov,False,left,2,training(2).mov,0,11,11,43,,,,,,,,10:42:19:211,10:42:19:923,10:42:22:925,left,10:42:23:459,2018_Jun_07_1007,59.9676895013,MP-Perception Experiment,xx13w23,
331,training(24).mov,True,right,2,vcgpdm_dyn(10)-lvm(15)_final(3).mov,0,12,12,51,,,,,,,,10:42:24:208,10:42:24:960,10:42:27:964,left,10:42:28:564,2018_Jun_07_1007,59.9676895013,MP-Perception Experiment,xx13w23,
332,vcgpdm_dyn(15)-lvm(10)_final(4).mov,False,left,2,training(11).mov,0,13,13,149,,,,,,,,10:42:29:314,10:42:30:065,10:42:33:068,right,10:42:33:568,2018_Jun_07_1007,59.9676895013,MP-Perception Experiment,xx13w23,
333,vcgpdm_dyn(35)-lvm(30)_final(6).mov,True,left,2,training(28).mov,0,14,14,135,,,,,,,,10:42:34:314,10:42:35:086,10:42:38:070,left,10:42:38:521,2018_Jun_07_1007,59.9676895013,MP-Perception Experiment,xx13w23,
334,vgpdm_dyn(35)-lvm(10)_final(9).mov,False,left,2,training(24).mov,0,15,15,99,,,,,,,,10:42:39:286,10:42:40:022,10:42:43:025,right,10:42:43:242,2018_Jun_07_1007,59.9676895013,MP-Perception Experiment,xx13w23,
335,vcgpdm_dyn(15)-lvm(20)_final(7).mov,False,left,2,training(38).mov,0,16,16,150,,,,,,,,10:42:43:988,10:42:44:743,10:42:47:746,left,10:42:47:929,2018_Jun_07_1007,59.9676895013,MP-Perception Experiment,xx13w23,
336,training(28).mov,False,right,2,vgpdm_dyn(5)-lvm(10)_final(9).mov,0,17,17,90,,,,,,,,10:42:48:882,10:42:49:447,10:42:52:418,right,10:42:52:902,2018_Jun_07_1007,59.9676895013,MP-Perception Experiment,xx13w23,
337,training(16).mov,True,right,2,vcgpdm_dyn(15)-lvm(10)_final(1).mov,0,18,18,66,,,,,,,,10:42:53:945,10:42:54:453,10:42:57:405,right,10:42:58:189,2018_Jun_07_1007,59.9676895013,MP-Perception Experiment,xx13w23,
338,vcgpdm_dyn(25)-lvm(30)_final(6).mov,False,left,2,training(21).mov,0,19,19,20,,,,,,,,10:42:58:945,10:42:59:690,10:43:02:710,left,10:43:03:178,2018_Jun_07_1007,59.9676895013,MP-Perception Experiment,xx13w23,
339,vgpdm_dyn(30)-lvm(25)_final(9).mov,True,left,2,training(0).mov,0,20,20,65,,,,,,,,10:43:03:942,10:43:04:679,10:43:07:698,left,10:43:08:199,2018_Jun_07_1007,59.9676895013,MP-Perception Experiment,xx13w23,
340,vcgpdm_dyn(20)-lvm(20)_final(7).mov,True,left,2,training(25).mov,0,21,21,33,,,,,,,,10:43:08:961,10:43:09:699,10:43:12:702,left,10:43:13:169,2018_Jun_07_1007,59.9676895013,MP-Perception Experiment,xx13w23,
341,training(33).mov,True,right,2,map_gpdm_final(5).mov,0,22,22,61,,,,,,,,10:43:13:949,10:43:14:670,10:43:17:674,right,10:43:18:608,2018_Jun_07_1007,59.9676895013,MP-Perception Experiment,xx13w23,
342,training(35).mov,True,right,2,vgpdm_dyn(25)-lvm(5)_final(2).mov,0,23,23,36,,,,,,,,10:43:19:382,10:43:20:109,10:43:23:128,right,10:43:23:912,2018_Jun_07_1007,59.9676895013,MP-Perception Experiment,xx13w23,
343,dmp_npsi(20)_final(8).mov,False,left,2,training(22).mov,0,24,24,132,,,,,,,,10:43:24:666,10:43:25:413,10:43:28:414,left,10:43:28:747,2018_Jun_07_1007,59.9676895013,MP-Perception Experiment,xx13w23,
344,training(40).mov,False,right,2,vgpdm_dyn(15)-lvm(20)_final(4)_out_of_screen.mov,0,25,25,158,,,,,,,,10:43:29:517,10:43:30:265,10:43:33:251,right,10:43:33:985,2018_Jun_07_1007,59.9676895013,MP-Perception Experiment,xx13w23,
345,training(9).mov,True,right,2,vgpdm_dyn(30)-lvm(30)_final(2).mov,0,26,26,154,,,,,,,,10:43:34:729,10:43:35:487,10:43:38:490,left,10:43:38:523,2018_Jun_07_1007,59.9676895013,MP-Perception Experiment,xx13w23,
346,training(12).mov,True,right,2,vcgpdm_dyn(30)-lvm(25)_final(7).mov,0,27,27,109,,,,,,,,10:43:39:470,10:43:40:026,10:43:43:045,right,10:43:43:562,2018_Jun_07_1007,59.9676895013,MP-Perception Experiment,xx13w23,
347,dmp_npsi(30)_final(8).mov,True,left,2,training(38).mov,0,28,28,17,,,,,,,,10:43:44:335,10:43:45:080,10:43:48:066,left,10:43:48:483,2018_Jun_07_1007,59.9676895013,MP-Perception Experiment,xx13w23,
348,vcgpdm_dyn(20)-lvm(25)_final(7).mov,True,left,2,training(8).mov,0,29,29,91,,,,,,,,10:43:49:424,10:43:49:984,10:43:52:987,left,10:43:53:471,2018_Jun_07_1007,59.9676895013,MP-Perception Experiment,xx13w23,
349,training(19).mov,True,right,2,vcgpdm_dyn(35)-lvm(10)_final(5).mov,0,30,30,3,,,,,,,,10:43:54:226,10:43:54:972,10:43:57:975,left,10:43:58:392,2018_Jun_07_1007,59.9676895013,MP-Perception Experiment,xx13w23,
350,vcgpdm_dyn(10)-lvm(10)_final(0).mov,True,left,2,training(12).mov,0,31,31,86,,,,,,,,10:43:59:150,10:43:59:893,10:44:02:895,left,10:44:03:379,2018_Jun_07_1007,59.9676895013,MP-Perception Experiment,xx13w23,
351,vgpdm_dyn(15)-lvm(30)_final(0).mov,False,left,2,training(13).mov,0,32,32,15,,,,,,,,10:44:04:164,10:44:04:897,10:44:07:899,left,10:44:08:483,2018_Jun_07_1007,59.9676895013,MP-Perception Experiment,xx13w23,
352,map_gpdm_final(8).mov,True,left,2,training(12).mov,0,33,33,116,,,,,,,,10:44:09:244,10:44:09:984,10:44:12:988,left,10:44:13:121,2018_Jun_07_1007,59.9676895013,MP-Perception Experiment,xx13w23,
353,vgpdm_dyn(30)-lvm(35)_final(6).mov,False,left,2,training(0).mov,0,34,34,29,,,,,,,,10:44:13:899,10:44:14:622,10:44:17:623,left,10:44:17:873,2018_Jun_07_1007,59.9676895013,MP-Perception Experiment,xx13w23,
354,training(33).mov,False,right,2,vcgpdm_dyn(35)-lvm(20)_final(5).mov,0,35,35,108,,,,,,,,10:44:18:658,10:44:19:375,10:44:22:377,left,10:44:22:761,2018_Jun_07_1007,59.9676895013,MP-Perception Experiment,xx13w23,
355,vgpdm_dyn(20)-lvm(15)_final(0).mov,True,left,2,training(1).mov,0,36,36,144,,,,,,,,10:44:23:512,10:44:24:262,10:44:27:264,left,10:44:27:531,2018_Jun_07_1007,59.9676895013,MP-Perception Experiment,xx13w23,
356,training(26).mov,False,right,2,vcgpdm_dyn(25)-lvm(5)_final(2).mov,0,37,37,124,,,,,,,,10:44:28:274,10:44:29:035,10:44:32:021,right,10:44:32:355,2018_Jun_07_1007,59.9676895013,MP-Perception Experiment,xx13w23,
357,training(37).mov,False,right,2,vcgpdm_dyn(5)-lvm(10)_final(8).mov,0,38,38,18,,,,,,,,10:44:33:103,10:44:33:856,10:44:36:858,left,10:44:37:509,2018_Jun_07_1007,59.9676895013,MP-Perception Experiment,xx13w23,
358,vcgpdm_dyn(25)-lvm(10)_final(7).mov,False,left,2,training(17).mov,0,39,39,148,,,,,,,,10:44:38:275,10:44:39:010,10:44:42:029,left,10:44:42:463,2018_Jun_07_1007,59.9676895013,MP-Perception Experiment,xx13w23,
359,training(39).mov,True,right,2,vgpdm_dyn(30)-lvm(20)_final(2).mov,0,40,40,114,,,,,,,,10:44:43:233,10:44:43:964,10:44:46:967,right,10:44:47:334,2018_Jun_07_1007,59.9676895013,MP-Perception Experiment,xx13w23,
360,training(27).mov,False,right,2,vcgpdm_dyn(10)-lvm(10)_final(6).mov,0,41,41,27,,,,,,,,10:44:48:098,10:44:48:835,10:44:51:838,left,10:44:52:589,2018_Jun_07_1007,59.9676895013,MP-Perception Experiment,xx13w23,
361,training(3).mov,False,right,2,vgpdm_dyn(10)-lvm(15)_final(4).mov,0,42,42,89,,,,,,,,10:44:53:918,10:44:54:423,10:44:57:109,right,10:44:57:676,2018_Jun_07_1007,59.9676895013,MP-Perception Experiment,xx13w23,
362,training(22).mov,False,right,2,vgpdm_dyn(20)-lvm(25)_final(9).mov,0,43,43,151,,,,,,,,10:44:58:438,10:44:59:177,10:45:02:196,left,10:45:02:664,2018_Jun_07_1007,59.9676895013,MP-Perception Experiment,xx13w23,
363,training(12).mov,False,right,2,vgpdm_dyn(15)-lvm(25)_final(5).mov,0,44,44,104,,,,,,,,10:45:03:425,10:45:04:166,10:45:07:185,right,10:45:07:600,2018_Jun_07_1007,59.9676895013,MP-Perception Experiment,xx13w23,
364,dmp_npsi(25)_final(7).mov,False,left,2,training(28).mov,0,45,45,34,,,,,,,,10:45:08:369,10:45:09:101,10:45:12:103,left,10:45:12:487,2018_Jun_07_1007,59.9676895013,MP-Perception Experiment,xx13w23,
365,training(28).mov,True,right,2,tmp_numprim(4)_final(4).mov,0,46,46,155,,,,,,,,10:45:13:242,10:45:13:988,10:45:16:991,right,10:45:17:258,2018_Jun_07_1007,59.9676895013,MP-Perception Experiment,xx13w23,
366,vcgpdm_dyn(5)-lvm(10)_final(7).mov,True,left,2,training(24).mov,0,47,47,79,,,,,,,,10:45:18:017,10:45:18:759,10:45:21:747,right,10:45:22:565,2018_Jun_07_1007,59.9676895013,MP-Perception Experiment,xx13w23,
367,vcgpdm_dyn(10)-lvm(25)_final(8).mov,False,left,2,training(13).mov,0,48,48,24,,,,,,,,10:45:23:307,10:45:24:066,10:45:27:068,left,10:45:27:485,2018_Jun_07_1007,59.9676895013,MP-Perception Experiment,xx13w23,
368,training(40).mov,True,right,2,vgpdm_dyn(20)-lvm(20)_final(8).mov,0,49,49,125,,,,,,,,10:45:28:200,10:45:28:986,10:45:31:989,left,10:45:32:439,2018_Jun_07_1007,59.9676895013,MP-Perception Experiment,xx13w23,
369,training(26).mov,False,right,2,vcgpdm_dyn(15)-lvm(25)_final(5).mov,0,50,50,78,,,,,,,,10:45:33:223,10:45:33:940,10:45:36:943,left,10:45:37:343,2018_Jun_07_1007,59.9676895013,MP-Perception Experiment,xx13w23,
370,training(10).mov,True,right,2,vcgpdm_dyn(35)-lvm(5)_final(2).mov,0,51,51,131,,,,,,,,10:45:38:110,10:45:38:862,10:45:41:865,left,10:45:42:015,2018_Jun_07_1007,59.9676895013,MP-Perception Experiment,xx13w23,
371,training(48).mov,False,right,2,tmp_numprim(10)_final(6).mov,0,52,52,23,,,,,,,,10:45:42:777,10:45:43:516,10:45:46:518,left,10:45:46:618,2018_Jun_07_1007,59.9676895013,MP-Perception Experiment,xx13w23,
372,training(33).mov,True,right,2,vgpdm_dyn(10)-lvm(5)_final(3).mov,0,53,53,56,,,,,,,,10:45:47:372,10:45:48:120,10:45:51:139,right,10:45:51:656,2018_Jun_07_1007,59.9676895013,MP-Perception Experiment,xx13w23,
373,training(24).mov,True,right,2,vcgpdm_dyn(30)-lvm(25)_final(5).mov,0,54,54,0,,,,,,,,10:45:52:423,10:45:53:174,10:45:56:160,right,10:45:56:294,2018_Jun_07_1007,59.9676895013,MP-Perception Experiment,xx13w23,
374,vgpdm_dyn(30)-lvm(20)_final(5).mov,True,left,2,training(36).mov,0,55,55,41,,,,,,,,10:45:57:054,10:45:57:810,10:46:00:796,left,10:46:01:096,2018_Jun_07_1007,59.9676895013,MP-Perception Experiment,xx13w23,
375,vcgpdm_dyn(5)-lvm(5)_final(3).mov,False,left,2,training(14).mov,0,56,56,143,,,,,,,,10:46:01:854,10:46:02:597,10:46:05:600,left,10:46:06:000,2018_Jun_07_1007,59.9676895013,MP-Perception Experiment,xx13w23,
376,dmp_npsi(50)_final(7).mov,False,left,2,training(16).mov,0,57,57,21,,,,,,,,10:46:06:753,10:46:07:501,10:46:10:488,right,10:46:10:856,2018_Jun_07_1007,59.9676895013,MP-Perception Experiment,xx13w23,
377,vcgpdm_dyn(15)-lvm(10)_final(0).mov,False,left,2,training(0).mov,0,58,58,85,,,,,,,,10:46:11:617,10:46:12:357,10:46:15:360,right,10:46:15:761,2018_Jun_07_1007,59.9676895013,MP-Perception Experiment,xx13w23,
378,training(19).mov,True,right,2,vcgpdm_dyn(25)-lvm(35)_final(1).mov,0,59,59,8,,,,,,,,10:46:16:519,10:46:17:262,10:46:20:264,left,10:46:20:715,2018_Jun_07_1007,59.9676895013,MP-Perception Experiment,xx13w23,
379,vgpdm_dyn(25)-lvm(30)_final(0).mov,False,left,2,training(28).mov,0,60,60,87,,,,,,,,10:46:21:475,10:46:22:216,10:46:25:218,left,10:46:25:769,2018_Jun_07_1007,59.9676895013,MP-Perception Experiment,xx13w23,
380,training(26).mov,True,right,2,tmp_numprim(5)_final(5).mov,0,61,61,123,,,,,,,,10:46:26:548,10:46:27:270,10:46:30:290,right,10:46:30:674,2018_Jun_07_1007,59.9676895013,MP-Perception Experiment,xx13w23,
381,vgpdm_dyn(30)-lvm(35)_final(0).mov,True,left,2,training(8).mov,0,62,62,4,,,,,,,,10:46:31:422,10:46:32:175,10:46:35:194,left,10:46:35:661,2018_Jun_07_1007,59.9676895013,MP-Perception Experiment,xx13w23,
382,vgpdm_dyn(25)-lvm(15)_final(2)_out_of_screen.mov,False,left,2,training(19).mov,0,63,63,72,,,,,,,,10:46:36:590,10:46:37:162,10:46:40:165,left,10:46:40:732,2018_Jun_07_1007,59.9676895013,MP-Perception Experiment,xx13w23,
383,vgpdm_dyn(5)-lvm(15)_final(0).mov,False,left,2,training(36).mov,0,64,64,103,,,,,,,,10:46:41:508,10:46:42:250,10:46:45:252,left,10:46:45:803,2018_Jun_07_1007,59.9676895013,MP-Perception Experiment,xx13w23,
384,training(22).mov,True,right,2,vcgpdm_dyn(30)-lvm(20)_final(5).mov,0,65,65,140,,,,,,,,10:46:46:564,10:46:47:320,10:46:50:305,left,10:46:50:756,2018_Jun_07_1007,59.9676895013,MP-Perception Experiment,xx13w23,
385,dmp_npsi(40)_final(6).mov,True,left,2,training(15).mov,0,66,66,147,,,,,,,,10:46:51:516,10:46:52:257,10:46:55:259,left,10:46:55:460,2018_Jun_07_1007,59.9676895013,MP-Perception Experiment,xx13w23,
386,training(11).mov,True,right,2,vgpdm_dyn(25)-lvm(35)_final(0).mov,0,67,67,130,,,,,,,,10:46:56:219,10:46:56:961,10:46:59:963,left,10:47:00:414,2018_Jun_07_1007,59.9676895013,MP-Perception Experiment,xx13w23,
387,training(29).mov,True,right,2,vcgpdm_dyn(5)-lvm(25)_final(2).mov,0,68,68,97,,,,,,,,10:47:01:180,10:47:01:916,10:47:04:920,right,10:47:05:537,2018_Jun_07_1007,59.9676895013,MP-Perception Experiment,xx13w23,
388,training(3).mov,True,right,2,vgpdm_dyn(30)-lvm(30)_final(3).mov,0,69,69,58,,,,,,,,10:47:06:304,10:47:07:038,10:47:10:057,right,10:47:10:775,2018_Jun_07_1007,59.9676895013,MP-Perception Experiment,xx13w23,
389,training(7).mov,False,right,2,dmp_npsi(35)_final(7).mov,0,70,70,120,,,,,,,,10:47:11:532,10:47:12:293,10:47:15:278,right,10:47:15:629,2018_Jun_07_1007,59.9676895013,MP-Perception Experiment,xx13w23,
390,training(31).mov,True,right,2,vcgpdm_dyn(20)-lvm(25)_final(6).mov,0,71,71,76,,,,,,,,10:47:16:394,10:47:17:130,10:47:20:132,right,10:47:20:616,2018_Jun_07_1007,59.9676895013,MP-Perception Experiment,xx13w23,
391,training(5).mov,True,right,2,vgpdm_dyn(10)-lvm(15)_final(2).mov,0,72,72,1,,,,,,,,10:47:21:552,10:47:22:117,10:47:25:121,left,10:47:25:304,2018_Jun_07_1007,59.9676895013,MP-Perception Experiment,xx13w23,
392,vcgpdm_dyn(5)-lvm(20)_final(2).mov,True,left,2,training(8).mov,0,73,73,93,,,,,,,,10:47:26:072,10:47:26:805,10:47:29:808,left,10:47:30:308,2018_Jun_07_1007,59.9676895013,MP-Perception Experiment,xx13w23,
393,training(11).mov,True,right,2,dmp_npsi(20)_final(6).mov,0,74,74,68,,,,,,,,10:47:31:076,10:47:31:809,10:47:34:812,right,10:47:34:912,2018_Jun_07_1007,59.9676895013,MP-Perception Experiment,xx13w23,
394,vcgpdm_dyn(30)-lvm(30)_final(2).mov,False,left,2,training(11).mov,0,75,75,64,,,,,,,,10:47:35:855,10:47:36:430,10:47:39:414,left,10:47:39:847,2018_Jun_07_1007,59.9676895013,MP-Perception Experiment,xx13w23,
395,training(30).mov,True,right,2,vcgpdm_dyn(15)-lvm(10)_final(4).mov,0,76,76,139,,,,,,,,10:47:40:600,10:47:41:349,10:47:44:352,left,10:47:44:603,2018_Jun_07_1007,59.9676895013,MP-Perception Experiment,xx13w23,
396,training(8).mov,False,right,2,vgpdm_dyn(10)-lvm(25)_final(4).mov,0,77,77,127,,,,,,,,10:47:45:345,10:47:46:103,10:47:49:091,right,10:47:49:491,2018_Jun_07_1007,59.9676895013,MP-Perception Experiment,xx13w23,
397,training(48).mov,False,right,2,vgpdm_dyn(35)-lvm(30)_final(6).mov,0,78,78,128,,,,,,,,10:47:50:240,10:47:50:992,10:47:53:995,right,10:47:54:662,2018_Jun_07_1007,59.9676895013,MP-Perception Experiment,xx13w23,
398,vcgpdm_dyn(5)-lvm(15)_final(9).mov,False,left,2,training(1).mov,0,79,79,62,,,,,,,,10:47:55:411,10:47:56:163,10:47:59:167,right,10:47:59:617,2018_Jun_07_1007,59.9676895013,MP-Perception Experiment,xx13w23,
399,training(3).mov,False,right,2,vgpdm_dyn(30)-lvm(25)_final(8).mov,0,80,80,106,,,,,,,,10:48:00:368,10:48:01:118,10:48:04:121,right,10:48:04:654,2018_Jun_07_1007,59.9676895013,MP-Perception Experiment,xx13w23,
400,training(21).mov,True,right,2,vgpdm_dyn(35)-lvm(35)_final(7).mov,0,81,81,25,,,,,,,,10:48:05:413,10:48:06:156,10:48:09:158,left,10:48:09:675,2018_Jun_07_1007,59.9676895013,MP-Perception Experiment,xx13w23,
401,vgpdm_dyn(10)-lvm(25)_final(9).mov,False,left,2,training(40).mov,0,82,82,80,,,,,,,,10:48:10:426,10:48:11:176,10:48:14:179,left,10:48:14:981,2018_Jun_07_1007,59.9676895013,MP-Perception Experiment,xx13w23,
402,training(33).mov,False,right,2,vgpdm_dyn(5)-lvm(10)_final(9).mov,0,83,83,37,,,,,,,,10:48:15:734,10:48:16:482,10:48:19:484,right,10:48:20:035,2018_Jun_07_1007,59.9676895013,MP-Perception Experiment,xx13w23,
403,training(1).mov,False,right,2,vgpdm_dyn(30)-lvm(25)_final(5).mov,0,84,84,142,,,,,,,,10:48:20:981,10:48:21:536,10:48:24:538,right,10:48:24:555,2018_Jun_07_1007,59.9676895013,MP-Perception Experiment,xx13w23,
404,map_cgpdm_final(9).mov,False,left,2,training(34).mov,0,85,85,117,,,,,,,,10:48:25:325,10:48:26:056,10:48:29:057,left,10:48:29:491,2018_Jun_07_1007,59.9676895013,MP-Perception Experiment,xx13w23,
405,vgpdm_dyn(25)-lvm(30)_final(4).mov,True,left,2,training(29).mov,0,86,86,69,,,,,,,,10:48:30:269,10:48:31:008,10:48:34:012,left,10:48:34:612,2018_Jun_07_1007,59.9676895013,MP-Perception Experiment,xx13w23,
406,vgpdm_dyn(10)-lvm(20)_final(2).mov,True,left,2,training(21).mov,0,87,87,92,,,,,,,,10:48:35:364,10:48:36:113,10:48:39:116,left,10:48:39:149,2018_Jun_07_1007,59.9676895013,MP-Perception Experiment,xx13w23,
407,training(48).mov,False,right,2,vcgpdm_dyn(25)-lvm(20)_final(4).mov,0,88,88,22,,,,,,,,10:48:40:076,10:48:40:650,10:48:43:638,left,10:48:44:122,2018_Jun_07_1007,59.9676895013,MP-Perception Experiment,xx13w23,
408,vcgpdm_dyn(35)-lvm(25)_final(5).mov,False,left,2,training(29).mov,0,89,89,10,,,,,,,,10:48:44:885,10:48:45:640,10:48:48:625,left,10:48:49:059,2018_Jun_07_1007,59.9676895013,MP-Perception Experiment,xx13w23,
409,training(1).mov,False,right,2,vgpdm_dyn(10)-lvm(35)_final(2).mov,0,90,90,49,,,,,,,,10:48:49:813,10:48:50:561,10:48:53:564,right,10:48:53:864,2018_Jun_07_1007,59.9676895013,MP-Perception Experiment,xx13w23,
410,dmp_npsi(20)_final(8).mov,True,left,2,training(4).mov,0,91,91,152,,,,,,,,10:48:54:624,10:48:55:365,10:48:58:367,left,10:48:58:868,2018_Jun_07_1007,59.9676895013,MP-Perception Experiment,xx13w23,
411,training(28).mov,False,right,2,vgpdm_dyn(20)-lvm(25)_final(8).mov,0,92,92,7,,,,,,,,10:48:59:623,10:49:00:369,10:49:03:372,left,10:49:03:955,2018_Jun_07_1007,59.9676895013,MP-Perception Experiment,xx13w23,
412,vgpdm_dyn(5)-lvm(15)_final(1).mov,False,left,2,training(4).mov,0,93,93,105,,,,,,,,10:49:04:898,10:49:05:457,10:49:08:460,left,10:49:08:477,2018_Jun_07_1007,59.9676895013,MP-Perception Experiment,xx13w23,
413,vcgpdm_dyn(20)-lvm(10)_final(2).mov,False,left,2,training(33).mov,0,94,94,157,,,,,,,,10:49:09:238,10:49:09:978,10:49:12:980,left,10:49:13:281,2018_Jun_07_1007,59.9676895013,MP-Perception Experiment,xx13w23,
414,training(15).mov,True,right,2,vcgpdm_dyn(15)-lvm(5)_final(8).mov,0,95,95,153,,,,,,,,10:49:14:016,10:49:14:782,10:49:17:782,left,10:49:18:583,2018_Jun_07_1007,59.9676895013,MP-Perception Experiment,xx13w23,
415,training(22).mov,True,right,2,vgpdm_dyn(20)-lvm(35)_final(6).mov,0,96,96,88,,,,,,,,10:49:19:336,10:49:20:084,10:49:23:254,right,10:49:23:504,2018_Jun_07_1007,59.9676895013,MP-Perception Experiment,xx13w23,
416,training(40).mov,False,right,2,vcgpdm_dyn(30)-lvm(10)_final(3).mov,0,97,97,11,,,,,,,,10:49:24:258,10:49:25:023,10:49:28:008,right,10:49:28:275,2018_Jun_07_1007,59.9676895013,MP-Perception Experiment,xx13w23,
417,training(11).mov,True,right,2,tmp_numprim(3)_final(4).mov,0,98,98,5,,,,,,,,10:49:29:029,10:49:29:778,10:49:32:764,right,10:49:33:381,2018_Jun_07_1007,59.9676895013,MP-Perception Experiment,xx13w23,
418,training(13).mov,False,right,2,vcgpdm_dyn(25)-lvm(15)_final(9).mov,0,99,99,48,,,,,,,,10:49:34:332,10:49:34:882,10:49:37:885,right,10:49:38:335,2018_Jun_07_1007,59.9676895013,MP-Perception Experiment,xx13w23,
419,training(15).mov,False,right,2,vcgpdm_dyn(35)-lvm(25)_final(6).mov,0,100,100,81,,,,,,,,10:49:39:099,10:49:39:836,10:49:42:840,right,10:49:43:190,2018_Jun_07_1007,59.9676895013,MP-Perception Experiment,xx13w23,
420,vgpdm_dyn(5)-lvm(10)_final(1).mov,True,left,2,training(16).mov,0,101,101,47,,,,,,,,10:49:44:122,10:49:44:708,10:49:47:694,left,10:49:48:161,2018_Jun_07_1007,59.9676895013,MP-Perception Experiment,xx13w23,
421,tmp_numprim(7)_final(5).mov,True,left,2,training(26).mov,0,102,102,9,,,,,,,,10:49:48:910,10:49:49:679,10:49:52:664,left,10:49:53:065,2018_Jun_07_1007,59.9676895013,MP-Perception Experiment,xx13w23,
422,training(18).mov,False,right,2,vcgpdm_dyn(30)-lvm(35)_final(2).mov,0,103,103,55,,,,,,,,10:49:53:975,10:49:54:566,10:49:57:568,left,10:49:58:086,2018_Jun_07_1007,59.9676895013,MP-Perception Experiment,xx13w23,
423,training(1).mov,False,right,2,vcgpdm_dyn(30)-lvm(25)_final(6).mov,0,104,104,12,,,,,,,,10:49:58:839,10:49:59:587,10:50:02:590,left,10:50:03:908,2018_Jun_07_1007,59.9676895013,MP-Perception Experiment,xx13w23,
424,training(48).mov,False,right,2,vcgpdm_dyn(35)-lvm(20)_final(3).mov,0,105,105,16,,,,,,,,10:50:04:666,10:50:05:409,10:50:08:410,right,10:50:09:010,2018_Jun_07_1007,59.9676895013,MP-Perception Experiment,xx13w23,
425,training(36).mov,True,right,2,vcgpdm_dyn(30)-lvm(35)_final(4).mov,0,106,106,19,,,,,,,,10:50:09:773,10:50:10:511,10:50:13:514,right,10:50:14:281,2018_Jun_07_1007,59.9676895013,MP-Perception Experiment,xx13w23,
426,vcgpdm_dyn(25)-lvm(35)_final(0).mov,False,left,2,training(18).mov,0,107,107,28,,,,,,,,10:50:15:046,10:50:15:782,10:50:18:786,left,10:50:18:936,2018_Jun_07_1007,59.9676895013,MP-Perception Experiment,xx13w23,
427,vgpdm_dyn(30)-lvm(20)_final(9).mov,True,left,2,training(5).mov,0,108,108,52,,,,,,,,10:50:19:694,10:50:20:437,10:50:23:424,left,10:50:24:125,2018_Jun_07_1007,59.9676895013,MP-Perception Experiment,xx13w23,
428,vgpdm_dyn(35)-lvm(10)_final(6).mov,False,left,2,training(17).mov,0,109,109,112,,,,,,,,10:50:24:878,10:50:25:643,10:50:28:629,right,10:50:29:096,2018_Jun_07_1007,59.9676895013,MP-Perception Experiment,xx13w23,
429,training(14).mov,True,right,2,vgpdm_dyn(30)-lvm(25)_final(2).mov,0,110,110,156,,,,,,,,10:50:29:843,10:50:30:597,10:50:33:616,right,10:50:33:916,2018_Jun_07_1007,59.9676895013,MP-Perception Experiment,xx13w23,
430,vgpdm_dyn(35)-lvm(30)_final(2).mov,True,left,2,training(34).mov,0,111,111,98,,,,,,,,10:50:34:679,10:50:35:418,10:50:38:421,right,10:50:38:438,2018_Jun_07_1007,59.9676895013,MP-Perception Experiment,xx13w23,
431,vcgpdm_dyn(20)-lvm(15)_final(6).mov,False,left,2,training(31).mov,0,112,112,32,,,,,,,,10:50:39:225,10:50:39:939,10:50:42:941,left,10:50:43:458,2018_Jun_07_1007,59.9676895013,MP-Perception Experiment,xx13w23,
432,training(7).mov,False,right,2,vcgpdm_dyn(20)-lvm(10)_final(2).mov,0,113,113,133,,,,,,,,10:50:44:205,10:50:44:960,10:50:47:962,right,10:50:48:846,2018_Jun_07_1007,59.9676895013,MP-Perception Experiment,xx13w23,
433,training(2).mov,False,right,2,vgpdm_dyn(25)-lvm(20)_final(8).mov,0,114,114,53,,,,,,,,10:50:49:596,10:50:50:347,10:50:53:351,right,10:50:54:468,2018_Jun_07_1007,59.9676895013,MP-Perception Experiment,xx13w23,
434,vgpdm_dyn(25)-lvm(20)_final(1).mov,False,left,2,training(24).mov,0,115,115,77,,,,,,,,10:50:55:228,10:50:55:969,10:50:58:970,right,10:50:59:487,2018_Jun_07_1007,59.9676895013,MP-Perception Experiment,xx13w23,
435,training(2).mov,True,right,2,vcgpdm_dyn(30)-lvm(25)_final(9).mov,0,116,116,145,,,,,,,,10:51:00:252,10:51:00:988,10:51:03:991,right,10:51:04:308,2018_Jun_07_1007,59.9676895013,MP-Perception Experiment,xx13w23,
436,training(4).mov,True,right,2,vcgpdm_dyn(15)-lvm(15)_final(8).mov,0,117,117,14,,,,,,,,10:51:05:067,10:51:05:809,10:51:08:811,right,10:51:09:380,2018_Jun_07_1007,59.9676895013,MP-Perception Experiment,xx13w23,
437,vgpdm_dyn(35)-lvm(25)_final(1).mov,False,left,2,training(2).mov,0,118,118,70,,,,,,,,10:51:10:136,10:51:10:899,10:51:13:885,left,10:51:14:702,2018_Jun_07_1007,59.9676895013,MP-Perception Experiment,xx13w23,
438,training(24).mov,True,right,2,vcgpdm_dyn(30)-lvm(25)_final(8).mov,0,119,119,95,,,,,,,,10:51:15:459,10:51:16:203,10:51:19:206,right,10:51:19:857,2018_Jun_07_1007,59.9676895013,MP-Perception Experiment,xx13w23,
439,vcgpdm_dyn(10)-lvm(15)_final(7).mov,True,left,2,training(48).mov,0,120,120,82,,,,,,,,10:51:20:612,10:51:21:358,10:51:24:360,left,10:51:24:794,2018_Jun_07_1007,59.9676895013,MP-Perception Experiment,xx13w23,
440,vgpdm_dyn(15)-lvm(25)_final(7).mov,True,left,2,training(12).mov,0,121,121,138,,,,,,,,10:51:25:721,10:51:26:295,10:51:29:315,right,10:51:29:716,2018_Jun_07_1007,59.9676895013,MP-Perception Experiment,xx13w23,
441,training(33).mov,False,right,2,vgpdm_dyn(20)-lvm(30)_final(3).mov,0,122,122,96,,,,,,,,10:51:30:480,10:51:31:217,10:51:34:219,right,10:51:34:853,2018_Jun_07_1007,59.9676895013,MP-Perception Experiment,xx13w23,
442,training(15).mov,False,right,2,vgpdm_dyn(5)-lvm(25)_final(9)_out_of_screen.mov,0,123,123,26,,,,,,,,10:51:35:789,10:51:36:354,10:51:39:357,right,10:51:40:324,2018_Jun_07_1007,59.9676895013,MP-Perception Experiment,xx13w23,
443,vgpdm_dyn(10)-lvm(25)_final(3).mov,True,left,2,training(24).mov,0,124,124,60,,,,,,,,10:51:41:092,10:51:41:842,10:51:44:845,left,10:51:45:429,2018_Jun_07_1007,59.9676895013,MP-Perception Experiment,xx13w23,
444,training(23).mov,True,right,2,dmp_npsi(45)_final(5).mov,0,125,125,31,,,,,,,,10:51:46:179,10:51:46:930,10:51:49:931,left,10:51:50:398,2018_Jun_07_1007,59.9676895013,MP-Perception Experiment,xx13w23,
445,vgpdm_dyn(20)-lvm(35)_final(9).mov,False,left,2,training(4).mov,0,126,126,13,,,,,,,,10:51:51:174,10:51:51:899,10:51:54:902,right,10:51:55:369,2018_Jun_07_1007,59.9676895013,MP-Perception Experiment,xx13w23,
446,training(0).mov,False,right,2,dmp_npsi(30)_final(0).mov,0,127,127,35,,,,,,,,10:51:56:154,10:51:56:870,10:51:59:857,right,10:52:00:775,2018_Jun_07_1007,59.9676895013,MP-Perception Experiment,xx13w23,
447,training(27).mov,False,right,2,tmp_numprim(10)_final(7).mov,0,128,128,45,,,,,,,,10:52:01:526,10:52:02:294,10:52:05:279,left,10:52:05:746,2018_Jun_07_1007,59.9676895013,MP-Perception Experiment,xx13w23,
448,vgpdm_dyn(30)-lvm(10)_final(1).mov,True,left,2,training(39).mov,0,129,129,39,,,,,,,,10:52:06:510,10:52:07:264,10:52:10:250,left,10:52:10:667,2018_Jun_07_1007,59.9676895013,MP-Perception Experiment,xx13w23,
449,vcgpdm_dyn(5)-lvm(30)_final(5)_bad.mov,False,left,2,training(35).mov,0,130,130,110,,,,,,,,10:52:11:601,10:52:12:168,10:52:15:171,left,10:52:15:671,2018_Jun_07_1007,59.9676895013,MP-Perception Experiment,xx13w23,
450,training(23).mov,False,right,2,vcgpdm_dyn(15)-lvm(20)_final(1).mov,0,131,131,57,,,,,,,,10:52:16:433,10:52:17:189,10:52:20:193,left,10:52:20:643,2018_Jun_07_1007,59.9676895013,MP-Perception Experiment,xx13w23,
451,vgpdm_dyn(25)-lvm(20)_final(1).mov,True,left,2,training(38).mov,0,132,132,134,,,,,,,,10:52:21:396,10:52:22:144,10:52:25:146,left,10:52:25:313,2018_Jun_07_1007,59.9676895013,MP-Perception Experiment,xx13w23,
452,training(26).mov,False,right,2,vgpdm_dyn(35)-lvm(5)_final(5).mov,0,133,133,129,,,,,,,,10:52:26:235,10:52:26:814,10:52:29:817,right,10:52:30:201,2018_Jun_07_1007,59.9676895013,MP-Perception Experiment,xx13w23,
453,vcgpdm_dyn(10)-lvm(20)_final(0).mov,False,left,2,training(21).mov,0,134,134,84,,,,,,,,10:52:30:975,10:52:31:702,10:52:34:704,right,10:52:34:938,2018_Jun_07_1007,59.9676895013,MP-Perception Experiment,xx13w23,
454,dmp_npsi(15)_final(0).mov,False,left,2,training(1).mov,0,135,135,118,,,,,,,,10:52:35:691,10:52:36:439,10:52:39:441,left,10:52:39:791,2018_Jun_07_1007,59.9676895013,MP-Perception Experiment,xx13w23,
455,training(20).mov,True,right,2,vcgpdm_dyn(25)-lvm(5)_final(1).mov,0,136,136,54,,,,,,,,10:52:40:555,10:52:41:292,10:52:44:294,right,10:52:44:611,2018_Jun_07_1007,59.9676895013,MP-Perception Experiment,xx13w23,
456,tmp_numprim(4)_final(4).mov,False,left,2,training(1).mov,0,137,137,122,,,,,,,,10:52:45:383,10:52:46:112,10:52:49:115,left,10:52:49:632,2018_Jun_07_1007,59.9676895013,MP-Perception Experiment,xx13w23,
457,vgpdm_dyn(25)-lvm(5)_final(1).mov,True,left,2,training(16).mov,0,138,138,136,,,,,,,,10:52:50:373,10:52:51:133,10:52:54:121,left,10:52:54:672,2018_Jun_07_1007,59.9676895013,MP-Perception Experiment,xx13w23,
458,training(21).mov,False,right,2,tmp_numprim(3)_final(8).mov,0,139,139,137,,,,,,,,10:52:55:479,10:52:56:173,10:52:59:176,right,10:52:59:927,2018_Jun_07_1007,59.9676895013,MP-Perception Experiment,xx13w23,
459,dmp_npsi(45)_final(9).mov,True,left,2,training(2).mov,0,140,140,101,,,,,,,,10:53:00:687,10:53:01:428,10:53:04:430,left,10:53:04:730,2018_Jun_07_1007,59.9676895013,MP-Perception Experiment,xx13w23,
460,vcgpdm_dyn(5)-lvm(25)_final(1).mov,True,left,2,training(17).mov,0,141,141,100,,,,,,,,10:53:05:498,10:53:06:232,10:53:09:251,left,10:53:09:534,2018_Jun_07_1007,59.9676895013,MP-Perception Experiment,xx13w23,
461,tmp_numprim(9)_final(8).mov,False,left,2,training(5).mov,0,142,142,119,,,,,,,,10:53:10:296,10:53:11:052,10:53:14:039,left,10:53:14:539,2018_Jun_07_1007,59.9676895013,MP-Perception Experiment,xx13w23,
462,training(40).mov,True,right,2,vgpdm_dyn(15)-lvm(25)_final(9).mov,0,143,143,111,,,,,,,,10:53:15:289,10:53:16:057,10:53:19:043,right,10:53:19:343,2018_Jun_07_1007,59.9676895013,MP-Perception Experiment,xx13w23,
463,training(0).mov,True,right,2,vcgpdm_dyn(25)-lvm(30)_final(2).mov,0,144,144,113,,,,,,,,10:53:20:114,10:53:20:844,10:53:23:863,left,10:53:24:331,2018_Jun_07_1007,59.9676895013,MP-Perception Experiment,xx13w23,
464,training(41).mov,False,right,2,vcgpdm_dyn(35)-lvm(10)_final(9).mov,0,145,145,46,,,,,,,,10:53:25:091,10:53:25:832,10:53:28:832,right,10:53:29:467,2018_Jun_07_1007,59.9676895013,MP-Perception Experiment,xx13w23,
465,vcgpdm_dyn(15)-lvm(35)_final(2).mov,False,left,2,training(40).mov,0,146,146,40,,,,,,,,10:53:30:230,10:53:30:985,10:53:33:971,left,10:53:34:471,2018_Jun_07_1007,59.9676895013,MP-Perception Experiment,xx13w23,
466,vcgpdm_dyn(15)-lvm(25)_final(7).mov,True,left,2,training(29).mov,0,147,147,102,,,,,,,,10:53:35:233,10:53:35:972,10:53:38:975,left,10:53:39:192,2018_Jun_07_1007,59.9676895013,MP-Perception Experiment,xx13w23,
467,training(31).mov,False,right,2,dmp_npsi(50)_final(7).mov,0,148,148,59,,,,,,,,10:53:39:947,10:53:40:693,10:53:43:680,left,10:53:44:164,2018_Jun_07_1007,59.9676895013,MP-Perception Experiment,xx13w23,
468,vgpdm_dyn(35)-lvm(10)_final(4).mov,False,left,2,training(13).mov,0,149,149,146,,,,,,,,10:53:45:113,10:53:45:665,10:53:48:685,left,10:53:50:020,2018_Jun_07_1007,59.9676895013,MP-Perception Experiment,xx13w23,
469,training(24).mov,False,right,2,vcgpdm_dyn(10)-lvm(5)_final(0).mov,0,150,150,2,,,,,,,,10:53:50:765,10:53:51:538,10:53:54:524,left,10:53:55:174,2018_Jun_07_1007,59.9676895013,MP-Perception Experiment,xx13w23,
470,training(26).mov,False,right,2,vcgpdm_dyn(20)-lvm(20)_final(7).mov,0,151,151,107,,,,,,,,10:53:55:935,10:53:56:675,10:53:59:694,left,10:54:00:245,2018_Jun_07_1007,59.9676895013,MP-Perception Experiment,xx13w23,
471,training(35).mov,False,right,2,vcgpdm_dyn(10)-lvm(35)_final(9).mov,0,152,152,44,,,,,,,,10:54:00:987,10:54:01:746,10:54:04:750,right,10:54:05:233,2018_Jun_07_1007,59.9676895013,MP-Perception Experiment,xx13w23,
472,vgpdm_dyn(5)-lvm(15)_final(1).mov,True,left,2,training(3).mov,0,153,153,38,,,,,,,,10:54:05:975,10:54:06:751,10:54:09:754,left,10:54:10:387,2018_Jun_07_1007,59.9676895013,MP-Perception Experiment,xx13w23,
473,training(9).mov,False,right,2,dmp_npsi(50)_final(4).mov,0,154,154,6,,,,,,,,10:54:11:141,10:54:11:889,10:54:14:908,right,10:54:15:525,2018_Jun_07_1007,59.9676895013,MP-Perception Experiment,xx13w23,
474,vgpdm_dyn(15)-lvm(30)_final(2).mov,True,left,2,training(26).mov,0,155,155,94,,,,,,,,10:54:16:393,10:54:17:043,10:54:20:027,left,10:54:20:093,2018_Jun_07_1007,59.9676895013,MP-Perception Experiment,xx13w23,
475,training(10).mov,True,right,2,vcgpdm_dyn(5)-lvm(10)_final(2).mov,0,156,156,50,,,,,,,,10:54:20:847,10:54:21:595,10:54:24:598,left,10:54:25:049,2018_Jun_07_1007,59.9676895013,MP-Perception Experiment,xx13w23,
