trial_number,right,flipped,correct,block,left,trials.thisRepN,trials.thisTrialN,trials.thisN,trials.thisIndex,flipwelcome.keys,flipwelcome.corr,flipwelcome.rt,flippreparations.keys,flippreparations.rt,flipInstructions.keys,flipInstructions.rt,time_at_fixation_cross_onset,time_at_videoonset,time_at_videoend,participant_key_response,time_at_key_response,key_resp_4.keys,key_resp_4.rt,date,frameRate,expName,participant,
,,,,,,,,,,space,0,84.9580671451,,,,,,,,,,,,2018_Jun_07_1137,59.9600907979,MP-Perception Experiment,xx14w26,
,,,,,,,,,,,,,space,12.3441797387,,,,,,,,,,2018_Jun_07_1137,59.9600907979,MP-Perception Experiment,xx14w26,
,,,,,,,,,,,,,,,space,13.4452488486,,,,,,,,2018_Jun_07_1137,59.9600907979,MP-Perception Experiment,xx14w26,
1,training(3).mov,False,right,0,map_gpdm_final(4).mov,0,0,0,42,,,,,,,,11:38:54:715,11:38:54:715,11:38:57:587,right,11:39:00:306,,,2018_Jun_07_1137,59.9600907979,MP-Perception Experiment,xx14w26,
2,training(16).mov,False,right,0,vgpdm_dyn(10)-lvm(35)_final(7).mov,0,1,1,29,,,,,,,,11:39:01:067,11:39:01:807,11:39:04:811,right,11:39:06:362,,,2018_Jun_07_1137,59.9600907979,MP-Perception Experiment,xx14w26,
3,vgpdm_dyn(25)-lvm(30)_final(3).mov,True,left,0,training(4).mov,0,2,2,64,,,,,,,,11:39:07:310,11:39:07:863,11:39:10:866,left,11:39:12:117,,,2018_Jun_07_1137,59.9600907979,MP-Perception Experiment,xx14w26,
4,training(33).mov,False,right,0,vcgpdm_dyn(30)-lvm(25)_final(8).mov,0,3,3,22,,,,,,,,11:39:12:879,11:39:13:635,11:39:16:620,right,11:39:18:288,,,2018_Jun_07_1137,59.9600907979,MP-Perception Experiment,xx14w26,
5,training(41).mov,True,right,0,vcgpdm_dyn(30)-lvm(20)_final(6).mov,0,4,4,82,,,,,,,,11:39:19:216,11:39:19:806,11:39:22:793,left,11:39:24:478,,,2018_Jun_07_1137,59.9600907979,MP-Perception Experiment,xx14w26,
6,vcgpdm_dyn(5)-lvm(20)_final(5).mov,False,left,0,training(34).mov,0,5,5,8,,,,,,,,11:39:25:416,11:39:25:979,11:39:28:981,left,11:39:30:283,,,2018_Jun_07_1137,59.9600907979,MP-Perception Experiment,xx14w26,
7,training(12).mov,True,right,0,vgpdm_dyn(30)-lvm(35)_final(6).mov,0,6,6,113,,,,,,,,11:39:31:045,11:39:31:798,11:39:34:784,left,11:39:37:370,,,2018_Jun_07_1137,59.9600907979,MP-Perception Experiment,xx14w26,
8,training(41).mov,True,right,0,vgpdm_dyn(15)-lvm(10)_final(8)_out_of_screen.mov,0,7,7,85,,,,,,,,11:39:38:308,11:39:38:871,11:39:41:874,right,11:39:43:311,,,2018_Jun_07_1137,59.9600907979,MP-Perception Experiment,xx14w26,
9,vgpdm_dyn(35)-lvm(10)_final(7).mov,False,left,0,training(20).mov,0,8,8,115,,,,,,,,11:39:44:080,11:39:44:828,11:39:47:814,right,11:39:49:199,,,2018_Jun_07_1137,59.9600907979,MP-Perception Experiment,xx14w26,
10,vcgpdm_dyn(15)-lvm(20)_final(7).mov,False,left,0,training(2).mov,0,9,9,51,,,,,,,,11:39:49:952,11:39:50:700,11:39:53:702,right,11:39:55:954,,,2018_Jun_07_1137,59.9600907979,MP-Perception Experiment,xx14w26,
11,training(7).mov,False,right,0,vcgpdm_dyn(25)-lvm(10)_final(5).mov,0,10,10,44,,,,,,,,11:39:56:889,11:39:57:456,11:40:00:459,right,11:40:01:960,,,2018_Jun_07_1137,59.9600907979,MP-Perception Experiment,xx14w26,
12,training(24).mov,False,right,0,vcgpdm_dyn(10)-lvm(10)_final(6).mov,0,11,11,28,,,,,,,,11:40:02:721,11:40:03:461,11:40:06:464,left,11:40:07:798,,,2018_Jun_07_1137,59.9600907979,MP-Perception Experiment,xx14w26,
13,training(3).mov,False,right,0,vcgpdm_dyn(15)-lvm(25)_final(9).mov,0,12,12,88,,,,,,,,11:40:08:561,11:40:09:316,11:40:12:301,left,11:40:14:054,,,2018_Jun_07_1137,59.9600907979,MP-Perception Experiment,xx14w26,
14,vgpdm_dyn(30)-lvm(30)_final(0).mov,False,left,0,training(20).mov,0,13,13,3,,,,,,,,11:40:14:988,11:40:15:572,11:40:18:558,right,11:40:19:292,,,2018_Jun_07_1137,59.9600907979,MP-Perception Experiment,xx14w26,
15,tmp_numprim(8)_final(0).mov,True,left,0,training(8).mov,0,14,14,136,,,,,,,,11:40:20:072,11:40:20:793,11:40:23:793,left,11:40:25:528,,,2018_Jun_07_1137,59.9600907979,MP-Perception Experiment,xx14w26,
16,vcgpdm_dyn(5)-lvm(25)_final(0).mov,True,left,0,training(36).mov,0,15,15,9,,,,,,,,11:40:26:477,11:40:27:029,11:40:30:032,right,11:40:32:385,,,2018_Jun_07_1137,59.9600907979,MP-Perception Experiment,xx14w26,
17,vcgpdm_dyn(25)-lvm(10)_final(0).mov,True,left,0,training(36).mov,0,16,16,49,,,,,,,,11:40:33:140,11:40:33:888,11:40:36:907,left,11:40:37:524,,,2018_Jun_07_1137,59.9600907979,MP-Perception Experiment,xx14w26,
18,vcgpdm_dyn(20)-lvm(5)_final(8).mov,False,left,0,training(33).mov,0,17,17,16,,,,,,,,11:40:38:305,11:40:39:025,11:40:42:028,left,11:40:43:929,,,2018_Jun_07_1137,59.9600907979,MP-Perception Experiment,xx14w26,
19,tmp_numprim(7)_final(8).mov,True,left,0,training(7).mov,0,18,18,147,,,,,,,,11:40:44:865,11:40:45:430,11:40:48:433,left,11:40:50:385,,,2018_Jun_07_1137,59.9600907979,MP-Perception Experiment,xx14w26,
20,training(14).mov,False,right,0,vgpdm_dyn(5)-lvm(20)_final(1).mov,0,19,19,92,,,,,,,,11:40:51:325,11:40:51:903,11:40:54:889,right,11:40:55:890,,,2018_Jun_07_1137,59.9600907979,MP-Perception Experiment,xx14w26,
21,training(25).mov,False,right,0,vgpdm_dyn(5)-lvm(15)_final(1).mov,0,20,20,76,,,,,,,,11:40:56:656,11:40:57:391,11:41:00:393,right,11:41:01:878,,,2018_Jun_07_1137,59.9600907979,MP-Perception Experiment,xx14w26,
22,vgpdm_dyn(5)-lvm(10)_final(1).mov,True,left,0,training(1).mov,0,21,21,58,,,,,,,,11:41:02:828,11:41:03:379,11:41:06:383,left,11:41:07:817,,,2018_Jun_07_1137,59.9600907979,MP-Perception Experiment,xx14w26,
23,training(22).mov,True,right,0,vgpdm_dyn(20)-lvm(25)_final(9).mov,0,22,22,0,,,,,,,,11:41:08:568,11:41:09:318,11:41:12:319,right,11:41:14:988,,,2018_Jun_07_1137,59.9600907979,MP-Perception Experiment,xx14w26,
24,training(48).mov,False,right,0,vcgpdm_dyn(30)-lvm(25)_final(8).mov,0,23,23,71,,,,,,,,11:41:15:918,11:41:16:489,11:41:19:491,right,11:41:20:743,,,2018_Jun_07_1137,59.9600907979,MP-Perception Experiment,xx14w26,
25,training(34).mov,True,right,0,tmp_numprim(7)_final(7).mov,0,24,24,57,,,,,,,,11:41:21:502,11:41:22:244,11:41:25:247,left,11:41:26:150,,,2018_Jun_07_1137,59.9600907979,MP-Perception Experiment,xx14w26,
26,vcgpdm_dyn(5)-lvm(10)_final(6).mov,False,left,0,training(17).mov,0,25,25,34,,,,,,,,11:41:27:677,11:41:27:677,11:41:30:653,left,11:41:32:421,,,2018_Jun_07_1137,59.9600907979,MP-Perception Experiment,xx14w26,
27,vcgpdm_dyn(15)-lvm(15)_final(5).mov,True,left,0,training(5).mov,0,26,26,45,,,,,,,,11:41:33:359,11:41:33:922,11:41:36:925,left,11:41:38:810,,,2018_Jun_07_1137,59.9600907979,MP-Perception Experiment,xx14w26,
28,vcgpdm_dyn(30)-lvm(25)_final(2).mov,False,left,0,training(19).mov,0,27,27,129,,,,,,,,11:41:39:627,11:41:40:311,11:41:43:314,left,11:41:44:749,,,2018_Jun_07_1137,59.9600907979,MP-Perception Experiment,xx14w26,
29,training(13).mov,True,right,0,vgpdm_dyn(15)-lvm(5)_final(9).mov,0,28,28,106,,,,,,,,11:41:45:504,11:41:46:250,11:41:49:252,right,11:41:49:886,,,2018_Jun_07_1137,59.9600907979,MP-Perception Experiment,xx14w26,
30,tmp_numprim(10)_final(8).mov,True,left,0,training(10).mov,0,29,29,60,,,,,,,,11:41:50:646,11:41:51:388,11:41:54:390,right,11:41:55:541,,,2018_Jun_07_1137,59.9600907979,MP-Perception Experiment,xx14w26,
31,vcgpdm_dyn(20)-lvm(35)_final(5).mov,True,left,0,training(20).mov,0,30,30,74,,,,,,,,11:41:56:294,11:41:57:059,11:42:00:062,left,11:42:00:830,,,2018_Jun_07_1137,59.9600907979,MP-Perception Experiment,xx14w26,
32,vcgpdm_dyn(30)-lvm(5)_final(5).mov,False,left,0,training(30).mov,0,31,31,137,,,,,,,,11:42:01:599,11:42:02:362,11:42:05:348,left,11:42:06:082,,,2018_Jun_07_1137,59.9600907979,MP-Perception Experiment,xx14w26,
33,training(38).mov,False,right,0,vgpdm_dyn(25)-lvm(30)_final(1).mov,0,32,32,33,,,,,,,,11:42:06:864,11:42:07:583,11:42:10:586,right,11:42:11:503,,,2018_Jun_07_1137,59.9600907979,MP-Perception Experiment,xx14w26,
34,training(37).mov,True,right,0,tmp_numprim(8)_final(1).mov,0,33,33,153,,,,,,,,11:42:12:252,11:42:13:006,11:42:15:991,left,11:42:18:045,,,2018_Jun_07_1137,59.9600907979,MP-Perception Experiment,xx14w26,
35,vgpdm_dyn(25)-lvm(30)_final(7).mov,True,left,0,training(14).mov,0,34,34,54,,,,,,,,11:42:18:990,11:42:19:546,11:42:22:548,left,11:42:24:116,,,2018_Jun_07_1137,59.9600907979,MP-Perception Experiment,xx14w26,
36,tmp_numprim(10)_final(2).mov,False,left,0,training(8).mov,0,35,35,77,,,,,,,,11:42:25:055,11:42:25:617,11:42:28:636,left,11:42:29:137,,,2018_Jun_07_1137,59.9600907979,MP-Perception Experiment,xx14w26,
37,training(0).mov,False,right,0,vcgpdm_dyn(20)-lvm(25)_final(9).mov,0,36,36,7,,,,,,,,11:42:29:909,11:42:30:655,11:42:33:657,right,11:42:34:709,,,2018_Jun_07_1137,59.9600907979,MP-Perception Experiment,xx14w26,
38,training(24).mov,True,right,0,vgpdm_dyn(30)-lvm(20)_final(9).mov,0,37,37,124,,,,,,,,11:42:35:468,11:42:36:210,11:42:39:229,left,11:42:40:180,,,2018_Jun_07_1137,59.9600907979,MP-Perception Experiment,xx14w26,
39,vgpdm_dyn(15)-lvm(35)_final(1).mov,True,left,0,training(15).mov,0,38,38,112,,,,,,,,11:42:40:936,11:42:41:681,11:42:44:700,right,11:42:45:318,,,2018_Jun_07_1137,59.9600907979,MP-Perception Experiment,xx14w26,
40,training(31).mov,True,right,0,vgpdm_dyn(25)-lvm(5)_final(9).mov,0,39,39,99,,,,,,,,11:42:46:077,11:42:46:819,11:42:49:838,right,11:42:50:605,,,2018_Jun_07_1137,59.9600907979,MP-Perception Experiment,xx14w26,
41,training(13).mov,True,right,0,vgpdm_dyn(10)-lvm(10)_final(2).mov,0,40,40,110,,,,,,,,11:42:51:379,11:42:52:139,11:42:55:125,left,11:42:56:075,,,2018_Jun_07_1137,59.9600907979,MP-Perception Experiment,xx14w26,
42,training(11).mov,True,right,0,vgpdm_dyn(20)-lvm(35)_final(9).mov,0,41,41,149,,,,,,,,11:42:56:846,11:42:57:577,11:43:00:579,left,11:43:01:263,,,2018_Jun_07_1137,59.9600907979,MP-Perception Experiment,xx14w26,
43,training(22).mov,False,right,0,vgpdm_dyn(10)-lvm(20)_final(0).mov,0,42,42,48,,,,,,,,11:43:02:019,11:43:02:781,11:43:05:752,left,11:43:06:719,,,2018_Jun_07_1137,59.9600907979,MP-Perception Experiment,xx14w26,
44,training(3).mov,False,right,0,vgpdm_dyn(30)-lvm(5)_final(4).mov,0,43,43,119,,,,,,,,11:43:07:504,11:43:08:220,11:43:11:224,left,11:43:12:391,,,2018_Jun_07_1137,59.9600907979,MP-Perception Experiment,xx14w26,
45,training(19).mov,True,right,0,vgpdm_dyn(35)-lvm(20)_final(7)_out_of_screen.mov,0,44,44,105,,,,,,,,11:43:13:132,11:43:13:892,11:43:16:895,left,11:43:19:214,,,2018_Jun_07_1137,59.9600907979,MP-Perception Experiment,xx14w26,
46,vcgpdm_dyn(25)-lvm(5)_final(0).mov,True,left,0,training(30).mov,0,45,45,20,,,,,,,,11:43:20:150,11:43:20:715,11:43:23:717,left,11:43:25:202,,,2018_Jun_07_1137,59.9600907979,MP-Perception Experiment,xx14w26,
47,training(18).mov,True,right,0,vcgpdm_dyn(30)-lvm(10)_final(8).mov,0,46,46,143,,,,,,,,11:43:26:140,11:43:26:720,11:43:29:706,right,11:43:30:440,,,2018_Jun_07_1137,59.9600907979,MP-Perception Experiment,xx14w26,
48,training(36).mov,True,right,0,tmp_numprim(7)_final(3).mov,0,47,47,117,,,,,,,,11:43:31:209,11:43:31:941,11:43:34:944,left,11:43:35:494,,,2018_Jun_07_1137,59.9600907979,MP-Perception Experiment,xx14w26,
49,vgpdm_dyn(10)-lvm(30)_final(0).mov,False,left,0,training(16).mov,0,48,48,62,,,,,,,,11:43:36:244,11:43:36:995,11:43:39:998,left,11:43:41:414,,,2018_Jun_07_1137,59.9600907979,MP-Perception Experiment,xx14w26,
50,vgpdm_dyn(10)-lvm(15)_final(9).mov,True,left,0,training(26).mov,0,49,49,75,,,,,,,,11:43:42:181,11:43:42:915,11:43:45:919,right,11:43:46:736,,,2018_Jun_07_1137,59.9600907979,MP-Perception Experiment,xx14w26,
51,vcgpdm_dyn(15)-lvm(5)_final(2).mov,False,left,0,training(22).mov,0,50,50,151,,,,,,,,11:43:47:480,11:43:48:237,11:43:51:240,right,11:43:52:040,,,2018_Jun_07_1137,59.9600907979,MP-Perception Experiment,xx14w26,
52,vgpdm_dyn(35)-lvm(10)_final(5).mov,False,left,0,training(36).mov,0,51,51,121,,,,,,,,11:43:52:803,11:43:53:543,11:43:56:546,left,11:43:57:296,,,2018_Jun_07_1137,59.9600907979,MP-Perception Experiment,xx14w26,
53,training(27).mov,False,right,0,vcgpdm_dyn(10)-lvm(35)_final(0).mov,0,52,52,132,,,,,,,,11:43:58:056,11:43:58:798,11:44:01:801,left,11:44:03:803,,,2018_Jun_07_1137,59.9600907979,MP-Perception Experiment,xx14w26,
54,training(35).mov,False,right,0,vcgpdm_dyn(10)-lvm(10)_final(9).mov,0,53,53,120,,,,,,,,11:44:04:735,11:44:05:304,11:44:08:306,right,11:44:09:407,,,2018_Jun_07_1137,59.9600907979,MP-Perception Experiment,xx14w26,
55,training(18).mov,True,right,0,vcgpdm_dyn(10)-lvm(25)_final(5).mov,0,54,54,141,,,,,,,,11:44:10:166,11:44:10:925,11:44:13:911,right,11:44:14:995,,,2018_Jun_07_1137,59.9600907979,MP-Perception Experiment,xx14w26,
56,training(18).mov,False,right,0,dmp_npsi(50)_final(7).mov,0,55,55,17,,,,,,,,11:44:15:754,11:44:16:496,11:44:19:499,right,11:44:20:784,,,2018_Jun_07_1137,59.9600907979,MP-Perception Experiment,xx14w26,
57,training(18).mov,False,right,0,vcgpdm_dyn(35)-lvm(30)_final(7).mov,0,56,56,89,,,,,,,,11:44:21:540,11:44:22:302,11:44:25:287,right,11:44:26:155,,,2018_Jun_07_1137,59.9600907979,MP-Perception Experiment,xx14w26,
58,training(32).mov,False,right,0,vgpdm_dyn(30)-lvm(10)_final(3).mov,0,57,57,59,,,,,,,,11:44:28:279,11:44:28:279,11:44:30:659,left,11:44:32:858,,,2018_Jun_07_1137,59.9600907979,MP-Perception Experiment,xx14w26,
59,vcgpdm_dyn(15)-lvm(30)_final(8).mov,False,left,0,training(33).mov,0,58,58,96,,,,,,,,11:44:33:710,11:44:34:360,11:44:37:363,left,11:44:37:897,,,2018_Jun_07_1137,59.9600907979,MP-Perception Experiment,xx14w26,
60,training(31).mov,False,right,0,vgpdm_dyn(35)-lvm(25)_final(9).mov,0,59,59,90,,,,,,,,11:44:38:658,11:44:39:398,11:44:42:400,right,11:44:42:869,,,2018_Jun_07_1137,59.9600907979,MP-Perception Experiment,xx14w26,
61,tmp_numprim(3)_final(6).mov,True,left,0,training(4).mov,0,60,60,131,,,,,,,,11:44:43:631,11:44:44:370,11:44:47:373,left,11:44:48:324,,,2018_Jun_07_1137,59.9600907979,MP-Perception Experiment,xx14w26,
62,training(35).mov,False,right,0,dmp_npsi(15)_final(6).mov,0,61,61,1,,,,,,,,11:44:49:077,11:44:49:825,11:44:52:827,right,11:44:53:595,,,2018_Jun_07_1137,59.9600907979,MP-Perception Experiment,xx14w26,
63,vcgpdm_dyn(15)-lvm(15)_final(3).mov,True,left,0,training(28).mov,0,62,62,125,,,,,,,,11:44:54:361,11:44:55:097,11:44:58:116,left,11:44:59:267,,,2018_Jun_07_1137,59.9600907979,MP-Perception Experiment,xx14w26,
64,training(48).mov,True,right,0,vgpdm_dyn(5)-lvm(15)_final(9).mov,0,63,63,70,,,,,,,,11:45:00:027,11:45:00:768,11:45:03:787,right,11:45:04:488,,,2018_Jun_07_1137,59.9600907979,MP-Perception Experiment,xx14w26,
65,training(2).mov,False,right,0,vgpdm_dyn(10)-lvm(25)_final(4).mov,0,64,64,86,,,,,,,,11:45:05:246,11:45:06:006,11:45:08:991,left,11:45:09:976,,,2018_Jun_07_1137,59.9600907979,MP-Perception Experiment,xx14w26,
66,vgpdm_dyn(25)-lvm(20)_final(8).mov,False,left,0,training(1).mov,0,65,65,97,,,,,,,,11:45:10:729,11:45:11:494,11:45:14:480,right,11:45:15:097,,,2018_Jun_07_1137,59.9600907979,MP-Perception Experiment,xx14w26,
67,training(39).mov,False,right,0,vcgpdm_dyn(10)-lvm(35)_final(7).mov,0,66,66,67,,,,,,,,11:45:15:871,11:45:16:598,11:45:19:601,right,11:45:20:568,,,2018_Jun_07_1137,59.9600907979,MP-Perception Experiment,xx14w26,
68,training(48).mov,True,right,0,vcgpdm_dyn(35)-lvm(25)_final(2).mov,0,67,67,156,,,,,,,,11:45:21:320,11:45:22:085,11:45:25:070,left,11:45:26:004,,,2018_Jun_07_1137,59.9600907979,MP-Perception Experiment,xx14w26,
69,vgpdm_dyn(35)-lvm(5)_final(9).mov,True,left,0,training(20).mov,0,68,68,94,,,,,,,,11:45:27:623,11:45:27:623,11:45:30:509,right,11:45:31:894,,,2018_Jun_07_1137,59.9600907979,MP-Perception Experiment,xx14w26,
70,vgpdm_dyn(35)-lvm(5)_final(4).mov,False,left,0,training(26).mov,0,69,69,118,,,,,,,,11:45:32:641,11:45:33:396,11:45:36:382,right,11:45:37:850,,,2018_Jun_07_1137,59.9600907979,MP-Perception Experiment,xx14w26,
71,vcgpdm_dyn(30)-lvm(30)_final(2).mov,False,left,0,training(33).mov,0,70,70,61,,,,,,,,11:45:38:814,11:45:39:351,11:45:42:354,left,11:45:43:054,,,2018_Jun_07_1137,59.9600907979,MP-Perception Experiment,xx14w26,
72,vcgpdm_dyn(20)-lvm(25)_final(9).mov,False,left,0,training(10).mov,0,71,71,157,,,,,,,,11:45:43:810,11:45:44:555,11:45:47:559,left,11:45:48:243,,,2018_Jun_07_1137,59.9600907979,MP-Perception Experiment,xx14w26,
73,training(33).mov,False,right,0,vgpdm_dyn(20)-lvm(20)_final(9).mov,0,72,72,81,,,,,,,,11:45:49:182,11:45:49:761,11:45:52:746,left,11:45:53:497,,,2018_Jun_07_1137,59.9600907979,MP-Perception Experiment,xx14w26,
74,training(1).mov,True,right,0,map_cgpdm_final(0).mov,0,73,73,102,,,,,,,,11:45:54:248,11:45:55:000,11:45:58:001,left,11:45:59:802,,,2018_Jun_07_1137,59.9600907979,MP-Perception Experiment,xx14w26,
75,vcgpdm_dyn(35)-lvm(10)_final(2).mov,True,left,0,training(34).mov,0,74,74,95,,,,,,,,11:46:00:747,11:46:01:303,11:46:04:307,left,11:46:05:158,,,2018_Jun_07_1137,59.9600907979,MP-Perception Experiment,xx14w26,
76,training(21).mov,True,right,0,vcgpdm_dyn(15)-lvm(15)_final(5).mov,0,75,75,52,,,,,,,,11:46:05:937,11:46:06:659,11:46:09:678,right,11:46:10:212,,,2018_Jun_07_1137,59.9600907979,MP-Perception Experiment,xx14w26,
77,vgpdm_dyn(35)-lvm(5)_final(9).mov,True,left,0,training(34).mov,0,76,76,126,,,,,,,,11:46:10:955,11:46:11:728,11:46:14:713,left,11:46:15:180,,,2018_Jun_07_1137,59.9600907979,MP-Perception Experiment,xx14w26,
78,training(7).mov,True,right,0,dmp_npsi(5)_final(0)_bad.mov,0,77,77,130,,,,,,,,11:46:15:936,11:46:16:682,11:46:19:684,right,11:46:20:418,,,2018_Jun_07_1137,59.9600907979,MP-Perception Experiment,xx14w26,
79,training(24).mov,False,right,0,vcgpdm_dyn(35)-lvm(10)_final(9).mov,0,78,78,111,,,,,,,,11:46:21:181,11:46:21:920,11:46:24:908,left,11:46:25:508,,,2018_Jun_07_1137,59.9600907979,MP-Perception Experiment,xx14w26,
80,training(31).mov,False,right,0,dmp_npsi(40)_final(5).mov,0,79,79,35,,,,,,,,11:46:26:255,11:46:27:009,11:46:30:012,right,11:46:30:796,,,2018_Jun_07_1137,59.9600907979,MP-Perception Experiment,xx14w26,
81,vcgpdm_dyn(10)-lvm(25)_final(1).mov,True,left,0,training(40).mov,0,80,80,108,,,,,,,,11:46:31:543,11:46:32:297,11:46:35:299,right,11:46:36:551,,,2018_Jun_07_1137,59.9600907979,MP-Perception Experiment,xx14w26,
82,training(39).mov,True,right,0,vgpdm_dyn(20)-lvm(20)_final(6).mov,0,81,81,43,,,,,,,,11:46:37:313,11:46:38:052,11:46:41:055,left,11:46:42:156,,,2018_Jun_07_1137,59.9600907979,MP-Perception Experiment,xx14w26,
83,training(3).mov,False,right,0,vcgpdm_dyn(30)-lvm(10)_final(7).mov,0,82,82,15,,,,,,,,11:46:42:914,11:46:43:674,11:46:46:660,left,11:46:47:243,,,2018_Jun_07_1137,59.9600907979,MP-Perception Experiment,xx14w26,
84,vgpdm_dyn(5)-lvm(10)_final(9).mov,False,left,0,training(13).mov,0,83,83,133,,,,,,,,11:46:48:000,11:46:48:745,11:46:51:747,left,11:46:53:151,,,2018_Jun_07_1137,59.9600907979,MP-Perception Experiment,xx14w26,
85,vgpdm_dyn(15)-lvm(30)_final(8).mov,True,left,0,training(34).mov,0,84,84,32,,,,,,,,11:46:53:921,11:46:54:666,11:46:57:670,left,11:46:59:504,,,2018_Jun_07_1137,59.9600907979,MP-Perception Experiment,xx14w26,
86,vcgpdm_dyn(15)-lvm(35)_final(6).mov,False,left,0,training(17).mov,0,85,85,98,,,,,,,,11:47:00:253,11:47:01:006,11:47:04:007,right,11:47:04:523,,,2018_Jun_07_1137,59.9600907979,MP-Perception Experiment,xx14w26,
87,training(14).mov,True,right,0,vcgpdm_dyn(10)-lvm(35)_final(4).mov,0,86,86,128,,,,,,,,11:47:05:277,11:47:06:024,11:47:09:027,left,11:47:09:677,,,2018_Jun_07_1137,59.9600907979,MP-Perception Experiment,xx14w26,
88,vgpdm_dyn(20)-lvm(30)_final(6).mov,True,left,0,training(16).mov,0,87,87,150,,,,,,,,11:47:10:431,11:47:11:179,11:47:14:182,right,11:47:14:816,,,2018_Jun_07_1137,59.9600907979,MP-Perception Experiment,xx14w26,
89,training(22).mov,True,right,0,vgpdm_dyn(10)-lvm(20)_final(0).mov,0,88,88,145,,,,,,,,11:47:15:594,11:47:16:319,11:47:19:304,left,11:47:20:005,,,2018_Jun_07_1137,59.9600907979,MP-Perception Experiment,xx14w26,
90,vcgpdm_dyn(15)-lvm(25)_final(1).mov,False,left,0,training(20).mov,0,89,89,56,,,,,,,,11:47:20:764,11:47:21:506,11:47:24:509,left,11:47:25:577,,,2018_Jun_07_1137,59.9600907979,MP-Perception Experiment,xx14w26,
91,training(32).mov,True,right,0,dmp_npsi(50)_final(1).mov,0,90,90,104,,,,,,,,11:47:26:361,11:47:27:078,11:47:30:097,left,11:47:30:731,,,2018_Jun_07_1137,59.9600907979,MP-Perception Experiment,xx14w26,
92,vgpdm_dyn(10)-lvm(10)_final(6).mov,True,left,0,training(3).mov,0,91,91,80,,,,,,,,11:47:31:473,11:47:32:233,11:47:35:252,left,11:47:36:053,,,2018_Jun_07_1137,59.9600907979,MP-Perception Experiment,xx14w26,
93,vcgpdm_dyn(5)-lvm(20)_final(4).mov,True,left,0,training(11).mov,0,92,92,12,,,,,,,,11:47:36:821,11:47:37:554,11:47:40:573,right,11:47:41:924,,,2018_Jun_07_1137,59.9600907979,MP-Perception Experiment,xx14w26,
94,training(7).mov,False,right,0,dmp_npsi(20)_final(5).mov,0,93,93,18,,,,,,,,11:47:42:673,11:47:43:425,11:47:46:427,right,11:47:47:195,,,2018_Jun_07_1137,59.9600907979,MP-Perception Experiment,xx14w26,
95,training(32).mov,False,right,0,vgpdm_dyn(20)-lvm(15)_final(7).mov,0,94,94,146,,,,,,,,11:47:47:946,11:47:48:714,11:47:51:698,right,11:47:52:699,,,2018_Jun_07_1137,59.9600907979,MP-Perception Experiment,xx14w26,
96,training(31).mov,False,right,0,vcgpdm_dyn(10)-lvm(5)_final(9).mov,0,95,95,53,,,,,,,,11:47:53:438,11:47:54:200,11:47:57:202,right,11:47:57:836,,,2018_Jun_07_1137,59.9600907979,MP-Perception Experiment,xx14w26,
97,vcgpdm_dyn(25)-lvm(20)_final(2).mov,False,left,0,training(34).mov,0,96,96,138,,,,,,,,11:47:58:589,11:47:59:354,11:48:02:340,left,11:48:02:942,,,2018_Jun_07_1137,59.9600907979,MP-Perception Experiment,xx14w26,
98,training(17).mov,True,right,0,vgpdm_dyn(10)-lvm(30)_final(3).mov,0,97,97,65,,,,,,,,11:48:03:699,11:48:04:443,11:48:07:446,right,11:48:08:731,,,2018_Jun_07_1137,59.9600907979,MP-Perception Experiment,xx14w26,
99,training(41).mov,False,right,0,vgpdm_dyn(5)-lvm(30)_final(5).mov,0,98,98,84,,,,,,,,11:48:09:486,11:48:10:232,11:48:13:234,right,11:48:14:335,,,2018_Jun_07_1137,59.9600907979,MP-Perception Experiment,xx14w26,
100,training(8).mov,True,right,0,vcgpdm_dyn(20)-lvm(25)_final(4).mov,0,99,99,144,,,,,,,,11:48:15:086,11:48:15:837,11:48:18:839,right,11:48:19:823,,,2018_Jun_07_1137,59.9600907979,MP-Perception Experiment,xx14w26,
101,training(6).mov,False,right,0,vgpdm_dyn(35)-lvm(25)_final(2).mov,0,100,100,11,,,,,,,,11:48:20:578,11:48:21:324,11:48:24:328,right,11:48:24:979,,,2018_Jun_07_1137,59.9600907979,MP-Perception Experiment,xx14w26,
102,training(26).mov,False,right,0,vgpdm_dyn(10)-lvm(20)_final(7).mov,0,101,101,39,,,,,,,,11:48:25:745,11:48:26:479,11:48:29:482,left,11:48:29:949,,,2018_Jun_07_1137,59.9600907979,MP-Perception Experiment,xx14w26,
103,vgpdm_dyn(10)-lvm(30)_final(1).mov,True,left,0,training(27).mov,0,102,102,31,,,,,,,,11:48:30:700,11:48:31:450,11:48:34:453,right,11:48:35:287,,,2018_Jun_07_1137,59.9600907979,MP-Perception Experiment,xx14w26,
104,training(14).mov,True,right,0,vcgpdm_dyn(10)-lvm(5)_final(4).mov,0,103,103,79,,,,,,,,11:48:36:043,11:48:36:788,11:48:39:790,left,11:48:41:009,,,2018_Jun_07_1137,59.9600907979,MP-Perception Experiment,xx14w26,
105,vcgpdm_dyn(30)-lvm(30)_final(5).mov,False,left,0,training(34).mov,0,104,104,38,,,,,,,,11:48:41:765,11:48:42:525,11:48:45:527,left,11:48:46:362,,,2018_Jun_07_1137,59.9600907979,MP-Perception Experiment,xx14w26,
106,training(38).mov,True,right,0,dmp_npsi(15)_final(8).mov,0,105,105,109,,,,,,,,11:48:47:119,11:48:47:863,11:48:50:865,right,11:48:51:499,,,2018_Jun_07_1137,59.9600907979,MP-Perception Experiment,xx14w26,
107,training(15).mov,False,right,0,vcgpdm_dyn(30)-lvm(5)_final(8).mov,0,106,106,83,,,,,,,,11:48:52:239,11:48:53:002,11:48:55:988,right,11:48:57:039,,,2018_Jun_07_1137,59.9600907979,MP-Perception Experiment,xx14w26,
108,tmp_numprim(4)_final(9).mov,False,left,0,training(16).mov,0,107,107,10,,,,,,,,11:48:57:778,11:48:58:541,11:49:01:543,left,11:49:02:227,,,2018_Jun_07_1137,59.9600907979,MP-Perception Experiment,xx14w26,
109,training(16).mov,True,right,0,map_gpdm_final(0).mov,0,108,108,87,,,,,,,,11:49:02:986,11:49:03:728,11:49:06:731,right,11:49:07:415,,,2018_Jun_07_1137,59.9600907979,MP-Perception Experiment,xx14w26,
110,vgpdm_dyn(30)-lvm(20)_final(8).mov,False,left,0,training(1).mov,0,109,109,148,,,,,,,,11:49:08:168,11:49:08:916,11:49:11:935,right,11:49:12:635,,,2018_Jun_07_1137,59.9600907979,MP-Perception Experiment,xx14w26,
111,vgpdm_dyn(35)-lvm(15)_final(2)_out_of_screen.mov,False,left,0,training(0).mov,0,110,110,93,,,,,,,,11:49:13:416,11:49:14:153,11:49:17:140,left,11:49:18:024,,,2018_Jun_07_1137,59.9600907979,MP-Perception Experiment,xx14w26,
112,vgpdm_dyn(15)-lvm(35)_final(5).mov,False,left,0,training(0).mov,0,111,111,14,,,,,,,,11:49:18:777,11:49:19:525,11:49:22:528,left,11:49:23:429,,,2018_Jun_07_1137,59.9600907979,MP-Perception Experiment,xx14w26,
113,training(18).mov,False,right,0,vgpdm_dyn(30)-lvm(35)_final(5).mov,0,112,112,36,,,,,,,,11:49:24:183,11:49:24:930,11:49:27:932,left,11:49:28:666,,,2018_Jun_07_1137,59.9600907979,MP-Perception Experiment,xx14w26,
114,training(13).mov,True,right,0,vcgpdm_dyn(25)-lvm(5)_final(6).mov,0,113,113,23,,,,,,,,11:49:29:428,11:49:30:167,11:49:33:168,left,11:49:34:086,,,2018_Jun_07_1137,59.9600907979,MP-Perception Experiment,xx14w26,
115,training(16).mov,False,right,0,vgpdm_dyn(15)-lvm(35)_final(2).mov,0,114,114,47,,,,,,,,11:49:34:850,11:49:35:604,11:49:38:590,right,11:49:39:324,,,2018_Jun_07_1137,59.9600907979,MP-Perception Experiment,xx14w26,
116,training(25).mov,True,right,0,vcgpdm_dyn(5)-lvm(15)_final(1).mov,0,115,115,50,,,,,,,,11:49:40:102,11:49:40:842,11:49:43:813,left,11:49:44:647,,,2018_Jun_07_1137,59.9600907979,MP-Perception Experiment,xx14w26,
117,training(22).mov,True,right,0,vgpdm_dyn(25)-lvm(35)_final(3).mov,0,116,116,91,,,,,,,,11:49:45:403,11:49:46:148,11:49:49:150,left,11:49:49:834,,,2018_Jun_07_1137,59.9600907979,MP-Perception Experiment,xx14w26,
118,training(20).mov,False,right,0,vcgpdm_dyn(20)-lvm(30)_final(1).mov,0,117,117,13,,,,,,,,11:49:50:589,11:49:51:336,11:49:54:339,right,11:49:55:140,,,2018_Jun_07_1137,59.9600907979,MP-Perception Experiment,xx14w26,
119,vcgpdm_dyn(20)-lvm(30)_final(8).mov,True,left,0,training(37).mov,0,118,118,103,,,,,,,,11:49:55:903,11:49:56:641,11:49:59:643,left,11:50:01:011,,,2018_Jun_07_1137,59.9600907979,MP-Perception Experiment,xx14w26,
120,training(6).mov,True,right,0,vcgpdm_dyn(25)-lvm(30)_final(2).mov,0,119,119,72,,,,,,,,11:50:01:776,11:50:02:512,11:50:05:531,right,11:50:06:615,,,2018_Jun_07_1137,59.9600907979,MP-Perception Experiment,xx14w26,
121,training(15).mov,False,right,0,vgpdm_dyn(20)-lvm(5)_final(1).mov,0,120,120,135,,,,,,,,11:50:07:368,11:50:08:133,11:50:11:120,right,11:50:12:138,,,2018_Jun_07_1137,59.9600907979,MP-Perception Experiment,xx14w26,
122,training(40).mov,True,right,0,dmp_npsi(10)_final(2)_bad.mov,0,121,121,154,,,,,,,,11:50:12:895,11:50:13:639,11:50:16:641,right,11:50:17:475,,,2018_Jun_07_1137,59.9600907979,MP-Perception Experiment,xx14w26,
123,vgpdm_dyn(30)-lvm(25)_final(9).mov,False,left,0,training(39).mov,0,122,122,37,,,,,,,,11:50:18:221,11:50:18:976,11:50:21:977,right,11:50:23:061,,,2018_Jun_07_1137,59.9600907979,MP-Perception Experiment,xx14w26,
124,training(29).mov,False,right,0,vgpdm_dyn(10)-lvm(5)_final(8).mov,0,123,123,100,,,,,,,,11:50:23:813,11:50:24:562,11:50:27:583,right,11:50:28:150,,,2018_Jun_07_1137,59.9600907979,MP-Perception Experiment,xx14w26,
125,vcgpdm_dyn(15)-lvm(25)_final(6).mov,False,left,0,training(12).mov,0,124,124,5,,,,,,,,11:50:28:905,11:50:29:668,11:50:32:653,left,11:50:33:387,,,2018_Jun_07_1137,59.9600907979,MP-Perception Experiment,xx14w26,
126,training(21).mov,False,right,0,tmp_numprim(5)_final(3).mov,0,125,125,69,,,,,,,,11:50:34:149,11:50:34:888,11:50:37:876,right,11:50:38:677,,,2018_Jun_07_1137,59.9600907979,MP-Perception Experiment,xx14w26,
127,training(12).mov,True,right,0,vcgpdm_dyn(30)-lvm(25)_final(6).mov,0,126,126,122,,,,,,,,11:50:39:438,11:50:40:178,11:50:43:180,left,11:50:43:832,,,2018_Jun_07_1137,59.9600907979,MP-Perception Experiment,xx14w26,
128,vgpdm_dyn(10)-lvm(15)_final(4).mov,True,left,0,training(28).mov,0,127,127,4,,,,,,,,11:50:44:592,11:50:45:333,11:50:48:335,left,11:50:49:019,,,2018_Jun_07_1137,59.9600907979,MP-Perception Experiment,xx14w26,
129,vcgpdm_dyn(30)-lvm(5)_final(4).mov,True,left,0,training(21).mov,0,128,128,116,,,,,,,,11:50:49:767,11:50:50:520,11:50:53:523,left,11:50:54:073,,,2018_Jun_07_1137,59.9600907979,MP-Perception Experiment,xx14w26,
130,vcgpdm_dyn(25)-lvm(10)_final(7).mov,True,left,0,training(3).mov,0,129,129,6,,,,,,,,11:50:54:820,11:50:55:574,11:50:58:577,left,11:50:59:044,,,2018_Jun_07_1137,59.9600907979,MP-Perception Experiment,xx14w26,
131,vgpdm_dyn(35)-lvm(30)_final(5).mov,False,left,0,training(26).mov,0,130,130,24,,,,,,,,11:50:59:795,11:51:00:562,11:51:03:548,left,11:51:04:766,,,2018_Jun_07_1137,59.9600907979,MP-Perception Experiment,xx14w26,
132,vcgpdm_dyn(15)-lvm(35)_final(3).mov,False,left,0,training(35).mov,0,131,131,78,,,,,,,,11:51:05:540,11:51:06:267,11:51:09:270,right,11:51:10:104,,,2018_Jun_07_1137,59.9600907979,MP-Perception Experiment,xx14w26,
133,vcgpdm_dyn(25)-lvm(15)_final(6).mov,True,left,0,training(11).mov,0,132,132,55,,,,,,,,11:51:10:875,11:51:11:620,11:51:14:606,left,11:51:15:256,,,2018_Jun_07_1137,59.9600907979,MP-Perception Experiment,xx14w26,
134,training(11).mov,True,right,0,vcgpdm_dyn(20)-lvm(30)_final(7).mov,0,133,133,142,,,,,,,,11:51:16:006,11:51:16:758,11:51:19:761,right,11:51:20:345,,,2018_Jun_07_1137,59.9600907979,MP-Perception Experiment,xx14w26,
135,training(34).mov,False,right,0,dmp_npsi(35)_final(8).mov,0,134,134,26,,,,,,,,11:51:21:106,11:51:21:846,11:51:24:850,right,11:51:25:301,,,2018_Jun_07_1137,59.9600907979,MP-Perception Experiment,xx14w26,
136,training(24).mov,False,right,0,vcgpdm_dyn(35)-lvm(25)_final(9).mov,0,135,135,140,,,,,,,,11:51:26:060,11:51:26:802,11:51:29:821,left,11:51:31:155,,,2018_Jun_07_1137,59.9600907979,MP-Perception Experiment,xx14w26,
137,vcgpdm_dyn(20)-lvm(15)_final(3).mov,False,left,0,training(36).mov,0,136,136,68,,,,,,,,11:51:31:906,11:51:32:656,11:51:35:659,right,11:51:36:277,,,2018_Jun_07_1137,59.9600907979,MP-Perception Experiment,xx14w26,
138,training(9).mov,True,right,0,map_gpdm_final(7).mov,0,137,137,123,,,,,,,,11:51:37:042,11:51:37:778,11:51:40:781,right,11:51:41:598,,,2018_Jun_07_1137,59.9600907979,MP-Perception Experiment,xx14w26,
139,training(34).mov,True,right,0,map_cgpdm_final(9).mov,0,138,138,127,,,,,,,,11:51:42:356,11:51:43:099,11:51:46:101,left,11:51:46:819,,,2018_Jun_07_1137,59.9600907979,MP-Perception Experiment,xx14w26,
140,training(19).mov,True,right,0,vgpdm_dyn(25)-lvm(20)_final(8).mov,0,139,139,40,,,,,,,,11:51:47:565,11:51:48:320,11:51:51:322,right,11:51:52:006,,,2018_Jun_07_1137,59.9600907979,MP-Perception Experiment,xx14w26,
141,vgpdm_dyn(25)-lvm(30)_final(1).mov,False,left,0,training(17).mov,0,140,140,158,,,,,,,,11:51:52:761,11:51:53:509,11:51:56:511,right,11:51:57:212,,,2018_Jun_07_1137,59.9600907979,MP-Perception Experiment,xx14w26,
142,training(14).mov,False,right,0,vcgpdm_dyn(5)-lvm(20)_final(9).mov,0,141,141,134,,,,,,,,11:51:58:157,11:51:58:729,11:52:01:714,right,11:52:03:398,,,2018_Jun_07_1137,59.9600907979,MP-Perception Experiment,xx14w26,
143,tmp_numprim(10)_final(5).mov,True,left,0,training(31).mov,0,142,142,155,,,,,,,,11:52:04:336,11:52:04:916,11:52:07:902,left,11:52:08:419,,,2018_Jun_07_1137,59.9600907979,MP-Perception Experiment,xx14w26,
144,training(23).mov,True,right,0,dmp_npsi(45)_final(3).mov,0,143,143,101,,,,,,,,11:52:09:180,11:52:09:920,11:52:12:923,left,11:52:13:541,,,2018_Jun_07_1137,59.9600907979,MP-Perception Experiment,xx14w26,
145,map_cgpdm_final(6).mov,True,left,0,training(22).mov,0,144,144,63,,,,,,,,11:52:14:285,11:52:15:059,11:52:18:046,left,11:52:18:763,,,2018_Jun_07_1137,59.9600907979,MP-Perception Experiment,xx14w26,
146,training(23).mov,False,right,0,tmp_numprim(9)_final(9).mov,0,145,145,30,,,,,,,,11:52:19:516,11:52:20:281,11:52:23:267,right,11:52:24:301,,,2018_Jun_07_1137,59.9600907979,MP-Perception Experiment,xx14w26,
147,training(36).mov,False,right,0,vcgpdm_dyn(10)-lvm(35)_final(7).mov,0,146,146,27,,,,,,,,11:52:25:062,11:52:25:819,11:52:28:806,right,11:52:29:406,,,2018_Jun_07_1137,59.9600907979,MP-Perception Experiment,xx14w26,
148,dmp_npsi(45)_final(4).mov,False,left,0,training(13).mov,0,147,147,46,,,,,,,,11:52:30:154,11:52:30:908,11:52:33:910,right,11:52:34:544,,,2018_Jun_07_1137,59.9600907979,MP-Perception Experiment,xx14w26,
149,tmp_numprim(5)_final(7).mov,True,left,0,training(40).mov,0,148,148,41,,,,,,,,11:52:35:291,11:52:36:045,11:52:39:047,left,11:52:39:615,,,2018_Jun_07_1137,59.9600907979,MP-Perception Experiment,xx14w26,
150,training(10).mov,True,right,0,vcgpdm_dyn(10)-lvm(25)_final(1).mov,0,149,149,25,,,,,,,,11:52:40:370,11:52:41:132,11:52:44:118,right,11:52:45:336,,,2018_Jun_07_1137,59.9600907979,MP-Perception Experiment,xx14w26,
151,training(20).mov,False,right,0,vcgpdm_dyn(35)-lvm(30)_final(5).mov,0,150,150,66,,,,,,,,11:52:46:080,11:52:46:838,11:52:49:857,right,11:52:50:708,,,2018_Jun_07_1137,59.9600907979,MP-Perception Experiment,xx14w26,
152,vcgpdm_dyn(5)-lvm(5)_final(4).mov,True,left,0,training(30).mov,0,151,151,2,,,,,,,,11:52:51:467,11:52:52:224,11:52:55:210,left,11:52:55:727,,,2018_Jun_07_1137,59.9600907979,MP-Perception Experiment,xx14w26,
153,training(21).mov,True,right,0,vcgpdm_dyn(20)-lvm(10)_final(0).mov,0,152,152,107,,,,,,,,11:52:56:467,11:52:57:228,11:53:00:230,right,11:53:02:716,,,2018_Jun_07_1137,59.9600907979,MP-Perception Experiment,xx14w26,
154,vgpdm_dyn(35)-lvm(35)_final(7).mov,True,left,0,training(10).mov,0,153,153,21,,,,,,,,11:53:03:651,11:53:04:220,11:53:07:205,left,11:53:07:756,,,2018_Jun_07_1137,59.9600907979,MP-Perception Experiment,xx14w26,
155,vcgpdm_dyn(35)-lvm(20)_final(9).mov,False,left,0,training(15).mov,0,154,154,152,,,,,,,,11:53:08:519,11:53:09:257,11:53:12:260,right,11:53:12:743,,,2018_Jun_07_1137,59.9600907979,MP-Perception Experiment,xx14w26,
156,training(3).mov,True,right,0,vcgpdm_dyn(15)-lvm(10)_final(5).mov,0,155,155,73,,,,,,,,11:53:13:496,11:53:14:244,11:53:17:247,right,11:53:18:581,,,2018_Jun_07_1137,59.9600907979,MP-Perception Experiment,xx14w26,
157,training(39).mov,True,right,0,vcgpdm_dyn(25)-lvm(35)_final(1).mov,0,156,156,139,,,,,,,,11:53:19:333,11:53:20:082,11:53:23:103,right,11:53:23:720,,,2018_Jun_07_1137,59.9600907979,MP-Perception Experiment,xx14w26,
158,training(35).mov,True,right,0,tmp_numprim(6)_final(6).mov,0,157,157,19,,,,,,,,11:53:24:470,11:53:25:221,11:53:28:223,left,11:53:29:124,,,2018_Jun_07_1137,59.9600907979,MP-Perception Experiment,xx14w26,
159,vcgpdm_dyn(20)-lvm(5)_final(3).mov,True,left,0,training(31).mov,0,158,158,114,,,,,,,,11:53:29:903,11:53:30:625,11:53:33:628,left,11:53:34:195,,,2018_Jun_07_1137,59.9600907979,MP-Perception Experiment,xx14w26,
160,map_cgpdm_final(3).mov,True,left,1,training(14).mov,0,0,0,118,,,,,,,,11:55:50:466,11:55:51:047,11:55:54:032,left,11:55:54:700,,,2018_Jun_07_1137,59.9600907979,MP-Perception Experiment,xx14w26,
161,training(37).mov,False,right,1,vcgpdm_dyn(25)-lvm(35)_final(1).mov,0,1,1,79,,,,,,,,11:55:55:459,11:55:56:217,11:55:59:221,right,11:56:00:055,,,2018_Jun_07_1137,59.9600907979,MP-Perception Experiment,xx14w26,
162,vgpdm_dyn(10)-lvm(25)_final(9).mov,True,left,1,training(29).mov,0,2,2,128,,,,,,,,11:56:00:989,11:56:01:556,11:56:04:558,right,11:56:05:443,,,2018_Jun_07_1137,59.9600907979,MP-Perception Experiment,xx14w26,
163,training(39).mov,True,right,1,vgpdm_dyn(5)-lvm(15)_final(3).mov,0,3,3,85,,,,,,,,11:56:06:195,11:56:06:944,11:56:09:946,right,11:56:10:397,,,2018_Jun_07_1137,59.9600907979,MP-Perception Experiment,xx14w26,
164,training(12).mov,True,right,1,vgpdm_dyn(35)-lvm(30)_final(7).mov,0,4,4,139,,,,,,,,11:56:11:142,11:56:11:914,11:56:14:898,left,11:56:15:382,,,2018_Jun_07_1137,59.9600907979,MP-Perception Experiment,xx14w26,
165,tmp_numprim(6)_final(4).mov,True,left,1,training(19).mov,0,5,5,94,,,,,,,,11:56:16:133,11:56:16:884,11:56:19:887,left,11:56:20:471,,,2018_Jun_07_1137,59.9600907979,MP-Perception Experiment,xx14w26,
166,training(1).mov,False,right,1,vcgpdm_dyn(20)-lvm(35)_final(5).mov,0,6,6,33,,,,,,,,11:56:21:247,11:56:21:972,11:56:24:974,left,11:56:25:658,,,2018_Jun_07_1137,59.9600907979,MP-Perception Experiment,xx14w26,
167,vgpdm_dyn(25)-lvm(15)_final(9)_out_of_screen.mov,True,left,1,training(17).mov,0,7,7,30,,,,,,,,11:56:26:412,11:56:27:161,11:56:30:147,left,11:56:31:315,,,2018_Jun_07_1137,59.9600907979,MP-Perception Experiment,xx14w26,
168,training(11).mov,False,right,1,tmp_numprim(4)_final(4).mov,0,8,8,23,,,,,,,,11:56:32:066,11:56:32:816,11:56:35:836,right,11:56:36:853,,,2018_Jun_07_1137,59.9600907979,MP-Perception Experiment,xx14w26,
169,vcgpdm_dyn(20)-lvm(30)_final(2).mov,True,left,1,training(7).mov,0,9,9,148,,,,,,,,11:56:37:613,11:56:38:354,11:56:41:357,left,11:56:42:158,,,2018_Jun_07_1137,59.9600907979,MP-Perception Experiment,xx14w26,
170,vcgpdm_dyn(25)-lvm(25)_final(6).mov,True,left,1,training(41).mov,0,10,10,74,,,,,,,,11:56:42:925,11:56:43:675,11:56:46:661,left,11:56:47:245,,,2018_Jun_07_1137,59.9600907979,MP-Perception Experiment,xx14w26,
171,vgpdm_dyn(25)-lvm(30)_final(7).mov,False,left,1,training(22).mov,0,11,11,129,,,,,,,,11:56:47:997,11:56:48:746,11:56:51:750,right,11:56:52:300,,,2018_Jun_07_1137,59.9600907979,MP-Perception Experiment,xx14w26,
172,training(15).mov,True,right,1,vgpdm_dyn(30)-lvm(10)_final(5).mov,0,12,12,43,,,,,,,,11:56:53:239,11:56:53:818,11:56:56:804,right,11:56:57:338,,,2018_Jun_07_1137,59.9600907979,MP-Perception Experiment,xx14w26,
173,vgpdm_dyn(20)-lvm(30)_final(0).mov,False,left,1,training(34).mov,0,13,13,35,,,,,,,,11:56:58:095,11:56:58:839,11:57:01:841,left,11:57:02:507,,,2018_Jun_07_1137,59.9600907979,MP-Perception Experiment,xx14w26,
174,training(6).mov,True,right,1,vcgpdm_dyn(15)-lvm(35)_final(2).mov,0,14,14,122,,,,,,,,11:57:03:264,11:57:04:008,11:57:07:010,left,11:57:07:694,,,2018_Jun_07_1137,59.9600907979,MP-Perception Experiment,xx14w26,
175,training(48).mov,False,right,1,vcgpdm_dyn(5)-lvm(5)_final(1).mov,0,15,15,108,,,,,,,,11:57:08:464,11:57:09:196,11:57:12:199,right,11:57:12:783,,,2018_Jun_07_1137,59.9600907979,MP-Perception Experiment,xx14w26,
176,map_gpdm_final(9).mov,False,left,1,training(34).mov,0,16,16,141,,,,,,,,11:57:13:540,11:57:14:285,11:57:17:271,left,11:57:17:939,,,2018_Jun_07_1137,59.9600907979,MP-Perception Experiment,xx14w26,
177,vgpdm_dyn(35)-lvm(35)_final(7).mov,True,left,1,training(34).mov,0,17,17,86,,,,,,,,11:57:18:709,11:57:19:456,11:57:22:442,left,11:57:23:076,,,2018_Jun_07_1137,59.9600907979,MP-Perception Experiment,xx14w26,
178,map_cgpdm_final(5).mov,True,left,1,training(11).mov,0,18,18,138,,,,,,,,11:57:24:015,11:57:24:577,11:57:27:581,left,11:57:30:283,,,2018_Jun_07_1137,59.9600907979,MP-Perception Experiment,xx14w26,
179,training(31).mov,False,right,1,vgpdm_dyn(5)-lvm(25)_final(3)_out_of_screen.mov,0,19,19,125,,,,,,,,11:57:31:054,11:57:31:801,11:57:34:786,right,11:57:35:804,,,2018_Jun_07_1137,59.9600907979,MP-Perception Experiment,xx14w26,
180,training(12).mov,True,right,1,vcgpdm_dyn(5)-lvm(15)_final(4).mov,0,20,20,27,,,,,,,,11:57:36:570,11:57:37:305,11:57:40:324,left,11:57:40:775,,,2018_Jun_07_1137,59.9600907979,MP-Perception Experiment,xx14w26,
181,vcgpdm_dyn(30)-lvm(5)_final(0).mov,False,left,1,training(36).mov,0,21,21,52,,,,,,,,11:57:41:527,11:57:42:276,11:57:45:279,left,11:57:46:013,,,2018_Jun_07_1137,59.9600907979,MP-Perception Experiment,xx14w26,
182,dmp_npsi(40)_final(7).mov,True,left,1,training(32).mov,0,22,22,133,,,,,,,,11:57:46:773,11:57:47:514,11:57:50:533,left,11:57:51:351,,,2018_Jun_07_1137,59.9600907979,MP-Perception Experiment,xx14w26,
183,dmp_npsi(50)_final(5).mov,False,left,1,training(40).mov,0,23,23,46,,,,,,,,11:57:52:097,11:57:52:867,11:57:55:853,left,11:57:56:253,,,2018_Jun_07_1137,59.9600907979,MP-Perception Experiment,xx14w26,
184,training(0).mov,True,right,1,vcgpdm_dyn(10)-lvm(20)_final(5).mov,0,24,24,158,,,,,,,,11:57:57:015,11:57:57:771,11:58:00:758,right,11:58:02:176,,,2018_Jun_07_1137,59.9600907979,MP-Perception Experiment,xx14w26,
185,vgpdm_dyn(25)-lvm(5)_final(6).mov,False,left,1,training(13).mov,0,25,25,143,,,,,,,,11:58:02:929,11:58:03:677,11:58:06:664,left,11:58:07:331,,,2018_Jun_07_1137,59.9600907979,MP-Perception Experiment,xx14w26,
186,vcgpdm_dyn(35)-lvm(30)_final(3).mov,True,left,1,training(32).mov,0,26,26,151,,,,,,,,11:58:08:082,11:58:08:833,11:58:11:835,left,11:58:12:502,,,2018_Jun_07_1137,59.9600907979,MP-Perception Experiment,xx14w26,
187,vgpdm_dyn(25)-lvm(20)_final(0).mov,False,left,1,training(19).mov,0,27,27,67,,,,,,,,11:58:13:254,11:58:14:003,11:58:17:006,left,11:58:17:757,,,2018_Jun_07_1137,59.9600907979,MP-Perception Experiment,xx14w26,
188,vcgpdm_dyn(15)-lvm(30)_final(4).mov,False,left,1,training(12).mov,0,28,28,142,,,,,,,,11:58:18:511,11:58:19:259,11:58:22:261,left,11:58:22:845,,,2018_Jun_07_1137,59.9600907979,MP-Perception Experiment,xx14w26,
189,vcgpdm_dyn(30)-lvm(30)_final(9).mov,True,left,1,training(4).mov,0,29,29,131,,,,,,,,11:58:23:597,11:58:24:346,11:58:27:349,left,11:58:27:799,,,2018_Jun_07_1137,59.9600907979,MP-Perception Experiment,xx14w26,
190,vcgpdm_dyn(25)-lvm(10)_final(2).mov,False,left,1,training(37).mov,0,30,30,93,,,,,,,,11:58:28:547,11:58:29:300,11:58:32:303,right,11:58:33:787,,,2018_Jun_07_1137,59.9600907979,MP-Perception Experiment,xx14w26,
191,vgpdm_dyn(15)-lvm(35)_final(1).mov,False,left,1,training(29).mov,0,31,31,16,,,,,,,,11:58:34:714,11:58:35:288,11:58:38:292,left,11:58:38:942,,,2018_Jun_07_1137,59.9600907979,MP-Perception Experiment,xx14w26,
192,vcgpdm_dyn(5)-lvm(5)_final(8).mov,False,left,1,training(12).mov,0,32,32,34,,,,,,,,11:58:39:904,11:58:40:443,11:58:43:444,left,11:58:44:095,,,2018_Jun_07_1137,59.9600907979,MP-Perception Experiment,xx14w26,
193,training(39).mov,False,right,1,vcgpdm_dyn(5)-lvm(15)_final(5).mov,0,33,33,136,,,,,,,,11:58:44:856,11:58:45:596,11:58:48:598,right,11:58:49:132,,,2018_Jun_07_1137,59.9600907979,MP-Perception Experiment,xx14w26,
194,training(6).mov,True,right,1,vcgpdm_dyn(10)-lvm(25)_final(9).mov,0,34,34,83,,,,,,,,11:58:49:895,11:58:50:633,11:58:53:637,left,11:58:55:473,,,2018_Jun_07_1137,59.9600907979,MP-Perception Experiment,xx14w26,
195,vgpdm_dyn(10)-lvm(30)_final(4).mov,False,left,1,training(21).mov,0,35,35,111,,,,,,,,11:58:56:214,11:58:56:974,11:58:59:994,left,11:59:00:861,,,2018_Jun_07_1137,59.9600907979,MP-Perception Experiment,xx14w26,
196,vgpdm_dyn(10)-lvm(20)_final(2).mov,True,left,1,training(24).mov,0,36,36,82,,,,,,,,11:59:01:605,11:59:02:362,11:59:05:364,right,11:59:06:215,,,2018_Jun_07_1137,59.9600907979,MP-Perception Experiment,xx14w26,
197,vcgpdm_dyn(35)-lvm(10)_final(3).mov,True,left,1,training(27).mov,0,37,37,119,,,,,,,,11:59:06:965,11:59:07:716,11:59:10:720,left,11:59:11:270,,,2018_Jun_07_1137,59.9600907979,MP-Perception Experiment,xx14w26,
198,vcgpdm_dyn(15)-lvm(20)_final(3).mov,False,left,1,training(29).mov,0,38,38,12,,,,,,,,11:59:12:027,11:59:12:771,11:59:15:790,left,11:59:16:358,,,2018_Jun_07_1137,59.9600907979,MP-Perception Experiment,xx14w26,
199,dmp_npsi(45)_final(3).mov,True,left,1,training(9).mov,0,39,39,97,,,,,,,,11:59:17:112,11:59:17:859,11:59:20:878,left,11:59:21:495,,,2018_Jun_07_1137,59.9600907979,MP-Perception Experiment,xx14w26,
200,vgpdm_dyn(25)-lvm(35)_final(1).mov,True,left,1,training(32).mov,0,40,40,28,,,,,,,,11:59:22:243,11:59:22:996,11:59:26:015,right,11:59:26:733,,,2018_Jun_07_1137,59.9600907979,MP-Perception Experiment,xx14w26,
201,vcgpdm_dyn(35)-lvm(10)_final(9).mov,True,left,1,training(9).mov,0,41,41,47,,,,,,,,11:59:27:737,11:59:28:251,11:59:31:237,left,11:59:31:788,,,2018_Jun_07_1137,59.9600907979,MP-Perception Experiment,xx14w26,
202,vgpdm_dyn(20)-lvm(25)_final(8).mov,True,left,1,training(0).mov,0,42,42,66,,,,,,,,11:59:32:587,11:59:33:304,11:59:36:306,left,11:59:36:757,,,2018_Jun_07_1137,59.9600907979,MP-Perception Experiment,xx14w26,
203,vcgpdm_dyn(10)-lvm(35)_final(6).mov,True,left,1,training(32).mov,0,43,43,45,,,,,,,,11:59:37:519,11:59:38:258,11:59:41:260,left,11:59:41:894,,,2018_Jun_07_1137,59.9600907979,MP-Perception Experiment,xx14w26,
204,training(12).mov,False,right,1,vgpdm_dyn(15)-lvm(25)_final(8).mov,0,44,44,101,,,,,,,,11:59:42:642,11:59:43:395,11:59:46:384,left,11:59:46:884,,,2018_Jun_07_1137,59.9600907979,MP-Perception Experiment,xx14w26,
205,vcgpdm_dyn(30)-lvm(25)_final(2).mov,True,left,1,training(18).mov,0,45,45,1,,,,,,,,11:59:47:647,11:59:48:402,11:59:51:388,left,11:59:52:189,,,2018_Jun_07_1137,59.9600907979,MP-Perception Experiment,xx14w26,
206,training(17).mov,False,right,1,tmp_numprim(3)_final(6).mov,0,46,46,22,,,,,,,,11:59:53:051,11:59:53:690,11:59:56:692,right,11:59:57:193,,,2018_Jun_07_1137,59.9600907979,MP-Perception Experiment,xx14w26,
207,vgpdm_dyn(20)-lvm(35)_final(0).mov,True,left,1,training(17).mov,0,47,47,89,,,,,,,,11:59:57:960,11:59:58:694,12:00:01:713,left,12:00:02:514,,,2018_Jun_07_1137,59.9600907979,MP-Perception Experiment,xx14w26,
208,training(33).mov,True,right,1,vgpdm_dyn(20)-lvm(30)_final(7).mov,0,48,48,121,,,,,,,,12:00:03:252,12:00:04:016,12:00:07:018,right,12:00:07:619,,,2018_Jun_07_1137,59.9600907979,MP-Perception Experiment,xx14w26,
209,training(13).mov,False,right,1,tmp_numprim(5)_final(9).mov,0,49,49,91,,,,,,,,12:00:08:361,12:00:09:120,12:00:12:122,right,12:00:12:556,,,2018_Jun_07_1137,59.9600907979,MP-Perception Experiment,xx14w26,
210,vcgpdm_dyn(10)-lvm(30)_final(0).mov,False,left,1,training(4).mov,0,50,50,81,,,,,,,,12:00:13:307,12:00:14:057,12:00:17:076,left,12:00:17:861,,,2018_Jun_07_1137,59.9600907979,MP-Perception Experiment,xx14w26,
211,vcgpdm_dyn(25)-lvm(20)_final(3).mov,True,left,1,training(24).mov,0,51,51,132,,,,,,,,12:00:18:617,12:00:19:361,12:00:22:380,right,12:00:23:114,,,2018_Jun_07_1137,59.9600907979,MP-Perception Experiment,xx14w26,
212,vcgpdm_dyn(5)-lvm(25)_final(8).mov,True,left,1,training(21).mov,0,52,52,2,,,,,,,,12:00:23:873,12:00:24:615,12:00:27:617,left,12:00:28:268,,,2018_Jun_07_1137,59.9600907979,MP-Perception Experiment,xx14w26,
213,training(28).mov,True,right,1,vgpdm_dyn(20)-lvm(35)_final(5).mov,0,53,53,54,,,,,,,,12:00:29:011,12:00:29:769,12:00:32:772,right,12:00:33:322,,,2018_Jun_07_1137,59.9600907979,MP-Perception Experiment,xx14w26,
214,vcgpdm_dyn(5)-lvm(25)_final(1).mov,True,left,1,training(3).mov,0,54,54,134,,,,,,,,12:00:34:084,12:00:34:825,12:00:37:812,right,12:00:39:597,,,2018_Jun_07_1137,59.9600907979,MP-Perception Experiment,xx14w26,
215,vgpdm_dyn(30)-lvm(15)_final(2).mov,False,left,1,training(13).mov,0,55,55,156,,,,,,,,12:00:40:357,12:00:41:098,12:00:44:100,right,12:00:44:767,,,2018_Jun_07_1137,59.9600907979,MP-Perception Experiment,xx14w26,
216,training(6).mov,True,right,1,tmp_numprim(2)_final(2).mov,0,56,56,70,,,,,,,,12:00:45:524,12:00:46:268,12:00:49:271,right,12:00:50:039,,,2018_Jun_07_1137,59.9600907979,MP-Perception Experiment,xx14w26,
217,training(23).mov,True,right,1,vgpdm_dyn(25)-lvm(20)_final(3).mov,0,57,57,39,,,,,,,,12:00:50:801,12:00:51:556,12:00:54:559,right,12:00:55:661,,,2018_Jun_07_1137,59.9600907979,MP-Perception Experiment,xx14w26,
218,vgpdm_dyn(30)-lvm(10)_final(4).mov,True,left,1,training(37).mov,0,58,58,0,,,,,,,,12:00:56:418,12:00:57:162,12:01:00:164,left,12:01:00:565,,,2018_Jun_07_1137,59.9600907979,MP-Perception Experiment,xx14w26,
219,training(17).mov,False,right,1,vcgpdm_dyn(5)-lvm(25)_final(1).mov,0,59,59,130,,,,,,,,12:01:01:315,12:01:02:066,12:01:05:085,right,12:01:05:652,,,2018_Jun_07_1137,59.9600907979,MP-Perception Experiment,xx14w26,
220,training(2).mov,False,right,1,vcgpdm_dyn(35)-lvm(30)_final(7).mov,0,60,60,50,,,,,,,,12:01:06:404,12:01:07:153,12:01:10:172,left,12:01:10:606,,,2018_Jun_07_1137,59.9600907979,MP-Perception Experiment,xx14w26,
221,vgpdm_dyn(10)-lvm(20)_final(2).mov,False,left,1,training(27).mov,0,61,61,103,,,,,,,,12:01:11:391,12:01:12:107,12:01:15:109,left,12:01:15:693,,,2018_Jun_07_1137,59.9600907979,MP-Perception Experiment,xx14w26,
222,training(1).mov,False,right,1,tmp_numprim(6)_final(1).mov,0,62,62,7,,,,,,,,12:01:16:441,12:01:17:194,12:01:20:196,left,12:01:20:597,,,2018_Jun_07_1137,59.9600907979,MP-Perception Experiment,xx14w26,
223,vcgpdm_dyn(10)-lvm(5)_final(9).mov,False,left,1,training(2).mov,0,63,63,144,,,,,,,,12:01:21:356,12:01:22:098,12:01:25:085,left,12:01:25:702,,,2018_Jun_07_1137,59.9600907979,MP-Perception Experiment,xx14w26,
224,tmp_numprim(7)_final(6).mov,False,left,1,training(8).mov,0,64,64,90,,,,,,,,12:01:26:462,12:01:27:204,12:01:30:207,left,12:01:30:741,,,2018_Jun_07_1137,59.9600907979,MP-Perception Experiment,xx14w26,
225,training(19).mov,False,right,1,vgpdm_dyn(15)-lvm(15)_final(5).mov,0,65,65,137,,,,,,,,12:01:31:504,12:01:32:242,12:01:35:244,right,12:01:35:728,,,2018_Jun_07_1137,59.9600907979,MP-Perception Experiment,xx14w26,
226,vcgpdm_dyn(20)-lvm(10)_final(9).mov,False,left,1,training(39).mov,0,66,66,55,,,,,,,,12:01:36:500,12:01:37:229,12:01:40:232,left,12:01:40:766,,,2018_Jun_07_1137,59.9600907979,MP-Perception Experiment,xx14w26,
227,training(40).mov,True,right,1,vgpdm_dyn(35)-lvm(25)_final(3).mov,0,67,67,76,,,,,,,,12:01:41:521,12:01:42:267,12:01:45:269,left,12:01:45:836,,,2018_Jun_07_1137,59.9600907979,MP-Perception Experiment,xx14w26,
228,training(34).mov,False,right,1,vcgpdm_dyn(10)-lvm(15)_final(8).mov,0,68,68,150,,,,,,,,12:01:46:607,12:01:47:337,12:01:50:341,right,12:01:50:808,,,2018_Jun_07_1137,59.9600907979,MP-Perception Experiment,xx14w26,
229,training(5).mov,False,right,1,vcgpdm_dyn(15)-lvm(10)_final(9).mov,0,69,69,51,,,,,,,,12:01:51:564,12:01:52:309,12:01:55:328,right,12:01:55:979,,,2018_Jun_07_1137,59.9600907979,MP-Perception Experiment,xx14w26,
230,training(10).mov,True,right,1,vgpdm_dyn(30)-lvm(25)_final(5).mov,0,70,70,13,,,,,,,,12:01:56:749,12:01:57:497,12:02:00:482,left,12:02:01:083,,,2018_Jun_07_1137,59.9600907979,MP-Perception Experiment,xx14w26,
231,training(22).mov,False,right,1,tmp_numprim(4)_final(2).mov,0,71,71,59,,,,,,,,12:02:01:845,12:02:02:599,12:02:05:586,right,12:02:06:003,,,2018_Jun_07_1137,59.9600907979,MP-Perception Experiment,xx14w26,
232,training(11).mov,True,right,1,vcgpdm_dyn(15)-lvm(30)_final(6).mov,0,72,72,126,,,,,,,,12:02:06:764,12:02:07:504,12:02:10:506,right,12:02:10:857,,,2018_Jun_07_1137,59.9600907979,MP-Perception Experiment,xx14w26,
233,training(34).mov,False,right,1,vcgpdm_dyn(25)-lvm(15)_final(3).mov,0,73,73,8,,,,,,,,12:02:11:619,12:02:12:375,12:02:15:362,right,12:02:15:913,,,2018_Jun_07_1137,59.9600907979,MP-Perception Experiment,xx14w26,
234,training(28).mov,True,right,1,dmp_npsi(25)_final(4).mov,0,74,74,77,,,,,,,,12:02:16:664,12:02:17:414,12:02:20:416,right,12:02:20:850,,,2018_Jun_07_1137,59.9600907979,MP-Perception Experiment,xx14w26,
235,training(11).mov,True,right,1,vgpdm_dyn(15)-lvm(25)_final(6).mov,0,75,75,62,,,,,,,,12:02:21:602,12:02:22:368,12:02:25:371,left,12:02:25:805,,,2018_Jun_07_1137,59.9600907979,MP-Perception Experiment,xx14w26,
236,vcgpdm_dyn(30)-lvm(20)_final(0).mov,False,left,1,training(22).mov,0,76,76,98,,,,,,,,12:02:26:584,12:02:27:306,12:02:30:326,right,12:02:31:143,,,2018_Jun_07_1137,59.9600907979,MP-Perception Experiment,xx14w26,
237,training(15).mov,True,right,1,vgpdm_dyn(5)-lvm(15)_final(4).mov,0,77,77,19,,,,,,,,12:02:31:894,12:02:32:644,12:02:35:646,right,12:02:36:247,,,2018_Jun_07_1137,59.9600907979,MP-Perception Experiment,xx14w26,
238,vcgpdm_dyn(30)-lvm(35)_final(7).mov,False,left,1,training(33).mov,0,78,78,57,,,,,,,,12:02:36:995,12:02:37:748,12:02:40:751,left,12:02:41:519,,,2018_Jun_07_1137,59.9600907979,MP-Perception Experiment,xx14w26,
239,training(1).mov,False,right,1,vcgpdm_dyn(35)-lvm(10)_final(1).mov,0,79,79,123,,,,,,,,12:02:42:287,12:02:43:020,12:02:46:022,right,12:02:46:556,,,2018_Jun_07_1137,59.9600907979,MP-Perception Experiment,xx14w26,
240,vgpdm_dyn(35)-lvm(30)_final(0).mov,True,left,1,training(48).mov,0,80,80,146,,,,,,,,12:02:47:319,12:02:48:074,12:02:51:059,right,12:02:51:844,,,2018_Jun_07_1137,59.9600907979,MP-Perception Experiment,xx14w26,
241,training(24).mov,True,right,1,vgpdm_dyn(10)-lvm(5)_final(0).mov,0,81,81,14,,,,,,,,12:02:52:606,12:02:53:360,12:02:56:345,right,12:02:57:063,,,2018_Jun_07_1137,59.9600907979,MP-Perception Experiment,xx14w26,
242,vgpdm_dyn(30)-lvm(10)_final(8).mov,False,left,1,training(2).mov,0,82,82,18,,,,,,,,12:02:57:831,12:02:58:565,12:03:01:567,left,12:03:01:934,,,2018_Jun_07_1137,59.9600907979,MP-Perception Experiment,xx14w26,
243,training(16).mov,True,right,1,vcgpdm_dyn(10)-lvm(20)_final(3).mov,0,83,83,157,,,,,,,,12:03:02:679,12:03:03:436,12:03:06:423,right,12:03:07:291,,,2018_Jun_07_1137,59.9600907979,MP-Perception Experiment,xx14w26,
244,training(36).mov,True,right,1,vgpdm_dyn(30)-lvm(30)_final(5).mov,0,84,84,36,,,,,,,,12:03:08:059,12:03:08:808,12:03:11:794,right,12:03:12:195,,,2018_Jun_07_1137,59.9600907979,MP-Perception Experiment,xx14w26,
245,training(27).mov,True,right,1,vcgpdm_dyn(15)-lvm(25)_final(1).mov,0,85,85,10,,,,,,,,12:03:12:957,12:03:13:696,12:03:16:699,left,12:03:17:400,,,2018_Jun_07_1137,59.9600907979,MP-Perception Experiment,xx14w26,
246,training(10).mov,True,right,1,dmp_npsi(20)_final(3).mov,0,86,86,115,,,,,,,,12:03:18:336,12:03:18:901,12:03:21:903,right,12:03:22:754,,,2018_Jun_07_1137,59.9600907979,MP-Perception Experiment,xx14w26,
247,vgpdm_dyn(30)-lvm(15)_final(7).mov,False,left,1,training(24).mov,0,87,87,24,,,,,,,,12:03:23:510,12:03:24:272,12:03:27:258,right,12:03:27:991,,,2018_Jun_07_1137,59.9600907979,MP-Perception Experiment,xx14w26,
248,tmp_numprim(3)_final(0).mov,True,left,1,training(13).mov,0,88,88,9,,,,,,,,12:03:28:770,12:03:29:493,12:03:32:495,left,12:03:33:647,,,2018_Jun_07_1137,59.9600907979,MP-Perception Experiment,xx14w26,
249,vcgpdm_dyn(20)-lvm(5)_final(9).mov,True,left,1,training(11).mov,0,89,89,38,,,,,,,,12:03:34:403,12:03:35:148,12:03:38:167,left,12:03:38:751,,,2018_Jun_07_1137,59.9600907979,MP-Perception Experiment,xx14w26,
250,vgpdm_dyn(5)-lvm(10)_final(7).mov,True,left,1,training(40).mov,0,90,90,6,,,,,,,,12:03:39:516,12:03:40:269,12:03:43:253,left,12:03:44:104,,,2018_Jun_07_1137,59.9600907979,MP-Perception Experiment,xx14w26,
251,training(33).mov,False,right,1,vcgpdm_dyn(10)-lvm(20)_final(8).mov,0,91,91,135,,,,,,,,12:03:44:877,12:03:45:605,12:03:48:607,right,12:03:49:175,,,2018_Jun_07_1137,59.9600907979,MP-Perception Experiment,xx14w26,
252,vcgpdm_dyn(15)-lvm(10)_final(8).mov,True,left,1,training(21).mov,0,92,92,110,,,,,,,,12:03:49:938,12:03:50:677,12:03:53:679,left,12:03:54:213,,,2018_Jun_07_1137,59.9600907979,MP-Perception Experiment,xx14w26,
253,map_gpdm_final(5).mov,True,left,1,training(22).mov,0,93,93,120,,,,,,,,12:03:54:983,12:03:55:714,12:03:58:718,left,12:03:59:335,,,2018_Jun_07_1137,59.9600907979,MP-Perception Experiment,xx14w26,
254,vcgpdm_dyn(10)-lvm(25)_final(7).mov,True,left,1,training(12).mov,0,94,94,3,,,,,,,,12:04:00:093,12:04:00:853,12:04:03:839,left,12:04:04:390,,,2018_Jun_07_1137,59.9600907979,MP-Perception Experiment,xx14w26,
255,training(22).mov,True,right,1,tmp_numprim(4)_final(8).mov,0,95,95,37,,,,,,,,12:04:05:152,12:04:05:907,12:04:08:894,right,12:04:09:361,,,2018_Jun_07_1137,59.9600907979,MP-Perception Experiment,xx14w26,
256,vgpdm_dyn(35)-lvm(5)_final(7).mov,True,left,1,training(11).mov,0,96,96,53,,,,,,,,12:04:10:128,12:04:10:862,12:04:13:865,left,12:04:14:315,,,2018_Jun_07_1137,59.9600907979,MP-Perception Experiment,xx14w26,
257,vgpdm_dyn(5)-lvm(20)_final(6).mov,True,left,1,training(26).mov,0,97,97,21,,,,,,,,12:04:15:086,12:04:15:833,12:04:18:836,left,12:04:19:303,,,2018_Jun_07_1137,59.9600907979,MP-Perception Experiment,xx14w26,
258,training(9).mov,True,right,1,tmp_numprim(10)_final(5).mov,0,98,98,20,,,,,,,,12:04:20:057,12:04:20:804,12:04:23:873,right,12:04:24:440,,,2018_Jun_07_1137,59.9600907979,MP-Perception Experiment,xx14w26,
259,training(12).mov,True,right,1,vgpdm_dyn(15)-lvm(30)_final(3).mov,0,99,99,117,,,,,,,,12:04:25:204,12:04:25:942,12:04:28:945,left,12:04:29:378,,,2018_Jun_07_1137,59.9600907979,MP-Perception Experiment,xx14w26,
260,training(6).mov,False,right,1,vgpdm_dyn(35)-lvm(10)_final(0).mov,0,100,100,78,,,,,,,,12:04:30:130,12:04:30:879,12:04:33:880,left,12:04:34:398,,,2018_Jun_07_1137,59.9600907979,MP-Perception Experiment,xx14w26,
261,vcgpdm_dyn(30)-lvm(30)_final(9).mov,True,left,1,training(24).mov,0,101,101,92,,,,,,,,12:04:35:148,12:04:35:898,12:04:38:901,left,12:04:39:468,,,2018_Jun_07_1137,59.9600907979,MP-Perception Experiment,xx14w26,
262,dmp_npsi(30)_final(6).mov,True,left,1,training(36).mov,0,102,102,73,,,,,,,,12:04:40:403,12:04:40:969,12:04:43:958,left,12:04:44:358,,,2018_Jun_07_1137,59.9600907979,MP-Perception Experiment,xx14w26,
263,training(8).mov,False,right,1,vcgpdm_dyn(35)-lvm(20)_final(1).mov,0,103,103,109,,,,,,,,12:04:45:110,12:04:45:859,12:04:48:862,right,12:04:49:429,,,2018_Jun_07_1137,59.9600907979,MP-Perception Experiment,xx14w26,
264,vcgpdm_dyn(25)-lvm(15)_final(1).mov,True,left,1,training(16).mov,0,104,104,15,,,,,,,,12:04:50:200,12:04:50:930,12:04:53:933,right,12:04:54:450,,,2018_Jun_07_1137,59.9600907979,MP-Perception Experiment,xx14w26,
265,vcgpdm_dyn(10)-lvm(15)_final(6).mov,False,left,1,training(20).mov,0,105,105,29,,,,,,,,12:04:55:197,12:04:55:951,12:04:58:953,left,12:04:59:437,,,2018_Jun_07_1137,59.9600907979,MP-Perception Experiment,xx14w26,
266,vcgpdm_dyn(20)-lvm(20)_final(3).mov,False,left,1,training(18).mov,0,106,106,72,,,,,,,,12:05:00:198,12:05:00:939,12:05:03:941,left,12:05:04:442,,,2018_Jun_07_1137,59.9600907979,MP-Perception Experiment,xx14w26,
267,training(23).mov,False,right,1,tmp_numprim(6)_final(2).mov,0,107,107,96,,,,,,,,12:05:05:198,12:05:05:943,12:05:08:946,left,12:05:09:563,,,2018_Jun_07_1137,59.9600907979,MP-Perception Experiment,xx14w26,
268,vgpdm_dyn(30)-lvm(25)_final(1).mov,True,left,1,training(28).mov,0,108,108,44,,,,,,,,12:05:10:327,12:05:11:064,12:05:14:066,left,12:05:15:101,,,2018_Jun_07_1137,59.9600907979,MP-Perception Experiment,xx14w26,
269,vcgpdm_dyn(25)-lvm(5)_final(8).mov,False,left,1,training(13).mov,0,109,109,11,,,,,,,,12:05:15:862,12:05:16:602,12:05:19:605,left,12:05:20:239,,,2018_Jun_07_1137,59.9600907979,MP-Perception Experiment,xx14w26,
270,training(16).mov,True,right,1,vcgpdm_dyn(10)-lvm(5)_final(8).mov,0,110,110,127,,,,,,,,12:05:20:992,12:05:21:740,12:05:24:741,right,12:05:25:141,,,2018_Jun_07_1137,59.9600907979,MP-Perception Experiment,xx14w26,
271,vgpdm_dyn(25)-lvm(35)_final(0).mov,False,left,1,training(7).mov,0,111,111,49,,,,,,,,12:05:25:897,12:05:26:642,12:05:29:645,left,12:05:30:012,,,2018_Jun_07_1137,59.9600907979,MP-Perception Experiment,xx14w26,
272,training(41).mov,True,right,1,vgpdm_dyn(10)-lvm(25)_final(3).mov,0,112,112,26,,,,,,,,12:05:30:774,12:05:31:513,12:05:34:501,right,12:05:34:985,,,2018_Jun_07_1137,59.9600907979,MP-Perception Experiment,xx14w26,
273,training(28).mov,False,right,1,vgpdm_dyn(35)-lvm(25)_final(4).mov,0,113,113,64,,,,,,,,12:05:35:753,12:05:36:503,12:05:39:489,right,12:05:40:106,,,2018_Jun_07_1137,59.9600907979,MP-Perception Experiment,xx14w26,
274,vcgpdm_dyn(15)-lvm(25)_final(7).mov,True,left,1,training(48).mov,0,114,114,104,,,,,,,,12:05:40:879,12:05:41:607,12:05:44:610,left,12:05:45:294,,,2018_Jun_07_1137,59.9600907979,MP-Perception Experiment,xx14w26,
275,training(38).mov,True,right,1,vcgpdm_dyn(35)-lvm(30)_final(7).mov,0,115,115,25,,,,,,,,12:05:46:045,12:05:46:795,12:05:49:947,right,12:05:50:581,,,2018_Jun_07_1137,59.9600907979,MP-Perception Experiment,xx14w26,
276,tmp_numprim(9)_final(9).mov,True,left,1,training(16).mov,0,116,116,140,,,,,,,,12:05:51:342,12:05:52:099,12:05:55:102,left,12:05:56:771,,,2018_Jun_07_1137,59.9600907979,MP-Perception Experiment,xx14w26,
277,vgpdm_dyn(20)-lvm(25)_final(2).mov,False,left,1,training(3).mov,0,117,117,48,,,,,,,,12:05:57:703,12:05:58:272,12:06:01:274,right,12:06:01:675,,,2018_Jun_07_1137,59.9600907979,MP-Perception Experiment,xx14w26,
278,vgpdm_dyn(30)-lvm(30)_final(8).mov,False,left,1,training(6).mov,0,118,118,5,,,,,,,,12:06:02:449,12:06:03:192,12:06:06:178,right,12:06:06:745,,,2018_Jun_07_1137,59.9600907979,MP-Perception Experiment,xx14w26,
279,training(30).mov,False,right,1,vgpdm_dyn(20)-lvm(20)_final(0).mov,0,119,119,152,,,,,,,,12:06:07:499,12:06:08:246,12:06:11:250,right,12:06:11:733,,,2018_Jun_07_1137,59.9600907979,MP-Perception Experiment,xx14w26,
280,vgpdm_dyn(15)-lvm(30)_final(1).mov,False,left,1,training(13).mov,0,120,120,41,,,,,,,,12:06:12:496,12:06:13:250,12:06:16:235,left,12:06:16:786,,,2018_Jun_07_1137,59.9600907979,MP-Perception Experiment,xx14w26,
281,training(7).mov,False,right,1,dmp_npsi(35)_final(9).mov,0,121,121,75,,,,,,,,12:06:17:554,12:06:18:287,12:06:21:290,left,12:06:21:807,,,2018_Jun_07_1137,59.9600907979,MP-Perception Experiment,xx14w26,
282,training(25).mov,False,right,1,vgpdm_dyn(20)-lvm(5)_final(9).mov,0,122,122,17,,,,,,,,12:06:22:575,12:06:23:308,12:06:26:295,right,12:06:26:696,,,2018_Jun_07_1137,59.9600907979,MP-Perception Experiment,xx14w26,
283,tmp_numprim(10)_final(2).mov,False,left,1,training(37).mov,0,123,123,99,,,,,,,,12:06:27:745,12:06:28:248,12:06:31:200,right,12:06:31:784,,,2018_Jun_07_1137,59.9600907979,MP-Perception Experiment,xx14w26,
284,vcgpdm_dyn(35)-lvm(25)_final(0).mov,True,left,1,training(23).mov,0,124,124,58,,,,,,,,12:06:32:536,12:06:33:285,12:06:36:304,left,12:06:36:838,,,2018_Jun_07_1137,59.9600907979,MP-Perception Experiment,xx14w26,
285,vcgpdm_dyn(20)-lvm(20)_final(9).mov,False,left,1,training(30).mov,0,125,125,68,,,,,,,,12:06:37:596,12:06:38:339,12:06:41:342,left,12:06:41:993,,,2018_Jun_07_1137,59.9600907979,MP-Perception Experiment,xx14w26,
286,training(6).mov,False,right,1,tmp_numprim(3)_final(5).mov,0,126,126,105,,,,,,,,12:06:42:740,12:06:43:494,12:06:46:497,right,12:06:46:931,,,2018_Jun_07_1137,59.9600907979,MP-Perception Experiment,xx14w26,
287,dmp_npsi(50)_final(2).mov,True,left,1,training(7).mov,0,127,127,112,,,,,,,,12:06:47:700,12:06:48:432,12:06:51:434,right,12:06:51:885,,,2018_Jun_07_1137,59.9600907979,MP-Perception Experiment,xx14w26,
288,vcgpdm_dyn(30)-lvm(35)_final(9).mov,True,left,1,training(39).mov,0,128,128,65,,,,,,,,12:06:52:643,12:06:53:386,12:06:56:388,left,12:06:57:006,,,2018_Jun_07_1137,59.9600907979,MP-Perception Experiment,xx14w26,
289,map_cgpdm_final(2).mov,True,left,1,training(39).mov,0,129,129,106,,,,,,,,12:06:57:779,12:06:58:507,12:07:01:509,left,12:07:02:143,,,2018_Jun_07_1137,59.9600907979,MP-Perception Experiment,xx14w26,
290,vgpdm_dyn(30)-lvm(20)_final(4).mov,True,left,1,training(15).mov,0,130,130,71,,,,,,,,12:07:02:916,12:07:03:660,12:07:06:646,left,12:07:07:263,,,2018_Jun_07_1137,59.9600907979,MP-Perception Experiment,xx14w26,
291,training(33).mov,True,right,1,vgpdm_dyn(30)-lvm(5)_final(8).mov,0,131,131,107,,,,,,,,12:07:08:031,12:07:08:764,12:07:11:767,right,12:07:12:134,,,2018_Jun_07_1137,59.9600907979,MP-Perception Experiment,xx14w26,
292,vgpdm_dyn(30)-lvm(35)_final(5).mov,True,left,1,training(36).mov,0,132,132,61,,,,,,,,12:07:12:878,12:07:13:635,12:07:16:622,left,12:07:16:989,,,2018_Jun_07_1137,59.9600907979,MP-Perception Experiment,xx14w26,
293,vgpdm_dyn(20)-lvm(25)_final(2).mov,False,left,1,training(8).mov,0,133,133,102,,,,,,,,12:07:17:735,12:07:18:490,12:07:21:494,left,12:07:21:928,,,2018_Jun_07_1137,59.9600907979,MP-Perception Experiment,xx14w26,
294,vgpdm_dyn(15)-lvm(25)_final(2).mov,False,left,1,training(15).mov,0,134,134,88,,,,,,,,12:07:22:885,12:07:23:429,12:07:26:431,right,12:07:26:882,,,2018_Jun_07_1137,59.9600907979,MP-Perception Experiment,xx14w26,
295,tmp_numprim(2)_final(1).mov,True,left,1,training(19).mov,0,135,135,124,,,,,,,,12:07:27:831,12:07:28:383,12:07:31:386,left,12:07:31:802,,,2018_Jun_07_1137,59.9600907979,MP-Perception Experiment,xx14w26,
296,training(36).mov,True,right,1,vgpdm_dyn(10)-lvm(15)_final(4).mov,0,136,136,56,,,,,,,,12:07:32:566,12:07:33:303,12:07:36:306,right,12:07:36:773,,,2018_Jun_07_1137,59.9600907979,MP-Perception Experiment,xx14w26,
297,training(30).mov,True,right,1,vgpdm_dyn(10)-lvm(10)_final(0).mov,0,137,137,63,,,,,,,,12:07:37:728,12:07:38:275,12:07:41:277,right,12:07:41:778,,,2018_Jun_07_1137,59.9600907979,MP-Perception Experiment,xx14w26,
298,vcgpdm_dyn(10)-lvm(15)_final(7).mov,False,left,1,training(23).mov,0,138,138,40,,,,,,,,12:07:42:546,12:07:43:296,12:07:46:282,right,12:07:46:665,,,2018_Jun_07_1137,59.9600907979,MP-Perception Experiment,xx14w26,
299,training(18).mov,True,right,1,dmp_npsi(40)_final(9).mov,0,139,139,84,,,,,,,,12:07:47:421,12:07:48:166,12:07:51:169,right,12:07:51:720,,,2018_Jun_07_1137,59.9600907979,MP-Perception Experiment,xx14w26,
300,training(6).mov,False,right,1,vgpdm_dyn(5)-lvm(20)_final(8).mov,0,140,140,87,,,,,,,,12:07:52:482,12:07:53:220,12:07:56:222,right,12:07:56:606,,,2018_Jun_07_1137,59.9600907979,MP-Perception Experiment,xx14w26,
301,vgpdm_dyn(5)-lvm(15)_final(3).mov,True,left,1,training(39).mov,0,141,141,145,,,,,,,,12:07:57:359,12:07:58:107,12:08:01:109,left,12:08:01:410,,,2018_Jun_07_1137,59.9600907979,MP-Perception Experiment,xx14w26,
302,training(23).mov,False,right,1,vgpdm_dyn(20)-lvm(5)_final(4).mov,0,142,142,32,,,,,,,,12:08:02:158,12:08:02:911,12:08:05:913,left,12:08:06:364,,,2018_Jun_07_1137,59.9600907979,MP-Perception Experiment,xx14w26,
303,training(27).mov,True,right,1,vcgpdm_dyn(15)-lvm(15)_final(3).mov,0,143,143,69,,,,,,,,12:08:07:117,12:08:07:867,12:08:10:869,left,12:08:11:553,,,2018_Jun_07_1137,59.9600907979,MP-Perception Experiment,xx14w26,
304,training(21).mov,False,right,1,dmp_npsi(30)_final(3).mov,0,144,144,147,,,,,,,,12:08:12:485,12:08:13:055,12:08:16:074,right,12:08:16:675,,,2018_Jun_07_1137,59.9600907979,MP-Perception Experiment,xx14w26,
305,training(33).mov,False,right,1,vcgpdm_dyn(25)-lvm(25)_final(8).mov,0,145,145,154,,,,,,,,12:08:17:436,12:08:18:176,12:08:21:178,right,12:08:21:829,,,2018_Jun_07_1137,59.9600907979,MP-Perception Experiment,xx14w26,
306,training(17).mov,False,right,1,vgpdm_dyn(10)-lvm(5)_final(3).mov,0,146,146,95,,,,,,,,12:08:22:595,12:08:23:330,12:08:26:333,right,12:08:27:117,,,2018_Jun_07_1137,59.9600907979,MP-Perception Experiment,xx14w26,
307,vcgpdm_dyn(15)-lvm(20)_final(4).mov,True,left,1,training(16).mov,0,147,147,4,,,,,,,,12:08:27:839,12:08:28:618,12:08:31:621,left,12:08:32:205,,,2018_Jun_07_1137,59.9600907979,MP-Perception Experiment,xx14w26,
308,training(20).mov,False,right,1,vgpdm_dyn(15)-lvm(5)_final(6).mov,0,148,148,113,,,,,,,,12:08:32:958,12:08:33:723,12:08:36:709,left,12:08:37:960,,,2018_Jun_07_1137,59.9600907979,MP-Perception Experiment,xx14w26,
309,vcgpdm_dyn(35)-lvm(5)_final(0).mov,True,left,1,training(23).mov,0,149,149,80,,,,,,,,12:08:38:720,12:08:39:461,12:08:42:480,left,12:08:42:964,,,2018_Jun_07_1137,59.9600907979,MP-Perception Experiment,xx14w26,
310,training(28).mov,False,right,1,dmp_npsi(25)_final(9).mov,0,150,150,116,,,,,,,,12:08:43:736,12:08:44:480,12:08:47:483,right,12:08:47:834,,,2018_Jun_07_1137,59.9600907979,MP-Perception Experiment,xx14w26,
311,training(26).mov,False,right,1,vgpdm_dyn(30)-lvm(5)_final(7).mov,0,151,151,100,,,,,,,,12:08:48:594,12:08:49:335,12:08:52:337,right,12:08:53:471,,,2018_Jun_07_1137,59.9600907979,MP-Perception Experiment,xx14w26,
312,training(23).mov,False,right,1,tmp_numprim(5)_final(0).mov,0,152,152,114,,,,,,,,12:08:54:230,12:08:54:974,12:08:57:960,right,12:08:58:778,,,2018_Jun_07_1137,59.9600907979,MP-Perception Experiment,xx14w26,
313,vcgpdm_dyn(20)-lvm(15)_final(6).mov,True,left,1,training(29).mov,0,153,153,31,,,,,,,,12:08:59:536,12:09:00:279,12:09:03:281,right,12:09:04:199,,,2018_Jun_07_1137,59.9600907979,MP-Perception Experiment,xx14w26,
314,training(32).mov,True,right,1,tmp_numprim(4)_final(2).mov,0,154,154,60,,,,,,,,12:09:04:949,12:09:05:701,12:09:08:720,right,12:09:09:170,,,2018_Jun_07_1137,59.9600907979,MP-Perception Experiment,xx14w26,
315,vgpdm_dyn(30)-lvm(5)_final(2).mov,True,left,1,training(4).mov,0,155,155,155,,,,,,,,12:09:10:122,12:09:10:671,12:09:13:674,right,12:09:14:241,,,2018_Jun_07_1137,59.9600907979,MP-Perception Experiment,xx14w26,
316,vcgpdm_dyn(20)-lvm(5)_final(4).mov,False,left,1,training(30).mov,0,156,156,153,,,,,,,,12:09:15:008,12:09:15:742,12:09:18:744,left,12:09:19:228,,,2018_Jun_07_1137,59.9600907979,MP-Perception Experiment,xx14w26,
317,vcgpdm_dyn(10)-lvm(30)_final(5).mov,True,left,1,training(24).mov,0,157,157,149,,,,,,,,12:09:19:987,12:09:20:746,12:09:23:750,left,12:09:24:267,,,2018_Jun_07_1137,59.9600907979,MP-Perception Experiment,xx14w26,
318,vgpdm_dyn(30)-lvm(30)_final(3).mov,False,left,1,training(8).mov,0,158,158,42,,,,,,,,12:09:25:022,12:09:25:768,12:09:28:787,left,12:09:29:304,,,2018_Jun_07_1137,59.9600907979,MP-Perception Experiment,xx14w26,
319,vgpdm_dyn(30)-lvm(20)_final(5).mov,True,left,2,training(28).mov,0,0,0,139,,,,,,,,12:12:03:935,12:12:04:437,12:12:07:272,left,12:12:07:856,,,2018_Jun_07_1137,59.9600907979,MP-Perception Experiment,xx14w26,
320,dmp_npsi(35)_final(5).mov,True,left,2,training(24).mov,0,1,1,27,,,,,,,,12:12:08:606,12:12:09:374,12:12:12:360,right,12:12:13:210,,,2018_Jun_07_1137,59.9600907979,MP-Perception Experiment,xx14w26,
321,tmp_numprim(2)_final(3).mov,True,left,2,training(32).mov,0,2,2,0,,,,,,,,12:12:13:979,12:12:14:728,12:12:17:700,left,12:12:18:351,,,2018_Jun_07_1137,59.9600907979,MP-Perception Experiment,xx14w26,
322,vcgpdm_dyn(30)-lvm(10)_final(2).mov,True,left,2,training(14).mov,0,3,3,107,,,,,,,,12:12:19:136,12:12:19:868,12:12:22:854,left,12:12:23:338,,,2018_Jun_07_1137,59.9600907979,MP-Perception Experiment,xx14w26,
323,vgpdm_dyn(20)-lvm(35)_final(9).mov,False,left,2,training(19).mov,0,4,4,129,,,,,,,,12:12:24:099,12:12:24:839,12:12:27:841,right,12:12:28:275,,,2018_Jun_07_1137,59.9600907979,MP-Perception Experiment,xx14w26,
324,dmp_npsi(25)_final(1).mov,True,left,2,training(6).mov,0,5,5,116,,,,,,,,12:12:29:035,12:12:29:776,12:12:32:779,left,12:12:33:229,,,2018_Jun_07_1137,59.9600907979,MP-Perception Experiment,xx14w26,
325,training(19).mov,True,right,2,vgpdm_dyn(35)-lvm(25)_final(2).mov,0,6,6,23,,,,,,,,12:12:33:984,12:12:34:731,12:12:37:734,right,12:12:38:301,,,2018_Jun_07_1137,59.9600907979,MP-Perception Experiment,xx14w26,
326,training(32).mov,False,right,2,vgpdm_dyn(35)-lvm(5)_final(8).mov,0,7,7,117,,,,,,,,12:12:39:051,12:12:39:802,12:12:42:805,left,12:12:43:388,,,2018_Jun_07_1137,59.9600907979,MP-Perception Experiment,xx14w26,
327,training(35).mov,True,right,2,vcgpdm_dyn(5)-lvm(30)_final(6)_bad.mov,0,8,8,98,,,,,,,,12:12:44:148,12:12:44:890,12:12:47:892,right,12:12:48:993,,,2018_Jun_07_1137,59.9600907979,MP-Perception Experiment,xx14w26,
328,training(17).mov,True,right,2,dmp_npsi(15)_final(8).mov,0,9,9,82,,,,,,,,12:12:49:750,12:12:50:494,12:12:53:497,right,12:12:54:580,,,2018_Jun_07_1137,59.9600907979,MP-Perception Experiment,xx14w26,
329,vcgpdm_dyn(20)-lvm(35)_final(7).mov,False,left,2,training(33).mov,0,10,10,89,,,,,,,,12:12:55:513,12:12:56:081,12:12:59:084,right,12:12:59:784,,,2018_Jun_07_1137,59.9600907979,MP-Perception Experiment,xx14w26,
330,training(3).mov,True,right,2,vcgpdm_dyn(35)-lvm(15)_final(3)_out_of_screen.mov,0,11,11,1,,,,,,,,12:13:00:535,12:13:01:285,12:13:04:288,right,12:13:05:138,,,2018_Jun_07_1137,59.9600907979,MP-Perception Experiment,xx14w26,
331,training(12).mov,True,right,2,tmp_numprim(2)_final(8).mov,0,12,12,72,,,,,,,,12:13:05:892,12:13:06:641,12:13:09:628,right,12:13:10:562,,,2018_Jun_07_1137,59.9600907979,MP-Perception Experiment,xx14w26,
332,training(14).mov,True,right,2,vgpdm_dyn(10)-lvm(15)_final(3).mov,0,13,13,153,,,,,,,,12:13:11:318,12:13:12:063,12:13:15:066,right,12:13:17:501,,,2018_Jun_07_1137,59.9600907979,MP-Perception Experiment,xx14w26,
333,vgpdm_dyn(20)-lvm(25)_final(8).mov,False,left,2,training(28).mov,0,14,14,22,,,,,,,,12:13:18:427,12:13:19:002,12:13:22:005,left,12:13:23:123,,,2018_Jun_07_1137,59.9600907979,MP-Perception Experiment,xx14w26,
334,vcgpdm_dyn(5)-lvm(20)_final(3).mov,False,left,2,training(36).mov,0,15,15,141,,,,,,,,12:13:24:017,12:13:24:640,12:13:27:627,left,12:13:28:678,,,2018_Jun_07_1137,59.9600907979,MP-Perception Experiment,xx14w26,
335,training(0).mov,True,right,2,vgpdm_dyn(5)-lvm(20)_final(9).mov,0,16,16,37,,,,,,,,12:13:29:434,12:13:30:179,12:13:33:182,right,12:13:34:166,,,2018_Jun_07_1137,59.9600907979,MP-Perception Experiment,xx14w26,
336,vgpdm_dyn(30)-lvm(25)_final(7).mov,False,left,2,training(30).mov,0,17,17,29,,,,,,,,12:13:34:896,12:13:35:667,12:13:38:669,right,12:13:39:554,,,2018_Jun_07_1137,59.9600907979,MP-Perception Experiment,xx14w26,
337,training(37).mov,False,right,2,vcgpdm_dyn(10)-lvm(35)_final(0).mov,0,18,18,78,,,,,,,,12:13:40:303,12:13:41:055,12:13:44:055,right,12:13:45:374,,,2018_Jun_07_1137,59.9600907979,MP-Perception Experiment,xx14w26,
338,vgpdm_dyn(10)-lvm(5)_final(8).mov,False,left,2,training(19).mov,0,19,19,135,,,,,,,,12:13:46:117,12:13:46:875,12:13:49:878,left,12:13:51:229,,,2018_Jun_07_1137,59.9600907979,MP-Perception Experiment,xx14w26,
339,vcgpdm_dyn(25)-lvm(30)_final(5).mov,False,left,2,training(19).mov,0,20,20,137,,,,,,,,12:13:52:156,12:13:52:730,12:13:55:732,left,12:13:56:183,,,2018_Jun_07_1137,59.9600907979,MP-Perception Experiment,xx14w26,
340,vgpdm_dyn(30)-lvm(25)_final(2).mov,False,left,2,training(22).mov,0,21,21,26,,,,,,,,12:13:56:947,12:13:57:701,12:14:00:671,left,12:14:01:439,,,2018_Jun_07_1137,59.9600907979,MP-Perception Experiment,xx14w26,
341,training(8).mov,False,right,2,vcgpdm_dyn(35)-lvm(25)_final(8).mov,0,22,22,43,,,,,,,,12:14:02:195,12:14:02:941,12:14:05:943,right,12:14:06:628,,,2018_Jun_07_1137,59.9600907979,MP-Perception Experiment,xx14w26,
342,vgpdm_dyn(25)-lvm(10)_final(1)_out_of_screen.mov,False,left,2,training(3).mov,0,23,23,8,,,,,,,,12:14:07:389,12:14:08:128,12:14:11:131,left,12:14:11:681,,,2018_Jun_07_1137,59.9600907979,MP-Perception Experiment,xx14w26,
343,vcgpdm_dyn(5)-lvm(10)_final(6).mov,True,left,2,training(33).mov,0,24,24,144,,,,,,,,12:14:12:437,12:14:13:182,12:14:16:185,left,12:14:17:036,,,2018_Jun_07_1137,59.9600907979,MP-Perception Experiment,xx14w26,
344,vgpdm_dyn(30)-lvm(20)_final(9).mov,False,left,2,training(11).mov,0,25,25,70,,,,,,,,12:14:17:793,12:14:18:537,12:14:21:540,right,12:14:22:007,,,2018_Jun_07_1137,59.9600907979,MP-Perception Experiment,xx14w26,
345,vgpdm_dyn(5)-lvm(35)_final(0)_bad.mov,False,left,2,training(23).mov,0,26,26,20,,,,,,,,12:14:22:924,12:14:23:508,12:14:26:511,left,12:14:27:212,,,2018_Jun_07_1137,59.9600907979,MP-Perception Experiment,xx14w26,
346,training(6).mov,False,right,2,vgpdm_dyn(10)-lvm(15)_final(4).mov,0,27,27,52,,,,,,,,12:14:27:959,12:14:28:713,12:14:31:715,right,12:14:32:149,,,2018_Jun_07_1137,59.9600907979,MP-Perception Experiment,xx14w26,
347,training(11).mov,True,right,2,vcgpdm_dyn(35)-lvm(5)_final(9).mov,0,28,28,114,,,,,,,,12:14:33:116,12:14:33:650,12:14:36:651,left,12:14:37:102,,,2018_Jun_07_1137,59.9600907979,MP-Perception Experiment,xx14w26,
348,training(27).mov,False,right,2,vgpdm_dyn(20)-lvm(25)_final(2).mov,0,29,29,138,,,,,,,,12:14:37:865,12:14:38:604,12:14:41:606,right,12:14:42:023,,,2018_Jun_07_1137,59.9600907979,MP-Perception Experiment,xx14w26,
349,training(10).mov,False,right,2,dmp_npsi(30)_final(2).mov,0,30,30,34,,,,,,,,12:14:42:778,12:14:43:524,12:14:46:526,left,12:14:46:827,,,2018_Jun_07_1137,59.9600907979,MP-Perception Experiment,xx14w26,
350,training(5).mov,True,right,2,vcgpdm_dyn(10)-lvm(5)_final(6).mov,0,31,31,95,,,,,,,,12:14:47:591,12:14:48:328,12:14:51:332,right,12:14:52:049,,,2018_Jun_07_1137,59.9600907979,MP-Perception Experiment,xx14w26,
351,training(26).mov,True,right,2,dmp_npsi(40)_final(3).mov,0,32,32,142,,,,,,,,12:14:52:798,12:14:53:550,12:14:56:554,right,12:14:57:521,,,2018_Jun_07_1137,59.9600907979,MP-Perception Experiment,xx14w26,
352,dmp_npsi(15)_final(6).mov,True,left,2,training(30).mov,0,33,33,76,,,,,,,,12:14:58:275,12:14:59:022,12:15:02:025,left,12:15:02:459,,,2018_Jun_07_1137,59.9600907979,MP-Perception Experiment,xx14w26,
353,vgpdm_dyn(25)-lvm(5)_final(7).mov,False,left,2,training(40).mov,0,34,34,31,,,,,,,,12:15:03:418,12:15:03:976,12:15:06:962,left,12:15:07:496,,,2018_Jun_07_1137,59.9600907979,MP-Perception Experiment,xx14w26,
354,training(2).mov,False,right,2,vcgpdm_dyn(15)-lvm(5)_final(7).mov,0,35,35,14,,,,,,,,12:15:08:267,12:15:09:014,12:15:12:017,left,12:15:12:801,,,2018_Jun_07_1137,59.9600907979,MP-Perception Experiment,xx14w26,
355,training(4).mov,True,right,2,vgpdm_dyn(10)-lvm(25)_final(7).mov,0,36,36,122,,,,,,,,12:15:13:561,12:15:14:319,12:15:17:305,left,12:15:17:889,,,2018_Jun_07_1137,59.9600907979,MP-Perception Experiment,xx14w26,
356,vgpdm_dyn(5)-lvm(15)_final(5).mov,True,left,2,training(15).mov,0,37,37,49,,,,,,,,12:15:18:644,12:15:19:390,12:15:22:392,left,12:15:23:110,,,2018_Jun_07_1137,59.9600907979,MP-Perception Experiment,xx14w26,
357,training(40).mov,True,right,2,vcgpdm_dyn(10)-lvm(10)_final(7).mov,0,38,38,145,,,,,,,,12:15:23:880,12:15:24:626,12:15:27:612,right,12:15:28:095,,,2018_Jun_07_1137,59.9600907979,MP-Perception Experiment,xx14w26,
358,vgpdm_dyn(5)-lvm(30)_final(0).mov,False,left,2,training(23).mov,0,39,39,80,,,,,,,,12:15:28:875,12:15:29:614,12:15:32:600,right,12:15:33:450,,,2018_Jun_07_1137,59.9600907979,MP-Perception Experiment,xx14w26,
359,vgpdm_dyn(10)-lvm(10)_final(5).mov,True,left,2,training(34).mov,0,40,40,46,,,,,,,,12:15:34:202,12:15:34:952,12:15:37:956,left,12:15:38:490,,,2018_Jun_07_1137,59.9600907979,MP-Perception Experiment,xx14w26,
360,vcgpdm_dyn(25)-lvm(10)_final(1).mov,True,left,2,training(6).mov,0,41,41,154,,,,,,,,12:15:39:239,12:15:39:991,12:15:42:993,left,12:15:43:961,,,2018_Jun_07_1137,59.9600907979,MP-Perception Experiment,xx14w26,
361,training(15).mov,False,right,2,vcgpdm_dyn(10)-lvm(30)_final(1).mov,0,42,42,150,,,,,,,,12:15:44:718,12:15:45:462,12:15:48:465,left,12:15:49:683,,,2018_Jun_07_1137,59.9600907979,MP-Perception Experiment,xx14w26,
362,training(13).mov,True,right,2,vcgpdm_dyn(20)-lvm(15)_final(2).mov,0,43,43,126,,,,,,,,12:15:50:447,12:15:51:184,12:15:54:186,left,12:15:55:922,,,2018_Jun_07_1137,59.9600907979,MP-Perception Experiment,xx14w26,
363,vgpdm_dyn(20)-lvm(20)_final(3).mov,False,left,2,training(33).mov,0,44,44,102,,,,,,,,12:15:56:864,12:15:57:423,12:16:00:442,left,12:16:01:393,,,2018_Jun_07_1137,59.9600907979,MP-Perception Experiment,xx14w26,
364,training(11).mov,True,right,2,vcgpdm_dyn(25)-lvm(30)_final(3).mov,0,45,45,86,,,,,,,,12:16:02:147,12:16:02:894,12:16:05:897,right,12:16:07:265,,,2018_Jun_07_1137,59.9600907979,MP-Perception Experiment,xx14w26,
365,training(35).mov,True,right,2,vgpdm_dyn(15)-lvm(15)_final(1).mov,0,46,46,140,,,,,,,,12:16:08:035,12:16:08:766,12:16:11:769,right,12:16:12:352,,,2018_Jun_07_1137,59.9600907979,MP-Perception Experiment,xx14w26,
366,vcgpdm_dyn(20)-lvm(10)_final(3).mov,True,left,2,training(4).mov,0,47,47,9,,,,,,,,12:16:13:117,12:16:13:853,12:16:16:854,left,12:16:17:488,,,2018_Jun_07_1137,59.9600907979,MP-Perception Experiment,xx14w26,
367,vgpdm_dyn(35)-lvm(35)_final(9).mov,True,left,2,training(41).mov,0,48,48,64,,,,,,,,12:16:18:245,12:16:18:989,12:16:21:993,left,12:16:23:194,,,2018_Jun_07_1137,59.9600907979,MP-Perception Experiment,xx14w26,
368,vcgpdm_dyn(5)-lvm(10)_final(6).mov,True,left,2,training(30).mov,0,49,49,84,,,,,,,,12:16:23:978,12:16:24:712,12:16:27:697,left,12:16:28:131,,,2018_Jun_07_1137,59.9600907979,MP-Perception Experiment,xx14w26,
369,training(30).mov,True,right,2,vgpdm_dyn(35)-lvm(10)_final(7).mov,0,50,50,119,,,,,,,,12:16:28:905,12:16:29:634,12:16:32:653,left,12:16:33:254,,,2018_Jun_07_1137,59.9600907979,MP-Perception Experiment,xx14w26,
370,vcgpdm_dyn(35)-lvm(25)_final(1).mov,True,left,2,training(40).mov,0,51,51,2,,,,,,,,12:16:34:184,12:16:34:755,12:16:37:774,right,12:16:38:374,,,2018_Jun_07_1137,59.9600907979,MP-Perception Experiment,xx14w26,
371,vcgpdm_dyn(15)-lvm(10)_final(2).mov,True,left,2,training(6).mov,0,52,52,28,,,,,,,,12:16:39:134,12:16:39:877,12:16:42:896,left,12:16:43:363,,,2018_Jun_07_1137,59.9600907979,MP-Perception Experiment,xx14w26,
372,training(8).mov,True,right,2,tmp_numprim(8)_final(9).mov,0,53,53,90,,,,,,,,12:16:44:133,12:16:44:880,12:16:47:883,right,12:16:48:517,,,2018_Jun_07_1137,59.9600907979,MP-Perception Experiment,xx14w26,
373,training(39).mov,False,right,2,vcgpdm_dyn(15)-lvm(5)_final(8).mov,0,54,54,92,,,,,,,,12:16:49:274,12:16:50:018,12:16:53:020,right,12:16:53:888,,,2018_Jun_07_1137,59.9600907979,MP-Perception Experiment,xx14w26,
374,vgpdm_dyn(15)-lvm(5)_final(1).mov,False,left,2,training(27).mov,0,55,55,67,,,,,,,,12:16:54:655,12:16:55:389,12:16:58:393,left,12:16:59:644,,,2018_Jun_07_1137,59.9600907979,MP-Perception Experiment,xx14w26,
375,training(33).mov,False,right,2,vgpdm_dyn(20)-lvm(15)_final(7).mov,0,56,56,94,,,,,,,,12:17:00:428,12:17:01:161,12:17:04:147,right,12:17:04:879,,,2018_Jun_07_1137,59.9600907979,MP-Perception Experiment,xx14w26,
376,training(41).mov,False,right,2,vcgpdm_dyn(20)-lvm(35)_final(6).mov,0,57,57,88,,,,,,,,12:17:05:639,12:17:06:380,12:17:09:383,left,12:17:10:067,,,2018_Jun_07_1137,59.9600907979,MP-Perception Experiment,xx14w26,
377,training(28).mov,True,right,2,vcgpdm_dyn(20)-lvm(35)_final(3).mov,0,58,58,12,,,,,,,,12:17:10:815,12:17:11:585,12:17:14:572,right,12:17:15:089,,,2018_Jun_07_1137,59.9600907979,MP-Perception Experiment,xx14w26,
378,vcgpdm_dyn(10)-lvm(30)_final(1).mov,True,left,2,training(41).mov,0,59,59,30,,,,,,,,12:17:15:838,12:17:16:591,12:17:19:594,left,12:17:20:311,,,2018_Jun_07_1137,59.9600907979,MP-Perception Experiment,xx14w26,
379,map_gpdm_final(6).mov,True,left,2,training(26).mov,0,60,60,56,,,,,,,,12:17:21:055,12:17:21:812,12:17:24:815,left,12:17:25:532,,,2018_Jun_07_1137,59.9600907979,MP-Perception Experiment,xx14w26,
380,training(16).mov,True,right,2,vcgpdm_dyn(30)-lvm(25)_final(1).mov,0,61,61,11,,,,,,,,12:17:26:294,12:17:27:033,12:17:30:036,right,12:17:30:636,,,2018_Jun_07_1137,59.9600907979,MP-Perception Experiment,xx14w26,
381,training(24).mov,True,right,2,map_cgpdm_final(4).mov,0,62,62,100,,,,,,,,12:17:31:395,12:17:32:138,12:17:35:141,right,12:17:35:875,,,2018_Jun_07_1137,59.9600907979,MP-Perception Experiment,xx14w26,
382,training(33).mov,True,right,2,vcgpdm_dyn(35)-lvm(20)_final(0).mov,0,63,63,156,,,,,,,,12:17:36:643,12:17:37:376,12:17:40:378,left,12:17:41:113,,,2018_Jun_07_1137,59.9600907979,MP-Perception Experiment,xx14w26,
383,vcgpdm_dyn(25)-lvm(35)_final(7).mov,False,left,2,training(16).mov,0,64,64,115,,,,,,,,12:17:41:875,12:17:42:614,12:17:45:616,right,12:17:46:350,,,2018_Jun_07_1137,59.9600907979,MP-Perception Experiment,xx14w26,
384,training(6).mov,False,right,2,vcgpdm_dyn(20)-lvm(20)_final(0).mov,0,65,65,120,,,,,,,,12:17:47:098,12:17:47:851,12:17:50:854,right,12:17:51:255,,,2018_Jun_07_1137,59.9600907979,MP-Perception Experiment,xx14w26,
385,vcgpdm_dyn(5)-lvm(10)_final(3).mov,True,left,2,training(13).mov,0,66,66,104,,,,,,,,12:17:52:010,12:17:52:773,12:17:55:757,left,12:17:56:641,,,2018_Jun_07_1137,59.9600907979,MP-Perception Experiment,xx14w26,
386,vgpdm_dyn(25)-lvm(35)_final(1).mov,True,left,2,training(33).mov,0,67,67,91,,,,,,,,12:17:57:389,12:17:58:142,12:18:01:144,left,12:18:01:795,,,2018_Jun_07_1137,59.9600907979,MP-Perception Experiment,xx14w26,
387,vgpdm_dyn(30)-lvm(15)_final(2).mov,True,left,2,training(4).mov,0,68,68,50,,,,,,,,12:18:02:550,12:18:03:296,12:18:06:299,left,12:18:06:399,,,2018_Jun_07_1137,59.9600907979,MP-Perception Experiment,xx14w26,
388,dmp_npsi(45)_final(2).mov,False,left,2,training(11).mov,0,69,69,121,,,,,,,,12:18:07:164,12:18:07:901,12:18:10:888,left,12:18:11:339,,,2018_Jun_07_1137,59.9600907979,MP-Perception Experiment,xx14w26,
389,training(8).mov,False,right,2,vgpdm_dyn(25)-lvm(35)_final(6).mov,0,70,70,69,,,,,,,,12:18:12:091,12:18:12:840,12:18:15:842,right,12:18:16:426,,,2018_Jun_07_1137,59.9600907979,MP-Perception Experiment,xx14w26,
390,vcgpdm_dyn(5)-lvm(20)_final(1).mov,False,left,2,training(5).mov,0,71,71,127,,,,,,,,12:18:17:193,12:18:17:927,12:18:20:930,right,12:18:24:617,,,2018_Jun_07_1137,59.9600907979,MP-Perception Experiment,xx14w26,
391,training(34).mov,True,right,2,vgpdm_dyn(5)-lvm(5)_final(2)_out_of_screen.mov,0,72,72,155,,,,,,,,12:18:25:539,12:18:26:118,12:18:29:121,right,12:18:29:555,,,2018_Jun_07_1137,59.9600907979,MP-Perception Experiment,xx14w26,
392,training(12).mov,False,right,2,vcgpdm_dyn(30)-lvm(20)_final(9).mov,0,73,73,106,,,,,,,,12:18:30:320,12:18:31:056,12:18:34:058,right,12:18:34:509,,,2018_Jun_07_1137,59.9600907979,MP-Perception Experiment,xx14w26,
393,vcgpdm_dyn(20)-lvm(30)_final(3).mov,False,left,2,training(15).mov,0,74,74,45,,,,,,,,12:18:35:268,12:18:36:009,12:18:39:012,left,12:18:39:729,,,2018_Jun_07_1137,59.9600907979,MP-Perception Experiment,xx14w26,
394,training(26).mov,False,right,2,vgpdm_dyn(20)-lvm(5)_final(2).mov,0,75,75,93,,,,,,,,12:18:40:480,12:18:41:230,12:18:44:234,right,12:18:45:767,,,2018_Jun_07_1137,59.9600907979,MP-Perception Experiment,xx14w26,
395,vcgpdm_dyn(30)-lvm(15)_final(0).mov,True,left,2,training(35).mov,0,76,76,35,,,,,,,,12:18:46:695,12:18:47:268,12:18:50:270,left,12:18:50:721,,,2018_Jun_07_1137,59.9600907979,MP-Perception Experiment,xx14w26,
396,tmp_numprim(8)_final(4).mov,True,left,2,training(33).mov,0,77,77,151,,,,,,,,12:18:51:490,12:18:52:222,12:18:55:224,left,12:18:55:960,,,2018_Jun_07_1137,59.9600907979,MP-Perception Experiment,xx14w26,
397,training(8).mov,False,right,2,tmp_numprim(7)_final(0).mov,0,78,78,125,,,,,,,,12:18:56:719,12:18:57:461,12:19:00:465,left,12:19:01:282,,,2018_Jun_07_1137,59.9600907979,MP-Perception Experiment,xx14w26,
398,vgpdm_dyn(25)-lvm(5)_final(3).mov,True,left,2,training(7).mov,0,79,79,118,,,,,,,,12:19:02:034,12:19:02:783,12:19:05:786,left,12:19:06:370,,,2018_Jun_07_1137,59.9600907979,MP-Perception Experiment,xx14w26,
399,training(15).mov,False,right,2,vgpdm_dyn(10)-lvm(15)_final(5).mov,0,80,80,136,,,,,,,,12:19:07:125,12:19:07:887,12:19:10:890,right,12:19:11:524,,,2018_Jun_07_1137,59.9600907979,MP-Perception Experiment,xx14w26,
400,training(0).mov,False,right,2,vcgpdm_dyn(25)-lvm(30)_final(1).mov,0,81,81,66,,,,,,,,12:19:12:270,12:19:13:025,12:19:16:027,right,12:19:17:429,,,2018_Jun_07_1137,59.9600907979,MP-Perception Experiment,xx14w26,
401,map_gpdm_final(1).mov,True,left,2,training(7).mov,0,82,82,149,,,,,,,,12:19:18:179,12:19:18:931,12:19:21:933,left,12:19:22:650,,,2018_Jun_07_1137,59.9600907979,MP-Perception Experiment,xx14w26,
402,training(13).mov,True,right,2,vgpdm_dyn(15)-lvm(25)_final(4).mov,0,83,83,109,,,,,,,,12:19:23:407,12:19:24:151,12:19:27:154,right,12:19:27:888,,,2018_Jun_07_1137,59.9600907979,MP-Perception Experiment,xx14w26,
403,training(16).mov,False,right,2,vgpdm_dyn(15)-lvm(30)_final(6).mov,0,84,84,85,,,,,,,,12:19:28:651,12:19:29:389,12:19:32:392,right,12:19:33:076,,,2018_Jun_07_1137,59.9600907979,MP-Perception Experiment,xx14w26,
404,training(24).mov,True,right,2,vgpdm_dyn(30)-lvm(20)_final(9).mov,0,85,85,103,,,,,,,,12:19:33:835,12:19:34:592,12:19:37:595,left,12:19:38:546,,,2018_Jun_07_1137,59.9600907979,MP-Perception Experiment,xx14w26,
405,training(38).mov,False,right,2,tmp_numprim(2)_final(3).mov,0,86,86,112,,,,,,,,12:19:39:283,12:19:40:047,12:19:43:049,right,12:19:43:566,,,2018_Jun_07_1137,59.9600907979,MP-Perception Experiment,xx14w26,
406,training(27).mov,True,right,2,vgpdm_dyn(25)-lvm(20)_final(2).mov,0,87,87,99,,,,,,,,12:19:44:367,12:19:45:068,12:19:48:072,right,12:19:48:873,,,2018_Jun_07_1137,59.9600907979,MP-Perception Experiment,xx14w26,
407,training(17).mov,False,right,2,vgpdm_dyn(15)-lvm(15)_final(8).mov,0,88,88,6,,,,,,,,12:19:49:625,12:19:50:374,12:19:53:394,right,12:19:53:978,,,2018_Jun_07_1137,59.9600907979,MP-Perception Experiment,xx14w26,
408,training(33).mov,True,right,2,dmp_npsi(45)_final(5).mov,0,89,89,25,,,,,,,,12:19:54:740,12:19:55:495,12:19:58:498,right,12:19:59:332,,,2018_Jun_07_1137,59.9600907979,MP-Perception Experiment,xx14w26,
409,training(38).mov,False,right,2,vgpdm_dyn(10)-lvm(30)_final(1).mov,0,90,90,60,,,,,,,,12:20:00:091,12:20:00:833,12:20:03:836,right,12:20:04:620,,,2018_Jun_07_1137,59.9600907979,MP-Perception Experiment,xx14w26,
410,vcgpdm_dyn(25)-lvm(35)_final(5).mov,False,left,2,training(13).mov,0,91,91,157,,,,,,,,12:20:05:367,12:20:06:121,12:20:09:141,right,12:20:10:409,,,2018_Jun_07_1137,59.9600907979,MP-Perception Experiment,xx14w26,
411,training(31).mov,True,right,2,dmp_npsi(25)_final(4).mov,0,92,92,87,,,,,,,,12:20:11:154,12:20:11:910,12:20:14:912,right,12:20:15:880,,,2018_Jun_07_1137,59.9600907979,MP-Perception Experiment,xx14w26,
412,vgpdm_dyn(15)-lvm(30)_final(3).mov,False,left,2,training(41).mov,0,93,93,158,,,,,,,,12:20:16:810,12:20:17:381,12:20:20:383,left,12:20:21:167,,,2018_Jun_07_1137,59.9600907979,MP-Perception Experiment,xx14w26,
413,training(35).mov,True,right,2,vcgpdm_dyn(25)-lvm(25)_final(4).mov,0,94,94,21,,,,,,,,12:20:22:111,12:20:22:668,12:20:25:669,right,12:20:26:904,,,2018_Jun_07_1137,59.9600907979,MP-Perception Experiment,xx14w26,
414,training(36).mov,True,right,2,vcgpdm_dyn(15)-lvm(20)_final(4).mov,0,95,95,73,,,,,,,,12:20:27:826,12:20:28:405,12:20:31:408,right,12:20:31:808,,,2018_Jun_07_1137,59.9600907979,MP-Perception Experiment,xx14w26,
415,training(12).mov,True,right,2,vcgpdm_dyn(30)-lvm(20)_final(9).mov,0,96,96,16,,,,,,,,12:20:32:559,12:20:33:309,12:20:36:297,right,12:20:37:582,,,2018_Jun_07_1137,59.9600907979,MP-Perception Experiment,xx14w26,
416,training(9).mov,True,right,2,vcgpdm_dyn(5)-lvm(15)_final(0).mov,0,97,97,39,,,,,,,,12:20:38:336,12:20:39:099,12:20:42:085,left,12:20:43:386,,,2018_Jun_07_1137,59.9600907979,MP-Perception Experiment,xx14w26,
417,vgpdm_dyn(10)-lvm(35)_final(4).mov,True,left,2,training(21).mov,0,98,98,133,,,,,,,,12:20:44:134,12:20:44:888,12:20:47:891,left,12:20:48:324,,,2018_Jun_07_1137,59.9600907979,MP-Perception Experiment,xx14w26,
418,vcgpdm_dyn(25)-lvm(25)_final(1).mov,True,left,2,training(12).mov,0,99,99,48,,,,,,,,12:20:49:091,12:20:49:826,12:20:52:828,left,12:20:53:262,,,2018_Jun_07_1137,59.9600907979,MP-Perception Experiment,xx14w26,
419,training(36).mov,False,right,2,vgpdm_dyn(15)-lvm(35)_final(6).mov,0,100,100,33,,,,,,,,12:20:54:029,12:20:54:763,12:20:57:765,right,12:20:58:199,,,2018_Jun_07_1137,59.9600907979,MP-Perception Experiment,xx14w26,
420,training(12).mov,False,right,2,vcgpdm_dyn(30)-lvm(5)_final(0).mov,0,101,101,79,,,,,,,,12:20:58:958,12:20:59:700,12:21:02:704,right,12:21:04:755,,,2018_Jun_07_1137,59.9600907979,MP-Perception Experiment,xx14w26,
421,vcgpdm_dyn(35)-lvm(5)_final(2).mov,True,left,2,training(11).mov,0,102,102,77,,,,,,,,12:21:05:614,12:21:06:256,12:21:09:276,left,12:21:13:429,,,2018_Jun_07_1137,59.9600907979,MP-Perception Experiment,xx14w26,
422,tmp_numprim(9)_final(6).mov,False,left,2,training(37).mov,0,103,103,75,,,,,,,,12:21:14:175,12:21:14:945,12:21:17:931,left,12:21:18:498,,,2018_Jun_07_1137,59.9600907979,MP-Perception Experiment,xx14w26,
423,training(8).mov,False,right,2,vcgpdm_dyn(35)-lvm(30)_final(7).mov,0,104,104,146,,,,,,,,12:21:19:266,12:21:20:000,12:21:23:003,right,12:21:23:536,,,2018_Jun_07_1137,59.9600907979,MP-Perception Experiment,xx14w26,
424,tmp_numprim(3)_final(5).mov,False,left,2,training(28).mov,0,105,105,134,,,,,,,,12:21:24:294,12:21:25:038,12:21:28:025,left,12:21:29:143,,,2018_Jun_07_1137,59.9600907979,MP-Perception Experiment,xx14w26,
425,vcgpdm_dyn(5)-lvm(25)_final(3).mov,False,left,2,training(17).mov,0,106,106,10,,,,,,,,12:21:29:916,12:21:30:644,12:21:33:663,left,12:21:34:547,,,2018_Jun_07_1137,59.9600907979,MP-Perception Experiment,xx14w26,
426,vgpdm_dyn(20)-lvm(15)_final(7).mov,True,left,2,training(48).mov,0,107,107,63,,,,,,,,12:21:35:305,12:21:36:048,12:21:39:052,left,12:21:39:652,,,2018_Jun_07_1137,59.9600907979,MP-Perception Experiment,xx14w26,
427,vgpdm_dyn(35)-lvm(35)_final(0).mov,True,left,2,training(31).mov,0,108,108,57,,,,,,,,12:21:40:578,12:21:41:153,12:21:44:156,left,12:21:44:990,,,2018_Jun_07_1137,59.9600907979,MP-Perception Experiment,xx14w26,
428,vcgpdm_dyn(25)-lvm(15)_final(4).mov,False,left,2,training(22).mov,0,109,109,74,,,,,,,,12:21:45:760,12:21:46:491,12:21:49:494,right,12:21:50:144,,,2018_Jun_07_1137,59.9600907979,MP-Perception Experiment,xx14w26,
429,vgpdm_dyn(35)-lvm(10)_final(9).mov,True,left,2,training(33).mov,0,110,110,71,,,,,,,,12:21:50:896,12:21:51:662,12:21:54:649,right,12:21:55:099,,,2018_Jun_07_1137,59.9600907979,MP-Perception Experiment,xx14w26,
430,training(18).mov,True,right,2,vcgpdm_dyn(20)-lvm(20)_final(0).mov,0,111,111,41,,,,,,,,12:21:55:851,12:21:56:600,12:21:59:602,right,12:22:00:020,,,2018_Jun_07_1137,59.9600907979,MP-Perception Experiment,xx14w26,
431,vcgpdm_dyn(30)-lvm(30)_final(4).mov,False,left,2,training(21).mov,0,112,112,54,,,,,,,,12:22:00:764,12:22:01:521,12:22:04:523,left,12:22:05:139,,,2018_Jun_07_1137,59.9600907979,MP-Perception Experiment,xx14w26,
432,training(1).mov,False,right,2,vcgpdm_dyn(20)-lvm(25)_final(5).mov,0,113,113,96,,,,,,,,12:22:05:902,12:22:06:640,12:22:09:642,right,12:22:10:009,,,2018_Jun_07_1137,59.9600907979,MP-Perception Experiment,xx14w26,
433,training(19).mov,False,right,2,vcgpdm_dyn(35)-lvm(35)_final(4)_bad.mov,0,114,114,131,,,,,,,,12:22:10:775,12:22:11:511,12:22:14:514,left,12:22:15:415,,,2018_Jun_07_1137,59.9600907979,MP-Perception Experiment,xx14w26,
434,training(0).mov,True,right,2,map_gpdm_final(2).mov,0,115,115,3,,,,,,,,12:22:16:166,12:22:16:918,12:22:19:903,right,12:22:20:387,,,2018_Jun_07_1137,59.9600907979,MP-Perception Experiment,xx14w26,
435,vcgpdm_dyn(25)-lvm(20)_final(2).mov,True,left,2,training(2).mov,0,116,116,44,,,,,,,,12:22:21:152,12:22:21:905,12:22:24:891,left,12:22:25:341,,,2018_Jun_07_1137,59.9600907979,MP-Perception Experiment,xx14w26,
436,dmp_npsi(35)_final(0).mov,False,left,2,training(5).mov,0,117,117,124,,,,,,,,12:22:26:265,12:22:26:842,12:22:29:846,right,12:22:31:464,,,2018_Jun_07_1137,59.9600907979,MP-Perception Experiment,xx14w26,
437,training(13).mov,False,right,2,vcgpdm_dyn(30)-lvm(20)_final(8).mov,0,118,118,113,,,,,,,,12:22:32:392,12:22:32:965,12:22:35:967,right,12:22:36:401,,,2018_Jun_07_1137,59.9600907979,MP-Perception Experiment,xx14w26,
438,vcgpdm_dyn(15)-lvm(15)_final(9).mov,True,left,2,training(16).mov,0,119,119,18,,,,,,,,12:22:37:159,12:22:37:902,12:22:40:904,left,12:22:41:855,,,2018_Jun_07_1137,59.9600907979,MP-Perception Experiment,xx14w26,
439,vcgpdm_dyn(5)-lvm(10)_final(6).mov,True,left,2,training(24).mov,0,120,120,130,,,,,,,,12:22:42:629,12:22:43:356,12:22:46:359,left,12:22:47:411,,,2018_Jun_07_1137,59.9600907979,MP-Perception Experiment,xx14w26,
440,training(33).mov,False,right,2,dmp_npsi(35)_final(7).mov,0,121,121,105,,,,,,,,12:22:48:176,12:22:48:912,12:22:51:931,right,12:22:52:749,,,2018_Jun_07_1137,59.9600907979,MP-Perception Experiment,xx14w26,
441,vgpdm_dyn(5)-lvm(30)_final(9).mov,True,left,2,training(8).mov,0,122,122,108,,,,,,,,12:22:53:504,12:22:54:250,12:22:57:250,left,12:22:59:903,,,2018_Jun_07_1137,59.9600907979,MP-Perception Experiment,xx14w26,
442,dmp_npsi(30)_final(4).mov,True,left,2,training(30).mov,0,123,123,51,,,,,,,,12:23:00:848,12:23:01:404,12:23:04:407,left,12:23:04:791,,,2018_Jun_07_1137,59.9600907979,MP-Perception Experiment,xx14w26,
443,training(28).mov,False,right,2,dmp_npsi(20)_final(4).mov,0,124,124,55,,,,,,,,12:23:05:552,12:23:06:292,12:23:09:279,right,12:23:09:747,,,2018_Jun_07_1137,59.9600907979,MP-Perception Experiment,xx14w26,
444,map_gpdm_final(3).mov,True,left,2,training(37).mov,0,125,125,24,,,,,,,,12:23:10:506,12:23:11:248,12:23:14:267,left,12:23:14:634,,,2018_Jun_07_1137,59.9600907979,MP-Perception Experiment,xx14w26,
445,training(32).mov,True,right,2,vcgpdm_dyn(35)-lvm(25)_final(2).mov,0,126,126,83,,,,,,,,12:23:15:405,12:23:16:152,12:23:19:137,left,12:23:19:738,,,2018_Jun_07_1137,59.9600907979,MP-Perception Experiment,xx14w26,
446,training(38).mov,True,right,2,vgpdm_dyn(25)-lvm(30)_final(4).mov,0,127,127,147,,,,,,,,12:23:20:497,12:23:21:239,12:23:24:242,left,12:23:24:843,,,2018_Jun_07_1137,59.9600907979,MP-Perception Experiment,xx14w26,
447,vcgpdm_dyn(20)-lvm(5)_final(7).mov,True,left,2,training(3).mov,0,128,128,15,,,,,,,,12:23:25:602,12:23:26:361,12:23:29:347,right,12:23:29:831,,,2018_Jun_07_1137,59.9600907979,MP-Perception Experiment,xx14w26,
448,training(36).mov,True,right,2,vgpdm_dyn(10)-lvm(35)_final(8).mov,0,129,129,62,,,,,,,,12:23:30:585,12:23:31:332,12:23:34:334,right,12:23:36:286,,,2018_Jun_07_1137,59.9600907979,MP-Perception Experiment,xx14w26,
449,training(2).mov,True,right,2,vgpdm_dyn(20)-lvm(20)_final(7).mov,0,130,130,19,,,,,,,,12:23:37:224,12:23:37:803,12:23:40:790,left,12:23:41:591,,,2018_Jun_07_1137,59.9600907979,MP-Perception Experiment,xx14w26,
450,dmp_npsi(40)_final(0).mov,False,left,2,training(1).mov,0,131,131,58,,,,,,,,12:23:42:360,12:23:43:109,12:23:46:093,left,12:23:46:543,,,2018_Jun_07_1137,59.9600907979,MP-Perception Experiment,xx14w26,
451,vgpdm_dyn(10)-lvm(10)_final(2).mov,True,left,2,training(10).mov,0,132,132,65,,,,,,,,12:23:47:286,12:23:48:044,12:23:51:047,right,12:23:51:480,,,2018_Jun_07_1137,59.9600907979,MP-Perception Experiment,xx14w26,
452,training(10).mov,False,right,2,vgpdm_dyn(15)-lvm(5)_final(4).mov,0,133,133,68,,,,,,,,12:23:52:427,12:23:52:982,12:23:55:984,left,12:23:56:537,,,2018_Jun_07_1137,59.9600907979,MP-Perception Experiment,xx14w26,
453,training(24).mov,True,right,2,vgpdm_dyn(30)-lvm(10)_final(5).mov,0,134,134,111,,,,,,,,12:23:57:302,12:23:58:038,12:24:01:041,left,12:24:01:825,,,2018_Jun_07_1137,59.9600907979,MP-Perception Experiment,xx14w26,
454,vcgpdm_dyn(35)-lvm(20)_final(3).mov,False,left,2,training(24).mov,0,135,135,148,,,,,,,,12:24:02:774,12:24:03:326,12:24:06:345,left,12:24:07:446,,,2018_Jun_07_1137,59.9600907979,MP-Perception Experiment,xx14w26,
455,training(4).mov,False,right,2,vcgpdm_dyn(30)-lvm(15)_final(5).mov,0,136,136,47,,,,,,,,12:24:08:203,12:24:08:947,12:24:11:950,right,12:24:12:534,,,2018_Jun_07_1137,59.9600907979,MP-Perception Experiment,xx14w26,
456,training(36).mov,True,right,2,tmp_numprim(5)_final(9).mov,0,137,137,38,,,,,,,,12:24:13:289,12:24:14:036,12:24:17:055,right,12:24:17:605,,,2018_Jun_07_1137,59.9600907979,MP-Perception Experiment,xx14w26,
457,vgpdm_dyn(25)-lvm(35)_final(5).mov,True,left,2,training(6).mov,0,138,138,17,,,,,,,,12:24:18:374,12:24:19:106,12:24:22:125,left,12:24:22:576,,,2018_Jun_07_1137,59.9600907979,MP-Perception Experiment,xx14w26,
458,vcgpdm_dyn(20)-lvm(30)_final(1).mov,False,left,2,training(0).mov,0,139,139,61,,,,,,,,12:24:23:330,12:24:24:077,12:24:27:096,right,12:24:27:847,,,2018_Jun_07_1137,59.9600907979,MP-Perception Experiment,xx14w26,
459,vcgpdm_dyn(25)-lvm(20)_final(1).mov,False,left,2,training(20).mov,0,140,140,4,,,,,,,,12:24:28:616,12:24:29:348,12:24:32:351,left,12:24:33:152,,,2018_Jun_07_1137,59.9600907979,MP-Perception Experiment,xx14w26,
460,training(18).mov,True,right,2,vcgpdm_dyn(10)-lvm(15)_final(5).mov,0,141,141,97,,,,,,,,12:24:33:911,12:24:34:653,12:24:37:654,left,12:24:38:171,,,2018_Jun_07_1137,59.9600907979,MP-Perception Experiment,xx14w26,
461,training(40).mov,False,right,2,vcgpdm_dyn(20)-lvm(15)_final(9).mov,0,142,142,143,,,,,,,,12:24:38:924,12:24:39:672,12:24:42:675,right,12:24:43:259,,,2018_Jun_07_1137,59.9600907979,MP-Perception Experiment,xx14w26,
462,training(0).mov,False,right,2,vcgpdm_dyn(20)-lvm(20)_final(1).mov,0,143,143,7,,,,,,,,12:24:44:024,12:24:44:760,12:24:47:762,left,12:24:48:213,,,2018_Jun_07_1137,59.9600907979,MP-Perception Experiment,xx14w26,
463,vgpdm_dyn(10)-lvm(25)_final(7).mov,False,left,2,training(37).mov,0,144,144,5,,,,,,,,12:24:49:000,12:24:49:733,12:24:52:719,right,12:24:53:270,,,2018_Jun_07_1137,59.9600907979,MP-Perception Experiment,xx14w26,
464,vcgpdm_dyn(25)-lvm(30)_final(2).mov,False,left,2,training(30).mov,0,145,145,13,,,,,,,,12:24:54:022,12:24:54:771,12:24:57:790,right,12:24:58:874,,,2018_Jun_07_1137,59.9600907979,MP-Perception Experiment,xx14w26,
465,training(29).mov,True,right,2,vcgpdm_dyn(30)-lvm(35)_final(5).mov,0,146,146,42,,,,,,,,12:24:59:637,12:25:00:392,12:25:03:377,left,12:25:04:762,,,2018_Jun_07_1137,59.9600907979,MP-Perception Experiment,xx14w26,
466,vgpdm_dyn(5)-lvm(10)_final(0).mov,True,left,2,training(31).mov,0,147,147,110,,,,,,,,12:25:05:543,12:25:06:263,12:25:09:267,left,12:25:10:017,,,2018_Jun_07_1137,59.9600907979,MP-Perception Experiment,xx14w26,
467,vcgpdm_dyn(10)-lvm(20)_final(6).mov,False,left,2,training(4).mov,0,148,148,53,,,,,,,,12:25:10:782,12:25:11:518,12:25:14:521,left,12:25:15:038,,,2018_Jun_07_1137,59.9600907979,MP-Perception Experiment,xx14w26,
468,training(33).mov,False,right,2,tmp_numprim(8)_final(9).mov,0,149,149,101,,,,,,,,12:25:15:798,12:25:16:539,12:25:19:658,left,12:25:20:159,,,2018_Jun_07_1137,59.9600907979,MP-Perception Experiment,xx14w26,
469,training(29).mov,False,right,2,map_cgpdm_final(7).mov,0,150,150,59,,,,,,,,12:25:20:907,12:25:21:660,12:25:24:663,right,12:25:25:079,,,2018_Jun_07_1137,59.9600907979,MP-Perception Experiment,xx14w26,
470,training(48).mov,True,right,2,dmp_npsi(50)_final(4).mov,0,151,151,123,,,,,,,,12:25:25:853,12:25:26:580,12:25:29:582,left,12:25:29:999,,,2018_Jun_07_1137,59.9600907979,MP-Perception Experiment,xx14w26,
471,vgpdm_dyn(20)-lvm(5)_final(2).mov,False,left,2,training(48).mov,0,152,152,36,,,,,,,,12:25:30:741,12:25:31:500,12:25:34:503,right,12:25:35:454,,,2018_Jun_07_1137,59.9600907979,MP-Perception Experiment,xx14w26,
