trial_number,right,flipped,correct,block,left,trials.thisRepN,trials.thisTrialN,trials.thisN,trials.thisIndex,flipwelcome.keys,flipwelcome.corr,flipwelcome.rt,flippreparations.keys,flippreparations.rt,flipInstructions.keys,flipInstructions.rt,time_at_fixation_cross_onset,time_at_videoonset,time_at_videoend,participant_key_response,time_at_key_response,key_resp_4.keys,date,frameRate,expName,participant,
,,,,,,,,,,space,0,81.4376337392,,,,,,,,,,,2018_Jun_11_1458,59.9520616214,MP-Perception Experiment,xx16w21,
,,,,,,,,,,,,,space,9.30804150513,,,,,,,,,2018_Jun_11_1458,59.9520616214,MP-Perception Experiment,xx16w21,
,,,,,,,,,,,,,,,space,23.8703936108,,,,,,,2018_Jun_11_1458,59.9520616214,MP-Perception Experiment,xx16w21,
1,training(2).mov,False,right,0,vcgpdm_dyn(20)-lvm(30)_final(1).mov,0,0,0,140,,,,,,,,15:00:00:176,15:00:00:691,15:00:03:577,left,15:00:04:628,,2018_Jun_11_1458,59.9520616214,MP-Perception Experiment,xx16w21,
2,vcgpdm_dyn(5)-lvm(35)_final(1)_bad.mov,False,left,0,training(27).mov,0,1,1,19,,,,,,,,15:00:05:493,15:00:06:129,15:00:09:132,left,15:00:09:149,,2018_Jun_11_1458,59.9520616214,MP-Perception Experiment,xx16w21,
3,training(14).mov,True,right,0,vcgpdm_dyn(25)-lvm(10)_final(1).mov,0,2,2,146,,,,,,,,15:00:09:923,15:00:10:650,15:00:13:653,right,15:00:14:136,,2018_Jun_11_1458,59.9520616214,MP-Perception Experiment,xx16w21,
4,training(13).mov,False,right,0,vgpdm_dyn(25)-lvm(35)_final(9).mov,0,3,3,37,,,,,,,,15:00:14:915,15:00:15:637,15:00:18:640,left,15:00:19:240,,2018_Jun_11_1458,59.9520616214,MP-Perception Experiment,xx16w21,
5,vgpdm_dyn(10)-lvm(30)_final(0).mov,False,left,0,training(19).mov,0,4,4,109,,,,,,,,15:00:20:198,15:00:20:741,15:00:23:744,left,15:00:24:044,,2018_Jun_11_1458,59.9520616214,MP-Perception Experiment,xx16w21,
6,training(48).mov,True,right,0,vgpdm_dyn(35)-lvm(5)_final(1).mov,0,5,5,69,,,,,,,,15:00:24:826,15:00:25:546,15:00:28:549,left,15:00:29:083,,2018_Jun_11_1458,59.9520616214,MP-Perception Experiment,xx16w21,
7,vgpdm_dyn(35)-lvm(35)_final(7).mov,True,left,0,training(3).mov,0,6,6,62,,,,,,,,15:00:30:030,15:00:30:584,15:00:33:586,right,15:00:33:985,,2018_Jun_11_1458,59.9520616214,MP-Perception Experiment,xx16w21,
8,vgpdm_dyn(35)-lvm(30)_final(8).mov,False,left,0,training(5).mov,0,7,7,51,,,,,,,,15:00:34:767,15:00:35:486,15:00:38:488,right,15:00:39:289,,2018_Jun_11_1458,59.9520616214,MP-Perception Experiment,xx16w21,
9,vgpdm_dyn(15)-lvm(15)_final(7).mov,True,left,0,training(10).mov,0,8,8,120,,,,,,,,15:00:40:068,15:00:40:790,15:00:43:794,right,15:00:44:311,,2018_Jun_11_1458,59.9520616214,MP-Perception Experiment,xx16w21,
10,tmp_numprim(2)_final(1).mov,True,left,0,training(25).mov,0,9,9,156,,,,,,,,15:00:45:087,15:00:45:814,15:00:48:799,left,15:00:49:216,,2018_Jun_11_1458,59.9520616214,MP-Perception Experiment,xx16w21,
11,vgpdm_dyn(5)-lvm(30)_final(3).mov,False,left,0,training(20).mov,0,10,10,108,,,,,,,,15:00:49:997,15:00:50:718,15:00:53:720,left,15:00:53:937,,2018_Jun_11_1458,59.9520616214,MP-Perception Experiment,xx16w21,
12,training(12).mov,True,right,0,vcgpdm_dyn(15)-lvm(25)_final(6).mov,0,11,11,21,,,,,,,,15:00:54:738,15:00:55:438,15:00:58:441,right,15:00:58:741,,2018_Jun_11_1458,59.9520616214,MP-Perception Experiment,xx16w21,
13,vgpdm_dyn(10)-lvm(35)_final(9).mov,False,left,0,training(8).mov,0,12,12,66,,,,,,,,15:00:59:520,15:01:00:243,15:01:03:246,left,15:01:03:646,,2018_Jun_11_1458,59.9520616214,MP-Perception Experiment,xx16w21,
14,training(38).mov,False,right,0,vcgpdm_dyn(10)-lvm(30)_final(3).mov,0,13,13,92,,,,,,,,15:01:04:420,15:01:05:147,15:01:08:150,right,15:01:08:466,,2018_Jun_11_1458,59.9520616214,MP-Perception Experiment,xx16w21,
15,vcgpdm_dyn(35)-lvm(20)_final(5).mov,True,left,0,training(12).mov,0,14,14,154,,,,,,,,15:01:09:241,15:01:09:967,15:01:12:970,left,15:01:13:354,,2018_Jun_11_1458,59.9520616214,MP-Perception Experiment,xx16w21,
16,dmp_npsi(35)_final(9).mov,False,left,0,training(13).mov,0,15,15,124,,,,,,,,15:01:14:142,15:01:14:855,15:01:17:858,right,15:01:18:309,,2018_Jun_11_1458,59.9520616214,MP-Perception Experiment,xx16w21,
17,training(15).mov,True,right,0,vgpdm_dyn(25)-lvm(25)_final(0)_bad.mov,0,16,16,35,,,,,,,,15:01:19:270,15:01:19:810,15:01:22:812,right,15:01:24:462,,2018_Jun_11_1458,59.9520616214,MP-Perception Experiment,xx16w21,
18,dmp_npsi(50)_final(1).mov,False,left,0,training(6).mov,0,17,17,8,,,,,,,,15:01:25:241,15:01:25:980,15:01:28:965,right,15:01:29:432,,2018_Jun_11_1458,59.9520616214,MP-Perception Experiment,xx16w21,
19,training(11).mov,False,right,0,vgpdm_dyn(5)-lvm(15)_final(1).mov,0,18,18,104,,,,,,,,15:01:31:353,15:01:31:354,15:01:33:936,right,15:01:34:420,,2018_Jun_11_1458,59.9520616214,MP-Perception Experiment,xx16w21,
20,training(38).mov,True,right,0,vcgpdm_dyn(10)-lvm(35)_final(9).mov,0,19,19,10,,,,,,,,15:01:35:205,15:01:35:924,15:01:38:910,right,15:01:39:460,,2018_Jun_11_1458,59.9520616214,MP-Perception Experiment,xx16w21,
21,vcgpdm_dyn(25)-lvm(15)_final(4).mov,False,left,0,training(18).mov,0,20,20,53,,,,,,,,15:01:40:423,15:01:40:961,15:01:43:964,left,15:01:44:898,,2018_Jun_11_1458,59.9520616214,MP-Perception Experiment,xx16w21,
22,vgpdm_dyn(10)-lvm(35)_final(0).mov,False,left,0,training(24).mov,0,21,21,111,,,,,,,,15:01:45:863,15:01:46:399,15:01:49:402,left,15:01:49:768,,2018_Jun_11_1458,59.9520616214,MP-Perception Experiment,xx16w21,
23,vgpdm_dyn(25)-lvm(30)_final(0).mov,False,left,0,training(2).mov,0,22,22,83,,,,,,,,15:01:50:724,15:01:51:269,15:01:54:273,right,15:01:54:573,,2018_Jun_11_1458,59.9520616214,MP-Perception Experiment,xx16w21,
24,training(29).mov,True,right,0,vgpdm_dyn(25)-lvm(5)_final(4).mov,0,23,23,98,,,,,,,,15:01:55:375,15:01:56:074,15:01:59:077,left,15:01:59:561,,2018_Jun_11_1458,59.9520616214,MP-Perception Experiment,xx16w21,
25,vcgpdm_dyn(30)-lvm(25)_final(6).mov,True,left,0,training(21).mov,0,24,24,7,,,,,,,,15:02:00:524,15:02:01:062,15:02:04:064,right,15:02:04:348,,2018_Jun_11_1458,59.9520616214,MP-Perception Experiment,xx16w21,
26,vcgpdm_dyn(15)-lvm(20)_final(6).mov,True,left,0,training(36).mov,0,25,25,15,,,,,,,,15:02:05:124,15:02:05:849,15:02:08:852,left,15:02:09:152,,2018_Jun_11_1458,59.9520616214,MP-Perception Experiment,xx16w21,
27,vcgpdm_dyn(20)-lvm(5)_final(9).mov,False,left,0,training(28).mov,0,26,26,20,,,,,,,,15:02:10:103,15:02:10:654,15:02:13:656,left,15:02:13:971,,2018_Jun_11_1458,59.9520616214,MP-Perception Experiment,xx16w21,
28,training(29).mov,False,right,0,vgpdm_dyn(35)-lvm(10)_final(6).mov,0,27,27,68,,,,,,,,15:02:14:749,15:02:15:473,15:02:18:475,right,15:02:18:842,,2018_Jun_11_1458,59.9520616214,MP-Perception Experiment,xx16w21,
29,vcgpdm_dyn(10)-lvm(30)_final(9).mov,True,left,0,training(4).mov,0,28,28,101,,,,,,,,15:02:19:799,15:02:20:343,15:02:23:346,left,15:02:23:763,,2018_Jun_11_1458,59.9520616214,MP-Perception Experiment,xx16w21,
30,training(21).mov,True,right,0,vcgpdm_dyn(20)-lvm(15)_final(4).mov,0,29,29,52,,,,,,,,15:02:24:574,15:02:25:266,15:02:28:252,left,15:02:28:569,,2018_Jun_11_1458,59.9520616214,MP-Perception Experiment,xx16w21,
31,tmp_numprim(2)_final(4).mov,True,left,0,training(12).mov,0,30,30,115,,,,,,,,15:02:29:348,15:02:30:070,15:02:33:073,left,15:02:33:490,,2018_Jun_11_1458,59.9520616214,MP-Perception Experiment,xx16w21,
32,training(26).mov,True,right,0,vcgpdm_dyn(5)-lvm(25)_final(4).mov,0,31,31,74,,,,,,,,15:02:34:271,15:02:34:991,15:02:37:994,right,15:02:38:327,,2018_Jun_11_1458,59.9520616214,MP-Perception Experiment,xx16w21,
33,training(20).mov,False,right,0,vgpdm_dyn(25)-lvm(5)_final(0).mov,0,32,32,150,,,,,,,,15:02:39:276,15:02:39:828,15:02:42:831,right,15:02:43:231,,2018_Jun_11_1458,59.9520616214,MP-Perception Experiment,xx16w21,
34,vcgpdm_dyn(25)-lvm(35)_final(8).mov,True,left,0,training(17).mov,0,33,33,3,,,,,,,,15:02:44:005,15:02:44:733,15:02:47:736,left,15:02:48:086,,2018_Jun_11_1458,59.9520616214,MP-Perception Experiment,xx16w21,
35,training(27).mov,False,right,0,vgpdm_dyn(30)-lvm(25)_final(0).mov,0,34,34,48,,,,,,,,15:02:48:860,15:02:49:587,15:02:52:590,right,15:02:52:923,,2018_Jun_11_1458,59.9520616214,MP-Perception Experiment,xx16w21,
36,training(19).mov,False,right,0,map_gpdm_final(0).mov,0,35,35,64,,,,,,,,15:02:53:698,15:02:54:424,15:02:57:427,right,15:02:57:777,,2018_Jun_11_1458,59.9520616214,MP-Perception Experiment,xx16w21,
37,vgpdm_dyn(15)-lvm(30)_final(9).mov,False,left,0,training(19).mov,0,36,36,16,,,,,,,,15:02:58:557,15:02:59:295,15:03:02:282,left,15:03:02:582,,2018_Jun_11_1458,59.9520616214,MP-Perception Experiment,xx16w21,
38,vgpdm_dyn(15)-lvm(5)_final(2).mov,False,left,0,training(10).mov,0,37,37,44,,,,,,,,15:03:03:364,15:03:04:098,15:03:07:084,right,15:03:07:401,,2018_Jun_11_1458,59.9520616214,MP-Perception Experiment,xx16w21,
39,training(33).mov,False,right,0,vcgpdm_dyn(15)-lvm(25)_final(9).mov,0,38,38,71,,,,,,,,15:03:08:349,15:03:08:902,15:03:11:905,right,15:03:12:255,,2018_Jun_11_1458,59.9520616214,MP-Perception Experiment,xx16w21,
40,training(3).mov,True,right,0,vgpdm_dyn(5)-lvm(10)_final(6).mov,0,39,39,153,,,,,,,,15:03:13:227,15:03:13:756,15:03:16:744,right,15:03:17:277,,2018_Jun_11_1458,59.9520616214,MP-Perception Experiment,xx16w21,
41,vcgpdm_dyn(10)-lvm(35)_final(9).mov,True,left,0,training(13).mov,0,40,40,147,,,,,,,,15:03:18:240,15:03:18:778,15:03:21:782,left,15:03:22:199,,2018_Jun_11_1458,59.9520616214,MP-Perception Experiment,xx16w21,
42,training(22).mov,True,right,0,vcgpdm_dyn(30)-lvm(15)_final(2).mov,0,41,41,54,,,,,,,,15:03:23:163,15:03:23:700,15:03:26:703,right,15:03:27:270,,2018_Jun_11_1458,59.9520616214,MP-Perception Experiment,xx16w21,
43,vcgpdm_dyn(35)-lvm(20)_final(3).mov,False,left,0,training(7).mov,0,42,42,130,,,,,,,,15:03:28:042,15:03:28:771,15:03:31:773,left,15:03:32:124,,2018_Jun_11_1458,59.9520616214,MP-Perception Experiment,xx16w21,
44,training(24).mov,True,right,0,dmp_npsi(15)_final(8).mov,0,43,43,149,,,,,,,,15:03:32:904,15:03:33:625,15:03:36:627,right,15:03:37:129,,2018_Jun_11_1458,59.9520616214,MP-Perception Experiment,xx16w21,
45,training(31).mov,True,right,0,vcgpdm_dyn(10)-lvm(15)_final(8).mov,0,44,44,57,,,,,,,,15:03:38:094,15:03:38:630,15:03:41:632,right,15:03:41:866,,2018_Jun_11_1458,59.9520616214,MP-Perception Experiment,xx16w21,
46,vcgpdm_dyn(20)-lvm(20)_final(3).mov,False,left,0,training(10).mov,0,45,45,107,,,,,,,,15:03:42:817,15:03:43:367,15:03:46:370,left,15:03:46:653,,2018_Jun_11_1458,59.9520616214,MP-Perception Experiment,xx16w21,
47,vgpdm_dyn(30)-lvm(30)_final(7).mov,False,left,0,training(10).mov,0,46,46,60,,,,,,,,15:03:47:602,15:03:48:154,15:03:51:157,right,15:03:51:540,,2018_Jun_11_1458,59.9520616214,MP-Perception Experiment,xx16w21,
48,training(26).mov,False,right,0,vcgpdm_dyn(10)-lvm(35)_final(8).mov,0,47,47,105,,,,,,,,15:03:52:487,15:03:53:041,15:03:56:043,right,15:03:57:294,,2018_Jun_11_1458,59.9520616214,MP-Perception Experiment,xx16w21,
49,training(0).mov,False,right,0,vcgpdm_dyn(30)-lvm(10)_final(5).mov,0,48,48,158,,,,,,,,15:03:58:245,15:03:58:795,15:04:01:798,left,15:04:02:115,,2018_Jun_11_1458,59.9520616214,MP-Perception Experiment,xx16w21,
50,vgpdm_dyn(20)-lvm(20)_final(6).mov,False,left,0,training(35).mov,0,49,49,94,,,,,,,,15:04:03:086,15:04:03:616,15:04:06:618,right,15:04:07:035,,2018_Jun_11_1458,59.9520616214,MP-Perception Experiment,xx16w21,
51,training(6).mov,True,right,0,vgpdm_dyn(15)-lvm(35)_final(3).mov,0,50,50,73,,,,,,,,15:04:07:804,15:04:08:538,15:04:11:524,right,15:04:11:874,,2018_Jun_11_1458,59.9520616214,MP-Perception Experiment,xx16w21,
52,vcgpdm_dyn(20)-lvm(20)_final(1).mov,False,left,0,training(26).mov,0,51,51,23,,,,,,,,15:04:12:660,15:04:13:376,15:04:16:379,right,15:04:16:713,,2018_Jun_11_1458,59.9520616214,MP-Perception Experiment,xx16w21,
53,training(1).mov,True,right,0,vcgpdm_dyn(30)-lvm(10)_final(3).mov,0,52,52,38,,,,,,,,15:04:17:683,15:04:18:214,15:04:21:216,right,15:04:22:000,,2018_Jun_11_1458,59.9520616214,MP-Perception Experiment,xx16w21,
54,vgpdm_dyn(20)-lvm(15)_final(7).mov,True,left,0,training(40).mov,0,53,53,125,,,,,,,,15:04:22:967,15:04:23:501,15:04:26:504,left,15:04:26:904,,2018_Jun_11_1458,59.9520616214,MP-Perception Experiment,xx16w21,
55,training(38).mov,True,right,0,vgpdm_dyn(15)-lvm(30)_final(5).mov,0,54,54,119,,,,,,,,15:04:27:870,15:04:28:405,15:04:31:409,right,15:04:31:742,,2018_Jun_11_1458,59.9520616214,MP-Perception Experiment,xx16w21,
56,training(9).mov,False,right,0,dmp_npsi(50)_final(4).mov,0,55,55,47,,,,,,,,15:04:32:518,15:04:33:244,15:04:36:246,right,15:04:36:663,,2018_Jun_11_1458,59.9520616214,MP-Perception Experiment,xx16w21,
57,tmp_numprim(5)_final(1).mov,False,left,0,training(32).mov,0,56,56,40,,,,,,,,15:04:37:623,15:04:38:164,15:04:41:167,left,15:04:41:484,,2018_Jun_11_1458,59.9520616214,MP-Perception Experiment,xx16w21,
58,vcgpdm_dyn(25)-lvm(35)_final(2).mov,True,left,0,training(35).mov,0,57,57,129,,,,,,,,15:04:42:437,15:04:42:985,15:04:45:985,left,15:04:46:352,,2018_Jun_11_1458,59.9520616214,MP-Perception Experiment,xx16w21,
59,vcgpdm_dyn(20)-lvm(5)_final(7).mov,False,left,0,training(39).mov,0,58,58,29,,,,,,,,15:04:47:328,15:04:47:855,15:04:50:857,left,15:04:51:141,,2018_Jun_11_1458,59.9520616214,MP-Perception Experiment,xx16w21,
60,training(5).mov,True,right,0,vcgpdm_dyn(20)-lvm(30)_final(7).mov,0,59,59,72,,,,,,,,15:04:52:094,15:04:52:642,15:04:55:644,right,15:04:55:944,,2018_Jun_11_1458,59.9520616214,MP-Perception Experiment,xx16w21,
61,dmp_npsi(5)_final(1)_bad.mov,True,left,0,training(6).mov,0,60,60,78,,,,,,,,15:04:56:714,15:04:57:446,15:05:00:433,left,15:05:00:850,,2018_Jun_11_1458,59.9520616214,MP-Perception Experiment,xx16w21,
62,training(20).mov,True,right,0,vcgpdm_dyn(10)-lvm(10)_final(3).mov,0,61,61,26,,,,,,,,15:05:01:627,15:05:02:368,15:05:05:355,right,15:05:05:689,,2018_Jun_11_1458,59.9520616214,MP-Perception Experiment,xx16w21,
63,training(32).mov,False,right,0,vgpdm_dyn(30)-lvm(5)_final(2).mov,0,62,62,12,,,,,,,,15:05:06:491,15:05:07:190,15:05:10:192,right,15:05:10:542,,2018_Jun_11_1458,59.9520616214,MP-Perception Experiment,xx16w21,
64,training(6).mov,False,right,0,vcgpdm_dyn(20)-lvm(15)_final(7).mov,0,63,63,56,,,,,,,,15:05:11:322,15:05:12:044,15:05:15:046,right,15:05:15:530,,2018_Jun_11_1458,59.9520616214,MP-Perception Experiment,xx16w21,
65,training(7).mov,False,right,0,vgpdm_dyn(30)-lvm(30)_final(4).mov,0,64,64,131,,,,,,,,15:05:16:303,15:05:17:031,15:05:20:034,right,15:05:20:417,,2018_Jun_11_1458,59.9520616214,MP-Perception Experiment,xx16w21,
66,vcgpdm_dyn(35)-lvm(15)_final(3)_out_of_screen.mov,False,left,0,training(3).mov,0,65,65,127,,,,,,,,15:05:21:192,15:05:21:919,15:05:24:922,left,15:05:25:222,,2018_Jun_11_1458,59.9520616214,MP-Perception Experiment,xx16w21,
67,training(32).mov,True,right,0,vgpdm_dyn(10)-lvm(15)_final(0).mov,0,66,66,89,,,,,,,,15:05:25:999,15:05:26:723,15:05:29:726,right,15:05:30:076,,2018_Jun_11_1458,59.9520616214,MP-Perception Experiment,xx16w21,
68,vcgpdm_dyn(20)-lvm(10)_final(0).mov,True,left,0,training(22).mov,0,67,67,24,,,,,,,,15:05:31:391,15:05:31:894,15:05:34:578,left,15:05:35:161,,2018_Jun_11_1458,59.9520616214,MP-Perception Experiment,xx16w21,
69,vcgpdm_dyn(15)-lvm(30)_final(4).mov,True,left,0,training(4).mov,0,68,68,148,,,,,,,,15:05:35:940,15:05:36:663,15:05:39:666,right,15:05:40:117,,2018_Jun_11_1458,59.9520616214,MP-Perception Experiment,xx16w21,
70,training(35).mov,False,right,0,vcgpdm_dyn(30)-lvm(5)_final(1).mov,0,69,69,39,,,,,,,,15:05:41:078,15:05:41:618,15:05:44:620,right,15:05:45:104,,2018_Jun_11_1458,59.9520616214,MP-Perception Experiment,xx16w21,
71,vgpdm_dyn(30)-lvm(35)_final(2).mov,True,left,0,training(32).mov,0,70,70,126,,,,,,,,15:05:45:880,15:05:46:607,15:05:49:609,right,15:05:49:943,,2018_Jun_11_1458,59.9520616214,MP-Perception Experiment,xx16w21,
72,training(15).mov,False,right,0,vcgpdm_dyn(15)-lvm(30)_final(9).mov,0,71,71,33,,,,,,,,15:05:50:714,15:05:51:444,15:05:54:447,right,15:05:54:763,,2018_Jun_11_1458,59.9520616214,MP-Perception Experiment,xx16w21,
73,training(0).mov,True,right,0,vcgpdm_dyn(25)-lvm(10)_final(3).mov,0,72,72,137,,,,,,,,15:05:55:538,15:05:56:265,15:05:59:268,left,15:05:59:552,,2018_Jun_11_1458,59.9520616214,MP-Perception Experiment,xx16w21,
74,training(9).mov,True,right,0,vgpdm_dyn(10)-lvm(15)_final(3).mov,0,73,73,145,,,,,,,,15:06:00:506,15:06:01:053,15:06:04:055,right,15:06:04:406,,2018_Jun_11_1458,59.9520616214,MP-Perception Experiment,xx16w21,
75,vcgpdm_dyn(15)-lvm(35)_final(0).mov,False,left,0,training(39).mov,0,74,74,42,,,,,,,,15:06:05:186,15:06:05:907,15:06:08:909,right,15:06:09:143,,2018_Jun_11_1458,59.9520616214,MP-Perception Experiment,xx16w21,
76,vcgpdm_dyn(10)-lvm(20)_final(8).mov,True,left,0,training(19).mov,0,75,75,121,,,,,,,,15:06:10:101,15:06:10:644,15:06:13:646,right,15:06:13:963,,2018_Jun_11_1458,59.9520616214,MP-Perception Experiment,xx16w21,
77,training(0).mov,True,right,0,vcgpdm_dyn(5)-lvm(15)_final(7).mov,0,76,76,86,,,,,,,,15:06:14:735,15:06:15:465,15:06:18:468,right,15:06:19:702,,2018_Jun_11_1458,59.9520616214,MP-Perception Experiment,xx16w21,
78,training(5).mov,True,right,0,vgpdm_dyn(10)-lvm(25)_final(6).mov,0,77,77,106,,,,,,,,15:06:20:656,15:06:21:203,15:06:24:204,right,15:06:24:604,,2018_Jun_11_1458,59.9520616214,MP-Perception Experiment,xx16w21,
79,tmp_numprim(7)_final(1).mov,True,left,0,training(24).mov,0,78,78,157,,,,,,,,15:06:25:381,15:06:26:106,15:06:29:108,left,15:06:29:592,,2018_Jun_11_1458,59.9520616214,MP-Perception Experiment,xx16w21,
80,training(24).mov,False,right,0,tmp_numprim(2)_final(5).mov,0,79,79,85,,,,,,,,15:06:31:576,15:06:31:576,15:06:34:096,right,15:06:34:697,,2018_Jun_11_1458,59.9520616214,MP-Perception Experiment,xx16w21,
81,vcgpdm_dyn(30)-lvm(10)_final(0).mov,False,left,0,training(19).mov,0,80,80,110,,,,,,,,15:06:35:476,15:06:36:198,15:06:39:186,right,15:06:39:619,,2018_Jun_11_1458,59.9520616214,MP-Perception Experiment,xx16w21,
82,training(1).mov,True,right,0,dmp_npsi(45)_final(4).mov,0,81,81,138,,,,,,,,15:06:40:586,15:06:41:120,15:06:44:123,right,15:06:44:490,,2018_Jun_11_1458,59.9520616214,MP-Perception Experiment,xx16w21,
83,training(24).mov,True,right,0,vcgpdm_dyn(20)-lvm(25)_final(1).mov,0,82,82,82,,,,,,,,15:06:45:268,15:06:45:991,15:06:48:994,right,15:06:49:478,,2018_Jun_11_1458,59.9520616214,MP-Perception Experiment,xx16w21,
84,training(37).mov,False,right,0,vgpdm_dyn(15)-lvm(15)_final(0).mov,0,83,83,80,,,,,,,,15:06:50:443,15:06:50:979,15:06:53:982,right,15:06:54:282,,2018_Jun_11_1458,59.9520616214,MP-Perception Experiment,xx16w21,
85,training(36).mov,True,right,0,vgpdm_dyn(5)-lvm(35)_final(4)_bad.mov,0,84,84,113,,,,,,,,15:06:55:074,15:06:55:783,15:06:58:786,right,15:06:59:169,,2018_Jun_11_1458,59.9520616214,MP-Perception Experiment,xx16w21,
86,training(20).mov,False,right,0,vgpdm_dyn(25)-lvm(20)_final(7).mov,0,85,85,5,,,,,,,,15:06:59:951,15:07:00:671,15:07:03:673,right,15:07:04:023,,2018_Jun_11_1458,59.9520616214,MP-Perception Experiment,xx16w21,
87,training(38).mov,False,right,0,vgpdm_dyn(20)-lvm(5)_final(7).mov,0,86,86,87,,,,,,,,15:07:04:799,15:07:05:524,15:07:08:528,right,15:07:08:845,,2018_Jun_11_1458,59.9520616214,MP-Perception Experiment,xx16w21,
88,map_gpdm_final(6).mov,True,left,0,training(22).mov,0,87,87,30,,,,,,,,15:07:09:626,15:07:10:346,15:07:13:349,left,15:07:13:749,,2018_Jun_11_1458,59.9520616214,MP-Perception Experiment,xx16w21,
89,training(6).mov,True,right,0,vcgpdm_dyn(20)-lvm(10)_final(4).mov,0,88,88,118,,,,,,,,15:07:14:497,15:07:15:265,15:07:18:267,left,15:07:18:334,,2018_Jun_11_1458,59.9520616214,MP-Perception Experiment,xx16w21,
90,training(31).mov,True,right,0,dmp_npsi(45)_final(3).mov,0,89,89,141,,,,,,,,15:07:19:114,15:07:19:835,15:07:22:838,right,15:07:23:155,,2018_Jun_11_1458,59.9520616214,MP-Perception Experiment,xx16w21,
91,training(48).mov,False,right,0,vgpdm_dyn(35)-lvm(10)_final(0).mov,0,90,90,97,,,,,,,,15:07:23:934,15:07:24:657,15:07:27:644,right,15:07:27:961,,2018_Jun_11_1458,59.9520616214,MP-Perception Experiment,xx16w21,
92,training(3).mov,False,right,0,vcgpdm_dyn(25)-lvm(5)_final(5).mov,0,91,91,95,,,,,,,,15:07:28:739,15:07:29:462,15:07:32:465,right,15:07:32:799,,2018_Jun_11_1458,59.9520616214,MP-Perception Experiment,xx16w21,
93,training(15).mov,False,right,0,vgpdm_dyn(20)-lvm(5)_final(5).mov,0,92,92,135,,,,,,,,15:07:33:746,15:07:34:300,15:07:37:302,right,15:07:37:636,,2018_Jun_11_1458,59.9520616214,MP-Perception Experiment,xx16w21,
94,tmp_numprim(3)_final(0).mov,True,left,0,training(15).mov,0,93,93,76,,,,,,,,15:07:38:412,15:07:39:137,15:07:42:141,left,15:07:42:508,,2018_Jun_11_1458,59.9520616214,MP-Perception Experiment,xx16w21,
95,map_cgpdm_final(9).mov,False,left,0,training(25).mov,0,94,94,117,,,,,,,,15:07:43:465,15:07:44:009,15:07:47:011,left,15:07:47:361,,2018_Jun_11_1458,59.9520616214,MP-Perception Experiment,xx16w21,
96,training(29).mov,True,right,0,dmp_npsi(45)_final(6).mov,0,95,95,45,,,,,,,,15:07:48:169,15:07:48:862,15:07:51:865,right,15:07:52:199,,2018_Jun_11_1458,59.9520616214,MP-Perception Experiment,xx16w21,
97,vcgpdm_dyn(15)-lvm(15)_final(8).mov,False,left,0,training(1).mov,0,96,96,128,,,,,,,,15:07:53:166,15:07:53:700,15:07:56:702,right,15:07:57:069,,2018_Jun_11_1458,59.9520616214,MP-Perception Experiment,xx16w21,
98,vcgpdm_dyn(15)-lvm(20)_final(0).mov,False,left,0,training(40).mov,0,97,97,88,,,,,,,,15:07:58:031,15:07:58:570,15:08:01:574,left,15:08:01:924,,2018_Jun_11_1458,59.9520616214,MP-Perception Experiment,xx16w21,
99,training(18).mov,False,right,0,vgpdm_dyn(5)-lvm(30)_final(0).mov,0,98,98,77,,,,,,,,15:08:02:888,15:08:03:425,15:08:06:426,right,15:08:06:826,,2018_Jun_11_1458,59.9520616214,MP-Perception Experiment,xx16w21,
100,training(33).mov,False,right,0,vcgpdm_dyn(10)-lvm(35)_final(3).mov,0,99,99,18,,,,,,,,15:08:07:784,15:08:08:327,15:08:11:330,right,15:08:11:664,,2018_Jun_11_1458,59.9520616214,MP-Perception Experiment,xx16w21,
101,training(25).mov,True,right,0,vcgpdm_dyn(30)-lvm(30)_final(0).mov,0,100,100,50,,,,,,,,15:08:12:627,15:08:13:165,15:08:16:167,right,15:08:16:601,,2018_Jun_11_1458,59.9520616214,MP-Perception Experiment,xx16w21,
102,training(41).mov,True,right,0,vcgpdm_dyn(5)-lvm(15)_final(0).mov,0,101,101,27,,,,,,,,15:08:17:587,15:08:18:105,15:08:21:091,right,15:08:21:524,,2018_Jun_11_1458,59.9520616214,MP-Perception Experiment,xx16w21,
103,vgpdm_dyn(25)-lvm(30)_final(1).mov,False,left,0,training(29).mov,0,102,102,59,,,,,,,,15:08:22:478,15:08:23:025,15:08:26:028,right,15:08:26:328,,2018_Jun_11_1458,59.9520616214,MP-Perception Experiment,xx16w21,
104,training(29).mov,False,right,0,vcgpdm_dyn(35)-lvm(10)_final(3).mov,0,103,103,91,,,,,,,,15:08:27:312,15:08:27:829,15:08:30:832,right,15:08:31:149,,2018_Jun_11_1458,59.9520616214,MP-Perception Experiment,xx16w21,
105,dmp_npsi(50)_final(5).mov,True,left,0,training(27).mov,0,104,104,65,,,,,,,,15:08:31:928,15:08:32:650,15:08:35:653,right,15:08:36:287,,2018_Jun_11_1458,59.9520616214,MP-Perception Experiment,xx16w21,
106,training(4).mov,False,right,0,vcgpdm_dyn(30)-lvm(5)_final(3).mov,0,105,105,152,,,,,,,,15:08:37:092,15:08:37:788,15:08:40:791,right,15:08:41:425,,2018_Jun_11_1458,59.9520616214,MP-Perception Experiment,xx16w21,
107,training(24).mov,False,right,0,tmp_numprim(5)_final(1).mov,0,106,106,100,,,,,,,,15:08:42:208,15:08:42:926,15:08:45:928,right,15:08:46:345,,2018_Jun_11_1458,59.9520616214,MP-Perception Experiment,xx16w21,
108,vgpdm_dyn(35)-lvm(5)_final(2).mov,False,left,0,training(20).mov,0,107,107,103,,,,,,,,15:08:47:135,15:08:47:846,15:08:50:849,right,15:08:51:149,,2018_Jun_11_1458,59.9520616214,MP-Perception Experiment,xx16w21,
109,training(29).mov,False,right,0,tmp_numprim(4)_final(9).mov,0,108,108,112,,,,,,,,15:08:51:950,15:08:52:651,15:08:55:652,right,15:08:56:069,,2018_Jun_11_1458,59.9520616214,MP-Perception Experiment,xx16w21,
110,training(4).mov,True,right,0,vcgpdm_dyn(5)-lvm(25)_final(8).mov,0,109,109,9,,,,,,,,15:08:56:852,15:08:57:570,15:09:00:573,right,15:09:00:873,,2018_Jun_11_1458,59.9520616214,MP-Perception Experiment,xx16w21,
111,training(26).mov,True,right,0,vcgpdm_dyn(25)-lvm(10)_final(1).mov,0,110,110,31,,,,,,,,15:09:01:645,15:09:02:374,15:09:05:362,left,15:09:06:346,,2018_Jun_11_1458,59.9520616214,MP-Perception Experiment,xx16w21,
112,vgpdm_dyn(25)-lvm(35)_final(4).mov,True,left,0,training(8).mov,0,111,111,25,,,,,,,,15:09:07:137,15:09:07:847,15:09:10:851,left,15:09:11:184,,2018_Jun_11_1458,59.9520616214,MP-Perception Experiment,xx16w21,
113,training(3).mov,False,right,0,vgpdm_dyn(25)-lvm(20)_final(5).mov,0,112,112,142,,,,,,,,15:09:11:985,15:09:12:685,15:09:15:688,right,15:09:16:088,,2018_Jun_11_1458,59.9520616214,MP-Perception Experiment,xx16w21,
114,training(24).mov,False,right,0,tmp_numprim(3)_final(4).mov,0,113,113,123,,,,,,,,15:09:16:884,15:09:17:589,15:09:20:592,right,15:09:20:959,,2018_Jun_11_1458,59.9520616214,MP-Perception Experiment,xx16w21,
115,vgpdm_dyn(20)-lvm(35)_final(2).mov,False,left,0,training(25).mov,0,114,114,102,,,,,,,,15:09:21:741,15:09:22:460,15:09:25:462,right,15:09:25:813,,2018_Jun_11_1458,59.9520616214,MP-Perception Experiment,xx16w21,
116,training(31).mov,True,right,0,vgpdm_dyn(25)-lvm(5)_final(8).mov,0,115,115,67,,,,,,,,15:09:26:756,15:09:27:315,15:09:30:317,right,15:09:30:634,,2018_Jun_11_1458,59.9520616214,MP-Perception Experiment,xx16w21,
117,vgpdm_dyn(10)-lvm(15)_final(9).mov,False,left,0,training(39).mov,0,116,116,1,,,,,,,,15:09:31:431,15:09:32:135,15:09:35:138,right,15:09:36:172,,2018_Jun_11_1458,59.9520616214,MP-Perception Experiment,xx16w21,
118,vcgpdm_dyn(35)-lvm(5)_final(2).mov,True,left,0,training(32).mov,0,117,117,99,,,,,,,,15:09:37:151,15:09:37:673,15:09:40:676,left,15:09:40:959,,2018_Jun_11_1458,59.9520616214,MP-Perception Experiment,xx16w21,
119,vcgpdm_dyn(10)-lvm(20)_final(3).mov,False,left,0,training(4).mov,0,118,118,61,,,,,,,,15:09:41:964,15:09:42:477,15:09:45:462,left,15:09:45:779,,2018_Jun_11_1458,59.9520616214,MP-Perception Experiment,xx16w21,
120,training(21).mov,False,right,0,vcgpdm_dyn(15)-lvm(20)_final(3).mov,0,119,119,46,,,,,,,,15:09:46:801,15:09:47:313,15:09:50:283,left,15:09:50:599,,2018_Jun_11_1458,59.9520616214,MP-Perception Experiment,xx16w21,
121,vcgpdm_dyn(30)-lvm(5)_final(4).mov,False,left,0,training(39).mov,0,120,120,84,,,,,,,,15:09:51:590,15:09:52:101,15:09:55:103,left,15:09:55:420,,2018_Jun_11_1458,59.9520616214,MP-Perception Experiment,xx16w21,
122,training(27).mov,True,right,0,vgpdm_dyn(30)-lvm(10)_final(4).mov,0,121,121,144,,,,,,,,15:09:56:204,15:09:56:921,15:09:59:909,right,15:10:00:276,,2018_Jun_11_1458,59.9520616214,MP-Perception Experiment,xx16w21,
123,vgpdm_dyn(5)-lvm(10)_final(0).mov,False,left,0,training(19).mov,0,122,122,136,,,,,,,,15:10:01:077,15:10:01:778,15:10:04:780,left,15:10:05:081,,2018_Jun_11_1458,59.9520616214,MP-Perception Experiment,xx16w21,
124,vcgpdm_dyn(35)-lvm(30)_final(3).mov,False,left,0,training(19).mov,0,123,123,2,,,,,,,,15:10:05:869,15:10:06:582,15:10:09:584,left,15:10:09:884,,2018_Jun_11_1458,59.9520616214,MP-Perception Experiment,xx16w21,
125,vcgpdm_dyn(15)-lvm(10)_final(6).mov,False,left,0,training(6).mov,0,124,124,70,,,,,,,,15:10:10:829,15:10:11:386,15:10:14:388,left,15:10:14:672,,2018_Jun_11_1458,59.9520616214,MP-Perception Experiment,xx16w21,
126,vgpdm_dyn(35)-lvm(30)_final(0).mov,True,left,0,training(5).mov,0,125,125,14,,,,,,,,15:10:15:445,15:10:16:173,15:10:19:176,left,15:10:19:460,,2018_Jun_11_1458,59.9520616214,MP-Perception Experiment,xx16w21,
127,training(9).mov,False,right,0,vcgpdm_dyn(15)-lvm(20)_final(9).mov,0,126,126,55,,,,,,,,15:10:20:424,15:10:20:961,15:10:23:964,right,15:10:25:048,,2018_Jun_11_1458,59.9520616214,MP-Perception Experiment,xx16w21,
128,training(23).mov,True,right,0,vgpdm_dyn(30)-lvm(35)_final(7).mov,0,127,127,93,,,,,,,,15:10:25:849,15:10:26:549,15:10:29:551,left,15:10:30:035,,2018_Jun_11_1458,59.9520616214,MP-Perception Experiment,xx16w21,
129,training(40).mov,True,right,0,dmp_npsi(30)_final(8).mov,0,128,128,96,,,,,,,,15:10:31:530,15:10:31:536,15:10:34:537,right,15:10:35:054,,2018_Jun_11_1458,59.9520616214,MP-Perception Experiment,xx16w21,
130,training(0).mov,True,right,0,vcgpdm_dyn(10)-lvm(10)_final(7).mov,0,129,129,151,,,,,,,,15:10:36:016,15:10:36:555,15:10:39:559,left,15:10:39:859,,2018_Jun_11_1458,59.9520616214,MP-Perception Experiment,xx16w21,
131,dmp_npsi(25)_final(9).mov,True,left,0,training(4).mov,0,130,130,0,,,,,,,,15:10:40:813,15:10:41:360,15:10:44:363,left,15:10:44:796,,2018_Jun_11_1458,59.9520616214,MP-Perception Experiment,xx16w21,
132,tmp_numprim(9)_final(7).mov,False,left,0,training(9).mov,0,131,131,133,,,,,,,,15:10:45:581,15:10:46:299,15:10:49:302,left,15:10:49:619,,2018_Jun_11_1458,59.9520616214,MP-Perception Experiment,xx16w21,
133,training(3).mov,False,right,0,vgpdm_dyn(10)-lvm(35)_final(5).mov,0,132,132,143,,,,,,,,15:10:50:399,15:10:51:120,15:10:54:123,right,15:10:54:457,,2018_Jun_11_1458,59.9520616214,MP-Perception Experiment,xx16w21,
134,training(16).mov,False,right,0,map_cgpdm_final(4).mov,0,133,133,22,,,,,,,,15:10:55:264,15:10:55:958,15:10:58:960,right,15:10:59:394,,2018_Jun_11_1458,59.9520616214,MP-Perception Experiment,xx16w21,
135,training(6).mov,True,right,0,tmp_numprim(3)_final(6).mov,0,134,134,132,,,,,,,,15:11:00:170,15:11:00:895,15:11:03:898,right,15:11:04:231,,2018_Jun_11_1458,59.9520616214,MP-Perception Experiment,xx16w21,
136,training(22).mov,False,right,0,tmp_numprim(7)_final(7).mov,0,135,135,58,,,,,,,,15:11:05:010,15:11:05:732,15:11:08:735,right,15:11:09:102,,2018_Jun_11_1458,59.9520616214,MP-Perception Experiment,xx16w21,
137,training(24).mov,False,right,0,dmp_npsi(40)_final(4).mov,0,136,136,28,,,,,,,,15:11:09:877,15:11:10:603,15:11:13:607,right,15:11:13:957,,2018_Jun_11_1458,59.9520616214,MP-Perception Experiment,xx16w21,
138,training(35).mov,False,right,0,vcgpdm_dyn(10)-lvm(10)_final(8).mov,0,137,137,75,,,,,,,,15:11:14:734,15:11:15:458,15:11:18:461,right,15:11:18:761,,2018_Jun_11_1458,59.9520616214,MP-Perception Experiment,xx16w21,
139,training(21).mov,True,right,0,vgpdm_dyn(10)-lvm(20)_final(7).mov,0,138,138,81,,,,,,,,15:11:19:723,15:11:20:262,15:11:23:264,right,15:11:23:548,,2018_Jun_11_1458,59.9520616214,MP-Perception Experiment,xx16w21,
140,training(24).mov,True,right,0,vcgpdm_dyn(35)-lvm(20)_final(3).mov,0,139,139,13,,,,,,,,15:11:24:381,15:11:25:064,15:11:28:066,right,15:11:28:867,,2018_Jun_11_1458,59.9520616214,MP-Perception Experiment,xx16w21,
141,training(8).mov,True,right,0,vcgpdm_dyn(15)-lvm(20)_final(8).mov,0,140,140,32,,,,,,,,15:11:29:842,15:11:30:369,15:11:33:372,left,15:11:33:722,,2018_Jun_11_1458,59.9520616214,MP-Perception Experiment,xx16w21,
142,training(17).mov,True,right,0,vgpdm_dyn(15)-lvm(30)_final(7).mov,0,141,141,49,,,,,,,,15:11:34:648,15:11:35:225,15:11:38:211,right,15:11:38:578,,2018_Jun_11_1458,59.9520616214,MP-Perception Experiment,xx16w21,
143,training(30).mov,True,right,0,dmp_npsi(25)_final(3).mov,0,142,142,17,,,,,,,,15:11:39:543,15:11:40:079,15:11:43:081,right,15:11:43:398,,2018_Jun_11_1458,59.9520616214,MP-Perception Experiment,xx16w21,
144,training(48).mov,True,right,0,vgpdm_dyn(15)-lvm(35)_final(3).mov,0,143,143,36,,,,,,,,15:11:44:343,15:11:44:916,15:11:47:903,right,15:11:48:287,,2018_Jun_11_1458,59.9520616214,MP-Perception Experiment,xx16w21,
145,vcgpdm_dyn(5)-lvm(5)_final(5).mov,True,left,0,training(22).mov,0,144,144,90,,,,,,,,15:11:49:241,15:11:49:788,15:11:52:790,left,15:11:53:157,,2018_Jun_11_1458,59.9520616214,MP-Perception Experiment,xx16w21,
146,vcgpdm_dyn(30)-lvm(35)_final(5).mov,False,left,0,training(21).mov,0,145,145,79,,,,,,,,15:11:54:131,15:11:54:658,15:11:57:661,right,15:11:57:861,,2018_Jun_11_1458,59.9520616214,MP-Perception Experiment,xx16w21,
147,tmp_numprim(6)_final(1).mov,False,left,0,training(20).mov,0,146,146,63,,,,,,,,15:11:58:818,15:11:59:362,15:12:02:365,left,15:12:02:615,,2018_Jun_11_1458,59.9520616214,MP-Perception Experiment,xx16w21,
148,training(20).mov,True,right,0,vgpdm_dyn(20)-lvm(35)_final(8).mov,0,147,147,114,,,,,,,,15:12:03:559,15:12:04:117,15:12:07:120,right,15:12:07:486,,2018_Jun_11_1458,59.9520616214,MP-Perception Experiment,xx16w21,
149,training(29).mov,False,right,0,vcgpdm_dyn(20)-lvm(30)_final(5).mov,0,148,148,116,,,,,,,,15:12:08:443,15:12:08:987,15:12:11:990,right,15:12:12:274,,2018_Jun_11_1458,59.9520616214,MP-Perception Experiment,xx16w21,
150,training(37).mov,False,right,0,tmp_numprim(10)_final(2).mov,0,149,149,155,,,,,,,,15:12:13:229,15:12:13:775,15:12:16:775,right,15:12:17:126,,2018_Jun_11_1458,59.9520616214,MP-Perception Experiment,xx16w21,
151,training(4).mov,False,right,0,map_gpdm_final(8).mov,0,150,150,139,,,,,,,,15:12:17:904,15:12:18:627,15:12:21:630,right,15:12:22:097,,2018_Jun_11_1458,59.9520616214,MP-Perception Experiment,xx16w21,
152,training(25).mov,True,right,0,vcgpdm_dyn(20)-lvm(30)_final(4).mov,0,151,151,43,,,,,,,,15:12:22:874,15:12:23:599,15:12:26:586,right,15:12:27:187,,2018_Jun_11_1458,59.9520616214,MP-Perception Experiment,xx16w21,
153,vgpdm_dyn(10)-lvm(10)_final(6).mov,False,left,0,training(15).mov,0,152,152,6,,,,,,,,15:12:27:967,15:12:28:688,15:12:31:690,right,15:12:32:124,,2018_Jun_11_1458,59.9520616214,MP-Perception Experiment,xx16w21,
154,vgpdm_dyn(20)-lvm(15)_final(7).mov,True,left,0,training(22).mov,0,153,153,122,,,,,,,,15:12:32:903,15:12:33:625,15:12:36:628,left,15:12:37:045,,2018_Jun_11_1458,59.9520616214,MP-Perception Experiment,xx16w21,
155,vcgpdm_dyn(10)-lvm(5)_final(3).mov,True,left,0,training(28).mov,0,154,154,134,,,,,,,,15:12:37:838,15:12:38:546,15:12:41:549,left,15:12:41:883,,2018_Jun_11_1458,59.9520616214,MP-Perception Experiment,xx16w21,
156,training(18).mov,False,right,0,vcgpdm_dyn(20)-lvm(20)_final(9).mov,0,155,155,4,,,,,,,,15:12:42:663,15:12:43:384,15:12:46:387,right,15:12:46:703,,2018_Jun_11_1458,59.9520616214,MP-Perception Experiment,xx16w21,
157,training(8).mov,False,right,0,vgpdm_dyn(30)-lvm(15)_final(0).mov,0,156,156,11,,,,,,,,15:12:47:514,15:12:48:204,15:12:51:207,right,15:12:51:557,,2018_Jun_11_1458,59.9520616214,MP-Perception Experiment,xx16w21,
158,training(23).mov,True,right,0,vgpdm_dyn(10)-lvm(30)_final(3).mov,0,157,157,41,,,,,,,,15:12:52:339,15:12:53:058,15:12:56:061,right,15:12:56:428,,2018_Jun_11_1458,59.9520616214,MP-Perception Experiment,xx16w21,
159,training(4).mov,False,right,0,vcgpdm_dyn(35)-lvm(20)_final(3).mov,0,158,158,34,,,,,,,,15:12:57:206,15:12:57:947,15:13:00:933,right,15:13:01:233,,2018_Jun_11_1458,59.9520616214,MP-Perception Experiment,xx16w21,
160,training(9).mov,True,right,1,map_gpdm_final(3).mov,0,0,0,94,,,,,,,,15:15:14:748,15:15:15:481,15:15:18:468,right,15:15:18:819,,2018_Jun_11_1458,59.9520616214,MP-Perception Experiment,xx16w21,
161,training(35).mov,True,right,1,vcgpdm_dyn(35)-lvm(10)_final(9).mov,0,1,1,110,,,,,,,,15:15:19:604,15:15:20:320,15:15:23:322,right,15:15:23:639,,2018_Jun_11_1458,59.9520616214,MP-Perception Experiment,xx16w21,
162,training(0).mov,False,right,1,vcgpdm_dyn(20)-lvm(5)_final(7).mov,0,2,2,101,,,,,,,,15:15:24:409,15:15:25:140,15:15:28:143,right,15:15:28:493,,2018_Jun_11_1458,59.9520616214,MP-Perception Experiment,xx16w21,
163,vgpdm_dyn(5)-lvm(10)_final(8).mov,False,left,1,training(37).mov,0,3,3,154,,,,,,,,15:15:29:270,15:15:29:994,15:15:32:997,left,15:15:33:280,,2018_Jun_11_1458,59.9520616214,MP-Perception Experiment,xx16w21,
164,vgpdm_dyn(10)-lvm(30)_final(1).mov,True,left,1,training(10).mov,0,4,4,88,,,,,,,,15:15:34:150,15:15:34:797,15:15:37:783,left,15:15:38:067,,2018_Jun_11_1458,59.9520616214,MP-Perception Experiment,xx16w21,
165,training(36).mov,True,right,1,vcgpdm_dyn(20)-lvm(35)_final(0).mov,0,5,5,68,,,,,,,,15:15:39:025,15:15:39:568,15:15:42:570,left,15:15:42:820,,2018_Jun_11_1458,59.9520616214,MP-Perception Experiment,xx16w21,
166,vcgpdm_dyn(5)-lvm(25)_final(0).mov,True,left,1,training(0).mov,0,6,6,56,,,,,,,,15:15:43:783,15:15:44:322,15:15:47:309,left,15:15:47:626,,2018_Jun_11_1458,59.9520616214,MP-Perception Experiment,xx16w21,
167,vgpdm_dyn(20)-lvm(5)_final(8).mov,False,left,1,training(6).mov,0,7,7,46,,,,,,,,15:15:48:418,15:15:49:127,15:15:52:131,right,15:15:53:132,,2018_Jun_11_1458,59.9520616214,MP-Perception Experiment,xx16w21,
168,vcgpdm_dyn(30)-lvm(35)_final(2).mov,False,left,1,training(29).mov,0,8,8,26,,,,,,,,15:15:54:116,15:15:54:633,15:15:57:635,left,15:15:57:919,,2018_Jun_11_1458,59.9520616214,MP-Perception Experiment,xx16w21,
169,vcgpdm_dyn(10)-lvm(15)_final(3).mov,True,left,1,training(41).mov,0,9,9,127,,,,,,,,15:15:58:876,15:15:59:420,15:16:02:422,left,15:16:02:806,,2018_Jun_11_1458,59.9520616214,MP-Perception Experiment,xx16w21,
170,training(29).mov,False,right,1,vcgpdm_dyn(5)-lvm(15)_final(7).mov,0,10,10,145,,,,,,,,15:16:03:592,15:16:04:307,15:16:07:310,right,15:16:07:677,,2018_Jun_11_1458,59.9520616214,MP-Perception Experiment,xx16w21,
171,vcgpdm_dyn(25)-lvm(20)_final(6).mov,False,left,1,training(40).mov,0,11,11,147,,,,,,,,15:16:08:630,15:16:09:179,15:16:12:181,left,15:16:12:498,,2018_Jun_11_1458,59.9520616214,MP-Perception Experiment,xx16w21,
172,training(2).mov,False,right,1,vgpdm_dyn(25)-lvm(5)_final(9).mov,0,12,12,98,,,,,,,,15:16:13:450,15:16:13:999,15:16:17:002,right,15:16:17:252,,2018_Jun_11_1458,59.9520616214,MP-Perception Experiment,xx16w21,
173,vgpdm_dyn(10)-lvm(30)_final(6).mov,True,left,1,training(32).mov,0,13,13,96,,,,,,,,15:16:18:210,15:16:18:753,15:16:21:756,left,15:16:22:056,,2018_Jun_11_1458,59.9520616214,MP-Perception Experiment,xx16w21,
174,vgpdm_dyn(30)-lvm(20)_final(0).mov,False,left,1,training(23).mov,0,14,14,53,,,,,,,,15:16:22:837,15:16:23:557,15:16:26:559,right,15:16:26:625,,2018_Jun_11_1458,59.9520616214,MP-Perception Experiment,xx16w21,
175,vcgpdm_dyn(30)-lvm(5)_final(3).mov,True,left,1,training(7).mov,0,15,15,86,,,,,,,,15:16:27:579,15:16:28:127,15:16:31:129,left,15:16:31:546,,2018_Jun_11_1458,59.9520616214,MP-Perception Experiment,xx16w21,
176,training(41).mov,False,right,1,vgpdm_dyn(15)-lvm(5)_final(8).mov,0,16,16,87,,,,,,,,15:16:32:333,15:16:33:047,15:16:36:050,right,15:16:36:352,,2018_Jun_11_1458,59.9520616214,MP-Perception Experiment,xx16w21,
177,vcgpdm_dyn(30)-lvm(25)_final(7).mov,False,left,1,training(32).mov,0,17,17,91,,,,,,,,15:16:37:141,15:16:37:853,15:16:40:856,right,15:16:41:089,,2018_Jun_11_1458,59.9520616214,MP-Perception Experiment,xx16w21,
178,vcgpdm_dyn(5)-lvm(10)_final(5).mov,True,left,1,training(3).mov,0,18,18,122,,,,,,,,15:16:41:897,15:16:42:590,15:16:45:594,left,15:16:45:894,,2018_Jun_11_1458,59.9520616214,MP-Perception Experiment,xx16w21,
179,training(39).mov,True,right,1,vcgpdm_dyn(20)-lvm(30)_final(8).mov,0,19,19,134,,,,,,,,15:16:46:682,15:16:47:395,15:16:50:398,right,15:16:50:731,,2018_Jun_11_1458,59.9520616214,MP-Perception Experiment,xx16w21,
180,training(8).mov,False,right,1,vcgpdm_dyn(15)-lvm(10)_final(2).mov,0,20,20,22,,,,,,,,15:16:51:508,15:16:52:232,15:16:55:235,right,15:16:55:535,,2018_Jun_11_1458,59.9520616214,MP-Perception Experiment,xx16w21,
181,vgpdm_dyn(10)-lvm(20)_final(7).mov,False,left,1,training(0).mov,0,21,21,18,,,,,,,,15:16:56:308,15:16:57:036,15:17:00:039,left,15:17:00:289,,2018_Jun_11_1458,59.9520616214,MP-Perception Experiment,xx16w21,
182,map_gpdm_final(2).mov,False,left,1,training(29).mov,0,22,22,8,,,,,,,,15:17:01:257,15:17:01:791,15:17:04:793,left,15:17:05:194,,2018_Jun_11_1458,59.9520616214,MP-Perception Experiment,xx16w21,
183,vcgpdm_dyn(5)-lvm(20)_final(9).mov,False,left,1,training(48).mov,0,23,23,28,,,,,,,,15:17:05:977,15:17:06:695,15:17:09:697,left,15:17:09:981,,2018_Jun_11_1458,59.9520616214,MP-Perception Experiment,xx16w21,
184,vcgpdm_dyn(30)-lvm(30)_final(4).mov,True,left,1,training(0).mov,0,24,24,55,,,,,,,,15:17:10:940,15:17:11:482,15:17:14:483,left,15:17:14:833,,2018_Jun_11_1458,59.9520616214,MP-Perception Experiment,xx16w21,
185,training(14).mov,False,right,1,map_gpdm_final(9).mov,0,25,25,100,,,,,,,,15:17:15:610,15:17:16:334,15:17:19:338,right,15:17:19:638,,2018_Jun_11_1458,59.9520616214,MP-Perception Experiment,xx16w21,
186,vgpdm_dyn(10)-lvm(10)_final(4).mov,False,left,1,training(32).mov,0,26,26,14,,,,,,,,15:17:20:602,15:17:21:139,15:17:24:142,left,15:17:24:492,,2018_Jun_11_1458,59.9520616214,MP-Perception Experiment,xx16w21,
187,training(38).mov,True,right,1,vcgpdm_dyn(20)-lvm(35)_final(8).mov,0,27,27,105,,,,,,,,15:17:25:273,15:17:25:993,15:17:28:981,left,15:17:29:197,,2018_Jun_11_1458,59.9520616214,MP-Perception Experiment,xx16w21,
188,training(23).mov,False,right,1,vgpdm_dyn(30)-lvm(10)_final(3).mov,0,28,28,12,,,,,,,,15:17:30:159,15:17:30:699,15:17:33:701,right,15:17:34:051,,2018_Jun_11_1458,59.9520616214,MP-Perception Experiment,xx16w21,
189,training(28).mov,True,right,1,vgpdm_dyn(20)-lvm(25)_final(2).mov,0,29,29,17,,,,,,,,15:17:34:837,15:17:35:552,15:17:38:556,left,15:17:38:890,,2018_Jun_11_1458,59.9520616214,MP-Perception Experiment,xx16w21,
190,vgpdm_dyn(5)-lvm(20)_final(1).mov,True,left,1,training(7).mov,0,30,30,50,,,,,,,,15:17:39:853,15:17:40:391,15:17:43:393,left,15:17:43:710,,2018_Jun_11_1458,59.9520616214,MP-Perception Experiment,xx16w21,
191,vcgpdm_dyn(35)-lvm(5)_final(0).mov,True,left,1,training(38).mov,0,31,31,153,,,,,,,,15:17:44:651,15:17:45:211,15:17:48:214,left,15:17:48:414,,2018_Jun_11_1458,59.9520616214,MP-Perception Experiment,xx16w21,
192,vgpdm_dyn(10)-lvm(30)_final(2).mov,True,left,1,training(29).mov,0,32,32,83,,,,,,,,15:17:49:190,15:17:49:915,15:17:52:918,left,15:17:53:318,,2018_Jun_11_1458,59.9520616214,MP-Perception Experiment,xx16w21,
193,vgpdm_dyn(30)-lvm(10)_final(1).mov,True,left,1,training(36).mov,0,33,33,3,,,,,,,,15:17:54:106,15:17:54:820,15:17:57:823,left,15:17:58:139,,2018_Jun_11_1458,59.9520616214,MP-Perception Experiment,xx16w21,
194,training(17).mov,True,right,1,dmp_npsi(15)_final(2).mov,0,34,34,113,,,,,,,,15:17:58:920,15:17:59:641,15:18:02:643,right,15:18:03:077,,2018_Jun_11_1458,59.9520616214,MP-Perception Experiment,xx16w21,
195,training(22).mov,True,right,1,vcgpdm_dyn(15)-lvm(35)_final(6).mov,0,35,35,81,,,,,,,,15:18:03:869,15:18:04:593,15:18:07:579,right,15:18:07:912,,2018_Jun_11_1458,59.9520616214,MP-Perception Experiment,xx16w21,
196,vcgpdm_dyn(10)-lvm(10)_final(8).mov,True,left,1,training(4).mov,0,36,36,149,,,,,,,,15:18:08:690,15:18:09:413,15:18:12:417,left,15:18:12:467,,2018_Jun_11_1458,59.9520616214,MP-Perception Experiment,xx16w21,
197,training(22).mov,False,right,1,dmp_npsi(30)_final(8).mov,0,37,37,111,,,,,,,,15:18:13:415,15:18:13:968,15:18:16:956,right,15:18:17:439,,2018_Jun_11_1458,59.9520616214,MP-Perception Experiment,xx16w21,
198,training(2).mov,True,right,1,tmp_numprim(3)_final(9).mov,0,38,38,128,,,,,,,,15:18:18:226,15:18:18:940,15:18:21:943,right,15:18:22:343,,2018_Jun_11_1458,59.9520616214,MP-Perception Experiment,xx16w21,
199,training(19).mov,True,right,1,vgpdm_dyn(20)-lvm(30)_final(8).mov,0,39,39,37,,,,,,,,15:18:23:310,15:18:23:844,15:18:26:847,right,15:18:27:131,,2018_Jun_11_1458,59.9520616214,MP-Perception Experiment,xx16w21,
200,vgpdm_dyn(35)-lvm(20)_final(4)_out_of_screen.mov,True,left,1,training(29).mov,0,40,40,0,,,,,,,,15:18:27:917,15:18:28:632,15:18:31:635,left,15:18:31:935,,2018_Jun_11_1458,59.9520616214,MP-Perception Experiment,xx16w21,
201,training(18).mov,True,right,1,tmp_numprim(2)_final(7).mov,0,41,41,125,,,,,,,,15:18:32:728,15:18:33:437,15:18:36:439,right,15:18:36:789,,2018_Jun_11_1458,59.9520616214,MP-Perception Experiment,xx16w21,
202,vgpdm_dyn(15)-lvm(15)_final(1).mov,True,left,1,training(3).mov,0,42,42,73,,,,,,,,15:18:37:573,15:18:38:290,15:18:41:293,left,15:18:41:577,,2018_Jun_11_1458,59.9520616214,MP-Perception Experiment,xx16w21,
203,vgpdm_dyn(15)-lvm(25)_final(2).mov,True,left,1,training(38).mov,0,43,43,84,,,,,,,,15:18:42:370,15:18:43:078,15:18:46:080,left,15:18:46:415,,2018_Jun_11_1458,59.9520616214,MP-Perception Experiment,xx16w21,
204,training(20).mov,False,right,1,vgpdm_dyn(20)-lvm(20)_final(4).mov,0,44,44,95,,,,,,,,15:18:47:203,15:18:47:916,15:18:50:919,right,15:18:51:235,,2018_Jun_11_1458,59.9520616214,MP-Perception Experiment,xx16w21,
205,training(2).mov,False,right,1,vcgpdm_dyn(5)-lvm(20)_final(5).mov,0,45,45,107,,,,,,,,15:18:52:202,15:18:52:736,15:18:55:737,right,15:18:56:004,,2018_Jun_11_1458,59.9520616214,MP-Perception Experiment,xx16w21,
206,training(25).mov,True,right,1,vcgpdm_dyn(5)-lvm(15)_final(9).mov,0,46,46,2,,,,,,,,15:18:56:798,15:18:57:505,15:19:00:508,right,15:19:00:941,,2018_Jun_11_1458,59.9520616214,MP-Perception Experiment,xx16w21,
207,training(23).mov,False,right,1,vgpdm_dyn(15)-lvm(5)_final(2).mov,0,47,47,99,,,,,,,,15:19:01:914,15:19:02:443,15:19:05:446,right,15:19:05:830,,2018_Jun_11_1458,59.9520616214,MP-Perception Experiment,xx16w21,
208,vgpdm_dyn(35)-lvm(5)_final(8).mov,False,left,1,training(9).mov,0,48,48,38,,,,,,,,15:19:06:706,15:19:07:331,15:19:10:318,right,15:19:10:469,,2018_Jun_11_1458,59.9520616214,MP-Perception Experiment,xx16w21,
209,training(36).mov,False,right,1,vcgpdm_dyn(20)-lvm(20)_final(4).mov,0,49,49,93,,,,,,,,15:19:11:258,15:19:11:970,15:19:14:972,right,15:19:15:239,,2018_Jun_11_1458,59.9520616214,MP-Perception Experiment,xx16w21,
210,vgpdm_dyn(5)-lvm(20)_final(3).mov,False,left,1,training(38).mov,0,50,50,40,,,,,,,,15:19:16:020,15:19:16:740,15:19:19:743,left,15:19:20:343,,2018_Jun_11_1458,59.9520616214,MP-Perception Experiment,xx16w21,
211,vgpdm_dyn(15)-lvm(35)_final(0).mov,False,left,1,training(8).mov,0,51,51,33,,,,,,,,15:19:21:125,15:19:21:845,15:19:24:848,right,15:19:25:231,,2018_Jun_11_1458,59.9520616214,MP-Perception Experiment,xx16w21,
212,training(9).mov,True,right,1,vcgpdm_dyn(5)-lvm(10)_final(8).mov,0,52,52,106,,,,,,,,15:19:26:011,15:19:26:733,15:19:29:735,right,15:19:29:985,,2018_Jun_11_1458,59.9520616214,MP-Perception Experiment,xx16w21,
213,vgpdm_dyn(25)-lvm(10)_final(9)_out_of_screen.mov,True,left,1,training(3).mov,0,53,53,143,,,,,,,,15:19:31:351,15:19:31:853,15:19:34:489,left,15:19:34:923,,2018_Jun_11_1458,59.9520616214,MP-Perception Experiment,xx16w21,
214,training(41).mov,True,right,1,vcgpdm_dyn(25)-lvm(5)_final(1).mov,0,54,54,139,,,,,,,,15:19:35:701,15:19:36:424,15:19:39:427,right,15:19:39:778,,2018_Jun_11_1458,59.9520616214,MP-Perception Experiment,xx16w21,
215,training(21).mov,True,right,1,vgpdm_dyn(10)-lvm(20)_final(2).mov,0,55,55,129,,,,,,,,15:19:40:565,15:19:41:279,15:19:44:281,right,15:19:44:463,,2018_Jun_11_1458,59.9520616214,MP-Perception Experiment,xx16w21,
216,training(13).mov,False,right,1,dmp_npsi(20)_final(1).mov,0,56,56,24,,,,,,,,15:19:45:421,15:19:45:964,15:19:48:967,right,15:19:49:400,,2018_Jun_11_1458,59.9520616214,MP-Perception Experiment,xx16w21,
217,training(10).mov,False,right,1,vcgpdm_dyn(5)-lvm(10)_final(8).mov,0,57,57,52,,,,,,,,15:19:50:349,15:19:50:901,15:19:53:904,right,15:19:54:204,,2018_Jun_11_1458,59.9520616214,MP-Perception Experiment,xx16w21,
218,training(31).mov,True,right,1,vgpdm_dyn(5)-lvm(20)_final(9).mov,0,58,58,11,,,,,,,,15:19:55:150,15:19:55:705,15:19:58:694,right,15:19:59:077,,2018_Jun_11_1458,59.9520616214,MP-Perception Experiment,xx16w21,
219,vcgpdm_dyn(30)-lvm(20)_final(7).mov,False,left,1,training(31).mov,0,59,59,114,,,,,,,,15:20:00:034,15:20:00:579,15:20:03:581,right,15:20:03:865,,2018_Jun_11_1458,59.9520616214,MP-Perception Experiment,xx16w21,
220,training(40).mov,True,right,1,vcgpdm_dyn(30)-lvm(25)_final(5).mov,0,60,60,141,,,,,,,,15:20:04:828,15:20:05:366,15:20:08:368,right,15:20:08:518,,2018_Jun_11_1458,59.9520616214,MP-Perception Experiment,xx16w21,
221,dmp_npsi(20)_final(4).mov,True,left,1,training(21).mov,0,61,61,58,,,,,,,,15:20:09:315,15:20:10:020,15:20:13:022,left,15:20:13:322,,2018_Jun_11_1458,59.9520616214,MP-Perception Experiment,xx16w21,
222,training(7).mov,True,right,1,vcgpdm_dyn(10)-lvm(15)_final(9).mov,0,62,62,72,,,,,,,,15:20:14:290,15:20:14:824,15:20:17:827,right,15:20:18:110,,2018_Jun_11_1458,59.9520616214,MP-Perception Experiment,xx16w21,
223,training(20).mov,True,right,1,vgpdm_dyn(20)-lvm(35)_final(6).mov,0,63,63,31,,,,,,,,15:20:19:080,15:20:19:612,15:20:22:614,right,15:20:22:964,,2018_Jun_11_1458,59.9520616214,MP-Perception Experiment,xx16w21,
224,vcgpdm_dyn(30)-lvm(30)_final(4).mov,True,left,1,training(32).mov,0,64,64,103,,,,,,,,15:20:23:939,15:20:24:466,15:20:27:468,left,15:20:28:002,,2018_Jun_11_1458,59.9520616214,MP-Perception Experiment,xx16w21,
225,vcgpdm_dyn(25)-lvm(25)_final(1).mov,False,left,1,training(20).mov,0,65,65,92,,,,,,,,15:20:28:962,15:20:29:503,15:20:32:507,right,15:20:32:790,,2018_Jun_11_1458,59.9520616214,MP-Perception Experiment,xx16w21,
226,vgpdm_dyn(35)-lvm(5)_final(2).mov,True,left,1,training(48).mov,0,66,66,121,,,,,,,,15:20:33:578,15:20:34:291,15:20:37:292,left,15:20:37:575,,2018_Jun_11_1458,59.9520616214,MP-Perception Experiment,xx16w21,
227,tmp_numprim(6)_final(0).mov,True,left,1,training(38).mov,0,67,67,137,,,,,,,,15:20:38:368,15:20:39:077,15:20:42:079,left,15:20:42:513,,2018_Jun_11_1458,59.9520616214,MP-Perception Experiment,xx16w21,
228,training(30).mov,True,right,1,vgpdm_dyn(10)-lvm(25)_final(8).mov,0,68,68,45,,,,,,,,15:20:43:290,15:20:44:014,15:20:47:016,right,15:20:47:350,,2018_Jun_11_1458,59.9520616214,MP-Perception Experiment,xx16w21,
229,vgpdm_dyn(35)-lvm(10)_final(8).mov,False,left,1,training(48).mov,0,69,69,146,,,,,,,,15:20:48:140,15:20:48:854,15:20:51:840,right,15:20:52:123,,2018_Jun_11_1458,59.9520616214,MP-Perception Experiment,xx16w21,
230,training(27).mov,True,right,1,vcgpdm_dyn(25)-lvm(35)_final(3).mov,0,70,70,117,,,,,,,,15:20:52:900,15:20:53:624,15:20:56:627,right,15:20:56:977,,2018_Jun_11_1458,59.9520616214,MP-Perception Experiment,xx16w21,
231,vcgpdm_dyn(15)-lvm(30)_final(5).mov,True,left,1,training(22).mov,0,71,71,1,,,,,,,,15:20:57:755,15:20:58:478,15:21:01:481,left,15:21:01:831,,2018_Jun_11_1458,59.9520616214,MP-Perception Experiment,xx16w21,
232,vgpdm_dyn(10)-lvm(15)_final(6).mov,True,left,1,training(39).mov,0,72,72,25,,,,,,,,15:21:02:639,15:21:03:349,15:21:06:336,left,15:21:06:653,,2018_Jun_11_1458,59.9520616214,MP-Perception Experiment,xx16w21,
233,training(36).mov,True,right,1,vcgpdm_dyn(20)-lvm(25)_final(4).mov,0,73,73,126,,,,,,,,15:21:07:431,15:21:08:154,15:21:11:156,right,15:21:11:423,,2018_Jun_11_1458,59.9520616214,MP-Perception Experiment,xx16w21,
234,vgpdm_dyn(5)-lvm(25)_final(0)_out_of_screen.mov,True,left,1,training(16).mov,0,74,74,150,,,,,,,,15:21:12:391,15:21:12:924,15:21:15:927,left,15:21:16:277,,2018_Jun_11_1458,59.9520616214,MP-Perception Experiment,xx16w21,
235,training(37).mov,False,right,1,vgpdm_dyn(30)-lvm(10)_final(1).mov,0,75,75,116,,,,,,,,15:21:17:050,15:21:17:778,15:21:20:781,right,15:21:21:098,,2018_Jun_11_1458,59.9520616214,MP-Perception Experiment,xx16w21,
236,training(16).mov,True,right,1,vcgpdm_dyn(25)-lvm(30)_final(1).mov,0,76,76,29,,,,,,,,15:21:22:049,15:21:22:599,15:21:25:601,left,15:21:25:851,,2018_Jun_11_1458,59.9520616214,MP-Perception Experiment,xx16w21,
237,map_cgpdm_final(0).mov,False,left,1,training(40).mov,0,77,77,4,,,,,,,,15:21:26:630,15:21:27:352,15:21:30:354,left,15:21:30:671,,2018_Jun_11_1458,59.9520616214,MP-Perception Experiment,xx16w21,
238,vgpdm_dyn(15)-lvm(5)_final(8).mov,True,left,1,training(41).mov,0,78,78,19,,,,,,,,15:21:31:454,15:21:32:172,15:21:35:175,left,15:21:35:492,,2018_Jun_11_1458,59.9520616214,MP-Perception Experiment,xx16w21,
239,training(12).mov,False,right,1,vcgpdm_dyn(35)-lvm(10)_final(8).mov,0,79,79,76,,,,,,,,15:21:36:457,15:21:36:995,15:21:39:981,right,15:21:40:164,,2018_Jun_11_1458,59.9520616214,MP-Perception Experiment,xx16w21,
240,vgpdm_dyn(10)-lvm(25)_final(0).mov,True,left,1,training(27).mov,0,80,80,140,,,,,,,,15:21:41:126,15:21:41:666,15:21:44:669,left,15:21:44:852,,2018_Jun_11_1458,59.9520616214,MP-Perception Experiment,xx16w21,
241,training(32).mov,False,right,1,vcgpdm_dyn(20)-lvm(25)_final(3).mov,0,81,81,108,,,,,,,,15:21:45:815,15:21:46:353,15:21:49:356,right,15:21:49:673,,2018_Jun_11_1458,59.9520616214,MP-Perception Experiment,xx16w21,
242,training(18).mov,True,right,1,vcgpdm_dyn(25)-lvm(15)_final(6).mov,0,82,82,80,,,,,,,,15:21:50:461,15:21:51:174,15:21:54:176,left,15:21:54:460,,2018_Jun_11_1458,59.9520616214,MP-Perception Experiment,xx16w21,
243,training(23).mov,True,right,1,tmp_numprim(4)_final(9).mov,0,83,83,120,,,,,,,,15:21:55:240,15:21:55:961,15:21:58:965,right,15:21:59:365,,2018_Jun_11_1458,59.9520616214,MP-Perception Experiment,xx16w21,
244,training(32).mov,False,right,1,vgpdm_dyn(10)-lvm(35)_final(5).mov,0,84,84,109,,,,,,,,15:22:00:138,15:22:00:866,15:22:03:869,right,15:22:04:152,,2018_Jun_11_1458,59.9520616214,MP-Perception Experiment,xx16w21,
245,training(11).mov,False,right,1,vgpdm_dyn(35)-lvm(10)_final(0).mov,0,85,85,42,,,,,,,,15:22:04:925,15:22:05:653,15:22:08:656,right,15:22:08:956,,2018_Jun_11_1458,59.9520616214,MP-Perception Experiment,xx16w21,
246,vgpdm_dyn(20)-lvm(20)_final(4).mov,False,left,1,training(15).mov,0,86,86,39,,,,,,,,15:22:09:917,15:22:10:457,15:22:13:460,left,15:22:13:693,,2018_Jun_11_1458,59.9520616214,MP-Perception Experiment,xx16w21,
247,training(39).mov,False,right,1,vgpdm_dyn(30)-lvm(20)_final(4).mov,0,87,87,104,,,,,,,,15:22:14:686,15:22:15:209,15:22:18:196,right,15:22:18:513,,2018_Jun_11_1458,59.9520616214,MP-Perception Experiment,xx16w21,
248,vcgpdm_dyn(5)-lvm(20)_final(9).mov,False,left,1,training(22).mov,0,88,88,132,,,,,,,,15:22:19:465,15:22:20:014,15:22:23:017,left,15:22:23:417,,2018_Jun_11_1458,59.9520616214,MP-Perception Experiment,xx16w21,
249,training(31).mov,True,right,1,tmp_numprim(8)_final(8).mov,0,89,89,133,,,,,,,,15:22:24:378,15:22:24:918,15:22:27:906,right,15:22:28:173,,2018_Jun_11_1458,59.9520616214,MP-Perception Experiment,xx16w21,
250,training(14).mov,False,right,1,vgpdm_dyn(10)-lvm(35)_final(4).mov,0,90,90,89,,,,,,,,15:22:28:957,15:22:29:674,15:22:32:676,right,15:22:32:943,,2018_Jun_11_1458,59.9520616214,MP-Perception Experiment,xx16w21,
251,tmp_numprim(4)_final(7).mov,True,left,1,training(3).mov,0,91,91,21,,,,,,,,15:22:33:914,15:22:34:445,15:22:37:448,left,15:22:37:815,,2018_Jun_11_1458,59.9520616214,MP-Perception Experiment,xx16w21,
252,training(39).mov,True,right,1,vcgpdm_dyn(10)-lvm(20)_final(9).mov,0,92,92,144,,,,,,,,15:22:38:608,15:22:39:316,15:22:42:318,right,15:22:42:368,,2018_Jun_11_1458,59.9520616214,MP-Perception Experiment,xx16w21,
253,vcgpdm_dyn(20)-lvm(10)_final(5).mov,False,left,1,training(13).mov,0,93,93,35,,,,,,,,15:22:43:328,15:22:43:869,15:22:46:872,left,15:22:47:222,,2018_Jun_11_1458,59.9520616214,MP-Perception Experiment,xx16w21,
254,vcgpdm_dyn(25)-lvm(30)_final(2).mov,True,left,1,training(34).mov,0,94,94,16,,,,,,,,15:22:48:189,15:22:48:723,15:22:51:727,left,15:22:51:994,,2018_Jun_11_1458,59.9520616214,MP-Perception Experiment,xx16w21,
255,vgpdm_dyn(5)-lvm(20)_final(5).mov,True,left,1,training(0).mov,0,95,95,30,,,,,,,,15:22:52:782,15:22:53:495,15:22:56:497,left,15:22:56:781,,2018_Jun_11_1458,59.9520616214,MP-Perception Experiment,xx16w21,
256,training(24).mov,True,right,1,vcgpdm_dyn(15)-lvm(25)_final(5).mov,0,96,96,148,,,,,,,,15:22:57:561,15:22:58:282,15:23:01:285,left,15:23:01:568,,2018_Jun_11_1458,59.9520616214,MP-Perception Experiment,xx16w21,
257,dmp_npsi(35)_final(7).mov,False,left,1,training(6).mov,0,97,97,34,,,,,,,,15:23:02:356,15:23:03:069,15:23:06:070,left,15:23:06:420,,2018_Jun_11_1458,59.9520616214,MP-Perception Experiment,xx16w21,
258,training(29).mov,False,right,1,vgpdm_dyn(25)-lvm(30)_final(9).mov,0,98,98,59,,,,,,,,15:23:07:207,15:23:07:921,15:23:10:925,right,15:23:11:242,,2018_Jun_11_1458,59.9520616214,MP-Perception Experiment,xx16w21,
259,training(35).mov,False,right,1,vgpdm_dyn(5)-lvm(10)_final(6).mov,0,99,99,66,,,,,,,,15:23:12:020,15:23:12:743,15:23:15:745,right,15:23:16:062,,2018_Jun_11_1458,59.9520616214,MP-Perception Experiment,xx16w21,
260,training(38).mov,False,right,1,vgpdm_dyn(10)-lvm(10)_final(5).mov,0,100,100,15,,,,,,,,15:23:16:844,15:23:17:564,15:23:20:551,right,15:23:20:818,,2018_Jun_11_1458,59.9520616214,MP-Perception Experiment,xx16w21,
261,dmp_npsi(50)_final(6).mov,True,left,1,training(23).mov,0,101,101,41,,,,,,,,15:23:21:770,15:23:22:319,15:23:25:322,left,15:23:25:722,,2018_Jun_11_1458,59.9520616214,MP-Perception Experiment,xx16w21,
262,vgpdm_dyn(25)-lvm(20)_final(8).mov,True,left,1,training(30).mov,0,102,102,156,,,,,,,,15:23:26:506,15:23:27:224,15:23:30:227,left,15:23:30:527,,2018_Jun_11_1458,59.9520616214,MP-Perception Experiment,xx16w21,
263,training(30).mov,False,right,1,vcgpdm_dyn(10)-lvm(25)_final(8).mov,0,103,103,136,,,,,,,,15:23:31:383,15:23:32:028,15:23:35:031,right,15:23:35:331,,2018_Jun_11_1458,59.9520616214,MP-Perception Experiment,xx16w21,
264,training(11).mov,False,right,1,vcgpdm_dyn(20)-lvm(25)_final(2).mov,0,104,104,102,,,,,,,,15:23:36:116,15:23:36:832,15:23:39:834,right,15:23:40:135,,2018_Jun_11_1458,59.9520616214,MP-Perception Experiment,xx16w21,
265,training(19).mov,False,right,1,dmp_npsi(45)_final(8).mov,0,105,105,49,,,,,,,,15:23:41:100,15:23:41:636,15:23:44:639,right,15:23:45:056,,2018_Jun_11_1458,59.9520616214,MP-Perception Experiment,xx16w21,
266,training(15).mov,False,right,1,vcgpdm_dyn(15)-lvm(20)_final(3).mov,0,106,106,71,,,,,,,,15:23:45:839,15:23:46:557,15:23:49:560,right,15:23:49:760,,2018_Jun_11_1458,59.9520616214,MP-Perception Experiment,xx16w21,
267,vgpdm_dyn(5)-lvm(30)_final(4).mov,True,left,1,training(17).mov,0,107,107,36,,,,,,,,15:23:50:722,15:23:51:261,15:23:54:264,left,15:23:54:681,,2018_Jun_11_1458,59.9520616214,MP-Perception Experiment,xx16w21,
268,training(22).mov,True,right,1,vcgpdm_dyn(25)-lvm(25)_final(7).mov,0,108,108,65,,,,,,,,15:23:55:641,15:23:56:197,15:23:59:199,right,15:23:59:483,,2018_Jun_11_1458,59.9520616214,MP-Perception Experiment,xx16w21,
269,training(37).mov,False,right,1,vcgpdm_dyn(30)-lvm(20)_final(4).mov,0,109,109,90,,,,,,,,15:24:00:438,15:24:00:985,15:24:03:987,right,15:24:04:238,,2018_Jun_11_1458,59.9520616214,MP-Perception Experiment,xx16w21,
270,vcgpdm_dyn(5)-lvm(5)_final(7).mov,True,left,1,training(22).mov,0,110,110,10,,,,,,,,15:24:05:198,15:24:05:739,15:24:08:726,left,15:24:08:977,,2018_Jun_11_1458,59.9520616214,MP-Perception Experiment,xx16w21,
271,training(1).mov,False,right,1,vcgpdm_dyn(35)-lvm(30)_final(8).mov,0,111,111,152,,,,,,,,15:24:09:762,15:24:10:478,15:24:13:480,right,15:24:13:780,,2018_Jun_11_1458,59.9520616214,MP-Perception Experiment,xx16w21,
272,tmp_numprim(10)_final(5).mov,False,left,1,training(23).mov,0,112,112,131,,,,,,,,15:24:14:735,15:24:15:282,15:24:18:284,right,15:24:18:535,,2018_Jun_11_1458,59.9520616214,MP-Perception Experiment,xx16w21,
273,vcgpdm_dyn(10)-lvm(25)_final(3).mov,True,left,1,training(28).mov,0,113,113,54,,,,,,,,15:24:19:334,15:24:20:036,15:24:23:039,left,15:24:23:322,,2018_Jun_11_1458,59.9520616214,MP-Perception Experiment,xx16w21,
274,vgpdm_dyn(15)-lvm(35)_final(9).mov,True,left,1,training(28).mov,0,114,114,51,,,,,,,,15:24:24:103,15:24:24:824,15:24:27:826,left,15:24:28:093,,2018_Jun_11_1458,59.9520616214,MP-Perception Experiment,xx16w21,
275,vcgpdm_dyn(20)-lvm(15)_final(4).mov,False,left,1,training(26).mov,0,115,115,77,,,,,,,,15:24:28:867,15:24:29:594,15:24:32:597,right,15:24:32:730,,2018_Jun_11_1458,59.9520616214,MP-Perception Experiment,xx16w21,
276,vcgpdm_dyn(20)-lvm(25)_final(5).mov,False,left,1,training(4).mov,0,116,116,74,,,,,,,,15:24:33:525,15:24:34:231,15:24:37:235,left,15:24:37:518,,2018_Jun_11_1458,59.9520616214,MP-Perception Experiment,xx16w21,
277,dmp_npsi(15)_final(9).mov,True,left,1,training(5).mov,0,117,117,78,,,,,,,,15:24:38:467,15:24:39:019,15:24:42:022,left,15:24:42:289,,2018_Jun_11_1458,59.9520616214,MP-Perception Experiment,xx16w21,
278,vcgpdm_dyn(5)-lvm(5)_final(7).mov,True,left,1,training(48).mov,0,118,118,32,,,,,,,,15:24:43:059,15:24:43:790,15:24:46:791,left,15:24:47:158,,2018_Jun_11_1458,59.9520616214,MP-Perception Experiment,xx16w21,
279,training(32).mov,True,right,1,dmp_npsi(45)_final(6).mov,0,119,119,79,,,,,,,,15:24:47:943,15:24:48:659,15:24:51:661,left,15:24:51:961,,2018_Jun_11_1458,59.9520616214,MP-Perception Experiment,xx16w21,
280,vcgpdm_dyn(30)-lvm(25)_final(0).mov,False,left,1,training(27).mov,0,120,120,112,,,,,,,,15:24:52:919,15:24:53:464,15:24:56:466,left,15:24:56:750,,2018_Jun_11_1458,59.9520616214,MP-Perception Experiment,xx16w21,
281,training(35).mov,True,right,1,vcgpdm_dyn(5)-lvm(20)_final(8).mov,0,121,121,138,,,,,,,,15:24:57:711,15:24:58:251,15:25:01:238,right,15:25:01:539,,2018_Jun_11_1458,59.9520616214,MP-Perception Experiment,xx16w21,
282,training(12).mov,True,right,1,vcgpdm_dyn(35)-lvm(5)_final(0).mov,0,122,122,119,,,,,,,,15:25:02:313,15:25:03:040,15:25:06:042,right,15:25:06:259,,2018_Jun_11_1458,59.9520616214,MP-Perception Experiment,xx16w21,
283,training(23).mov,True,right,1,vcgpdm_dyn(10)-lvm(5)_final(7).mov,0,123,123,43,,,,,,,,15:25:07:049,15:25:07:760,15:25:10:763,right,15:25:11:314,,2018_Jun_11_1458,59.9520616214,MP-Perception Experiment,xx16w21,
284,training(15).mov,True,right,1,map_cgpdm_final(8).mov,0,124,124,5,,,,,,,,15:25:12:273,15:25:12:815,15:25:15:818,right,15:25:16:068,,2018_Jun_11_1458,59.9520616214,MP-Perception Experiment,xx16w21,
285,vgpdm_dyn(30)-lvm(10)_final(6).mov,False,left,1,training(35).mov,0,125,125,64,,,,,,,,15:25:16:857,15:25:17:569,15:25:20:572,left,15:25:20:839,,2018_Jun_11_1458,59.9520616214,MP-Perception Experiment,xx16w21,
286,vcgpdm_dyn(30)-lvm(15)_final(6).mov,False,left,1,training(10).mov,0,126,126,123,,,,,,,,15:25:21:822,15:25:22:340,15:25:25:342,left,15:25:25:592,,2018_Jun_11_1458,59.9520616214,MP-Perception Experiment,xx16w21,
287,vcgpdm_dyn(20)-lvm(35)_final(4).mov,False,left,1,training(38).mov,0,127,127,135,,,,,,,,15:25:26:381,15:25:27:094,15:25:30:097,left,15:25:30:364,,2018_Jun_11_1458,59.9520616214,MP-Perception Experiment,xx16w21,
288,dmp_npsi(20)_final(1).mov,True,left,1,training(7).mov,0,128,128,124,,,,,,,,15:25:31:366,15:25:31:882,15:25:34:866,left,15:25:35:183,,2018_Jun_11_1458,59.9520616214,MP-Perception Experiment,xx16w21,
289,dmp_npsi(35)_final(7).mov,False,left,1,training(25).mov,0,129,129,44,,,,,,,,15:25:35:950,15:25:36:684,15:25:39:686,left,15:25:39:987,,2018_Jun_11_1458,59.9520616214,MP-Perception Experiment,xx16w21,
290,vcgpdm_dyn(10)-lvm(5)_final(4).mov,False,left,1,training(12).mov,0,130,130,63,,,,,,,,15:25:40:767,15:25:41:488,15:25:44:490,left,15:25:44:724,,2018_Jun_11_1458,59.9520616214,MP-Perception Experiment,xx16w21,
291,map_gpdm_final(7).mov,False,left,1,training(30).mov,0,131,131,70,,,,,,,,15:25:45:508,15:25:46:228,15:25:49:213,left,15:25:49:580,,2018_Jun_11_1458,59.9520616214,MP-Perception Experiment,xx16w21,
292,training(31).mov,False,right,1,vcgpdm_dyn(30)-lvm(20)_final(2).mov,0,132,132,75,,,,,,,,15:25:50:559,15:25:51:082,15:25:54:084,left,15:25:54:885,,2018_Jun_11_1458,59.9520616214,MP-Perception Experiment,xx16w21,
293,tmp_numprim(9)_final(5).mov,True,left,1,training(28).mov,0,133,133,130,,,,,,,,15:25:55:661,15:25:56:386,15:25:59:388,left,15:25:59:689,,2018_Jun_11_1458,59.9520616214,MP-Perception Experiment,xx16w21,
294,training(39).mov,True,right,1,vgpdm_dyn(20)-lvm(5)_final(5).mov,0,134,134,60,,,,,,,,15:26:00:677,15:26:01:190,15:26:04:193,left,15:26:04:343,,2018_Jun_11_1458,59.9520616214,MP-Perception Experiment,xx16w21,
295,training(37).mov,True,right,1,dmp_npsi(40)_final(3).mov,0,135,135,118,,,,,,,,15:26:05:128,15:26:05:845,15:26:08:847,right,15:26:09:247,,2018_Jun_11_1458,59.9520616214,MP-Perception Experiment,xx16w21,
296,tmp_numprim(2)_final(1).mov,False,left,1,training(41).mov,0,136,136,27,,,,,,,,15:26:10:199,15:26:10:749,15:26:13:751,left,15:26:14:035,,2018_Jun_11_1458,59.9520616214,MP-Perception Experiment,xx16w21,
297,vcgpdm_dyn(5)-lvm(5)_final(7).mov,False,left,1,training(6).mov,0,137,137,23,,,,,,,,15:26:14:997,15:26:15:536,15:26:18:538,left,15:26:18:822,,2018_Jun_11_1458,59.9520616214,MP-Perception Experiment,xx16w21,
298,vcgpdm_dyn(20)-lvm(5)_final(8).mov,True,left,1,training(3).mov,0,138,138,62,,,,,,,,15:26:19:780,15:26:20:323,15:26:23:326,left,15:26:23:610,,2018_Jun_11_1458,59.9520616214,MP-Perception Experiment,xx16w21,
299,tmp_numprim(6)_final(7).mov,True,left,1,training(38).mov,0,139,139,85,,,,,,,,15:26:24:398,15:26:25:126,15:26:28:112,left,15:26:28:412,,2018_Jun_11_1458,59.9520616214,MP-Perception Experiment,xx16w21,
300,training(8).mov,True,right,1,vcgpdm_dyn(20)-lvm(20)_final(7).mov,0,140,140,7,,,,,,,,15:26:29:365,15:26:29:913,15:26:32:916,left,15:26:33:499,,2018_Jun_11_1458,59.9520616214,MP-Perception Experiment,xx16w21,
301,training(48).mov,True,right,1,vcgpdm_dyn(25)-lvm(10)_final(8).mov,0,141,141,97,,,,,,,,15:26:34:458,15:26:35:001,15:26:37:988,right,15:26:38:239,,2018_Jun_11_1458,59.9520616214,MP-Perception Experiment,xx16w21,
302,training(36).mov,True,right,1,map_cgpdm_final(6).mov,0,142,142,67,,,,,,,,15:26:39:207,15:26:39:741,15:26:42:743,right,15:26:43:110,,2018_Jun_11_1458,59.9520616214,MP-Perception Experiment,xx16w21,
303,tmp_numprim(4)_final(4).mov,True,left,1,training(1).mov,0,143,143,157,,,,,,,,15:26:44:067,15:26:44:611,15:26:47:614,left,15:26:47:947,,2018_Jun_11_1458,59.9520616214,MP-Perception Experiment,xx16w21,
304,training(12).mov,False,right,1,vgpdm_dyn(35)-lvm(5)_final(7).mov,0,144,144,115,,,,,,,,15:26:48:727,15:26:49:448,15:26:52:451,right,15:26:52:734,,2018_Jun_11_1458,59.9520616214,MP-Perception Experiment,xx16w21,
305,vcgpdm_dyn(35)-lvm(25)_final(1).mov,True,left,1,training(12).mov,0,145,145,142,,,,,,,,15:26:53:517,15:26:54:236,15:26:57:239,left,15:26:57:556,,2018_Jun_11_1458,59.9520616214,MP-Perception Experiment,xx16w21,
306,training(40).mov,True,right,1,vcgpdm_dyn(5)-lvm(10)_final(8).mov,0,146,146,47,,,,,,,,15:26:58:339,15:26:59:057,15:27:02:060,right,15:27:02:327,,2018_Jun_11_1458,59.9520616214,MP-Perception Experiment,xx16w21,
307,training(13).mov,True,right,1,vgpdm_dyn(10)-lvm(20)_final(7).mov,0,147,147,57,,,,,,,,15:27:03:101,15:27:03:828,15:27:06:830,right,15:27:07:147,,2018_Jun_11_1458,59.9520616214,MP-Perception Experiment,xx16w21,
308,tmp_numprim(8)_final(6).mov,False,left,1,training(34).mov,0,148,148,151,,,,,,,,15:27:07:926,15:27:08:648,15:27:11:651,right,15:27:11:767,,2018_Jun_11_1458,59.9520616214,MP-Perception Experiment,xx16w21,
309,training(36).mov,True,right,1,vgpdm_dyn(20)-lvm(15)_final(7).mov,0,149,149,13,,,,,,,,15:27:12:718,15:27:13:270,15:27:16:270,right,15:27:16:521,,2018_Jun_11_1458,59.9520616214,MP-Perception Experiment,xx16w21,
310,training(16).mov,True,right,1,vgpdm_dyn(35)-lvm(25)_final(9).mov,0,150,150,20,,,,,,,,15:27:17:304,15:27:18:022,15:27:21:024,right,15:27:21:291,,2018_Jun_11_1458,59.9520616214,MP-Perception Experiment,xx16w21,
311,vgpdm_dyn(25)-lvm(20)_final(1).mov,True,left,1,training(35).mov,0,151,151,6,,,,,,,,15:27:22:075,15:27:22:792,15:27:25:795,left,15:27:26:112,,2018_Jun_11_1458,59.9520616214,MP-Perception Experiment,xx16w21,
312,vgpdm_dyn(20)-lvm(30)_final(9).mov,True,left,1,training(27).mov,0,152,152,69,,,,,,,,15:27:26:911,15:27:27:614,15:27:30:617,left,15:27:31:035,,2018_Jun_11_1458,59.9520616214,MP-Perception Experiment,xx16w21,
313,training(22).mov,True,right,1,vcgpdm_dyn(20)-lvm(5)_final(5).mov,0,153,153,61,,,,,,,,15:27:31:847,15:27:32:536,15:27:35:539,right,15:27:35:839,,2018_Jun_11_1458,59.9520616214,MP-Perception Experiment,xx16w21,
314,vgpdm_dyn(5)-lvm(30)_final(1).mov,True,left,1,training(1).mov,0,154,154,48,,,,,,,,15:27:36:623,15:27:37:340,15:27:40:343,left,15:27:40:659,,2018_Jun_11_1458,59.9520616214,MP-Perception Experiment,xx16w21,
315,training(11).mov,False,right,1,dmp_npsi(15)_final(4).mov,0,155,155,155,,,,,,,,15:27:41:630,15:27:42:161,15:27:45:163,right,15:27:45:513,,2018_Jun_11_1458,59.9520616214,MP-Perception Experiment,xx16w21,
316,training(14).mov,False,right,1,vgpdm_dyn(20)-lvm(30)_final(5).mov,0,156,156,158,,,,,,,,15:27:46:300,15:27:47:014,15:27:50:018,right,15:27:50:218,,2018_Jun_11_1458,59.9520616214,MP-Perception Experiment,xx16w21,
317,map_cgpdm_final(5).mov,True,left,1,training(48).mov,0,157,157,82,,,,,,,,15:27:50:999,15:27:51:719,15:27:54:722,left,15:27:55:055,,2018_Jun_11_1458,59.9520616214,MP-Perception Experiment,xx16w21,
318,training(6).mov,False,right,1,vcgpdm_dyn(25)-lvm(15)_final(8).mov,0,158,158,9,,,,,,,,15:27:55:839,15:27:56:557,15:27:59:559,right,15:27:59:843,,2018_Jun_11_1458,59.9520616214,MP-Perception Experiment,xx16w21,
319,training(5).mov,True,right,2,vgpdm_dyn(15)-lvm(25)_final(0).mov,0,0,0,31,,,,,,,,15:30:47:386,15:30:48:155,15:30:51:149,left,15:30:51:775,,2018_Jun_11_1458,59.9520616214,MP-Perception Experiment,xx16w21,
320,training(27).mov,False,right,2,vcgpdm_dyn(10)-lvm(15)_final(4).mov,0,1,1,79,,,,,,,,15:30:52:562,15:30:53:276,15:30:56:278,right,15:30:56:612,,2018_Jun_11_1458,59.9520616214,MP-Perception Experiment,xx16w21,
321,vcgpdm_dyn(15)-lvm(10)_final(6).mov,True,left,2,training(9).mov,0,2,2,138,,,,,,,,15:30:57:404,15:30:58:113,15:31:01:117,left,15:31:01:584,,2018_Jun_11_1458,59.9520616214,MP-Perception Experiment,xx16w21,
322,training(12).mov,False,right,2,tmp_numprim(10)_final(1).mov,0,3,3,28,,,,,,,,15:31:02:363,15:31:03:085,15:31:06:087,right,15:31:06:354,,2018_Jun_11_1458,59.9520616214,MP-Perception Experiment,xx16w21,
323,training(18).mov,False,right,2,vcgpdm_dyn(5)-lvm(25)_final(0).mov,0,4,4,1,,,,,,,,15:31:07:321,15:31:07:855,15:31:10:858,right,15:31:11:108,,2018_Jun_11_1458,59.9520616214,MP-Perception Experiment,xx16w21,
324,training(18).mov,False,right,2,vcgpdm_dyn(25)-lvm(20)_final(2).mov,0,5,5,18,,,,,,,,15:31:11:892,15:31:12:609,15:31:15:612,right,15:31:15:912,,2018_Jun_11_1458,59.9520616214,MP-Perception Experiment,xx16w21,
325,training(12).mov,True,right,2,vgpdm_dyn(30)-lvm(5)_final(6).mov,0,6,6,35,,,,,,,,15:31:16:696,15:31:17:413,15:31:20:417,right,15:31:20:667,,2018_Jun_11_1458,59.9520616214,MP-Perception Experiment,xx16w21,
326,training(20).mov,False,right,2,vgpdm_dyn(35)-lvm(5)_final(2).mov,0,7,7,115,,,,,,,,15:31:21:627,15:31:22:168,15:31:25:169,right,15:31:25:435,,2018_Jun_11_1458,59.9520616214,MP-Perception Experiment,xx16w21,
327,vcgpdm_dyn(30)-lvm(15)_final(8).mov,False,left,2,training(31).mov,0,8,8,0,,,,,,,,15:31:26:233,15:31:26:937,15:31:29:939,right,15:31:30:423,,2018_Jun_11_1458,59.9520616214,MP-Perception Experiment,xx16w21,
328,vgpdm_dyn(15)-lvm(5)_final(8).mov,True,left,2,training(2).mov,0,9,9,52,,,,,,,,15:31:31:200,15:31:31:924,15:31:34:926,left,15:31:35:310,,2018_Jun_11_1458,59.9520616214,MP-Perception Experiment,xx16w21,
329,vgpdm_dyn(30)-lvm(15)_final(7).mov,False,left,2,training(40).mov,0,10,10,137,,,,,,,,15:31:36:279,15:31:36:812,15:31:39:800,left,15:31:40:350,,2018_Jun_11_1458,59.9520616214,MP-Perception Experiment,xx16w21,
330,training(20).mov,False,right,2,vcgpdm_dyn(25)-lvm(25)_final(5).mov,0,11,11,113,,,,,,,,15:31:41:308,15:31:41:851,15:31:44:854,right,15:31:45:154,,2018_Jun_11_1458,59.9520616214,MP-Perception Experiment,xx16w21,
331,training(41).mov,True,right,2,vgpdm_dyn(30)-lvm(30)_final(5).mov,0,12,12,93,,,,,,,,15:31:45:935,15:31:46:655,15:31:49:658,right,15:31:49:958,,2018_Jun_11_1458,59.9520616214,MP-Perception Experiment,xx16w21,
332,training(25).mov,False,right,2,vcgpdm_dyn(15)-lvm(10)_final(2).mov,0,13,13,75,,,,,,,,15:31:50:739,15:31:51:459,15:31:54:463,right,15:31:54:813,,2018_Jun_11_1458,59.9520616214,MP-Perception Experiment,xx16w21,
333,training(18).mov,True,right,2,vgpdm_dyn(35)-lvm(15)_final(2)_out_of_screen.mov,0,14,14,122,,,,,,,,15:31:55:607,15:31:56:314,15:31:59:317,right,15:31:59:684,,2018_Jun_11_1458,59.9520616214,MP-Perception Experiment,xx16w21,
334,training(4).mov,True,right,2,tmp_numprim(3)_final(7).mov,0,15,15,125,,,,,,,,15:32:00:462,15:32:01:185,15:32:04:187,right,15:32:04:571,,2018_Jun_11_1458,59.9520616214,MP-Perception Experiment,xx16w21,
335,vgpdm_dyn(30)-lvm(5)_final(8).mov,True,left,2,training(31).mov,0,16,16,16,,,,,,,,15:32:05:346,15:32:06:072,15:32:09:075,left,15:32:09:408,,2018_Jun_11_1458,59.9520616214,MP-Perception Experiment,xx16w21,
336,vcgpdm_dyn(20)-lvm(20)_final(7).mov,True,left,2,training(32).mov,0,17,17,146,,,,,,,,15:32:10:186,15:32:10:910,15:32:13:913,right,15:32:14:263,,2018_Jun_11_1458,59.9520616214,MP-Perception Experiment,xx16w21,
337,training(35).mov,True,right,2,vgpdm_dyn(5)-lvm(15)_final(4).mov,0,18,18,24,,,,,,,,15:32:15:044,15:32:15:779,15:32:18:765,right,15:32:19:048,,2018_Jun_11_1458,59.9520616214,MP-Perception Experiment,xx16w21,
338,vcgpdm_dyn(35)-lvm(30)_final(8).mov,True,left,2,training(41).mov,0,19,19,72,,,,,,,,15:32:19:833,15:32:20:550,15:32:23:552,left,15:32:23:836,,2018_Jun_11_1458,59.9520616214,MP-Perception Experiment,xx16w21,
339,training(2).mov,True,right,2,vcgpdm_dyn(35)-lvm(30)_final(5).mov,0,20,20,36,,,,,,,,15:32:24:610,15:32:25:337,15:32:28:325,right,15:32:28:642,,2018_Jun_11_1458,59.9520616214,MP-Perception Experiment,xx16w21,
340,vcgpdm_dyn(15)-lvm(25)_final(3).mov,False,left,2,training(0).mov,0,21,21,34,,,,,,,,15:32:29:450,15:32:30:143,15:32:33:146,left,15:32:33:446,,2018_Jun_11_1458,59.9520616214,MP-Perception Experiment,xx16w21,
341,training(10).mov,True,right,2,vcgpdm_dyn(30)-lvm(35)_final(0).mov,0,22,22,44,,,,,,,,15:32:34:239,15:32:34:947,15:32:37:950,left,15:32:38:250,,2018_Jun_11_1458,59.9520616214,MP-Perception Experiment,xx16w21,
342,training(1).mov,False,right,2,vgpdm_dyn(5)-lvm(15)_final(3).mov,0,23,23,66,,,,,,,,15:32:39:034,15:32:39:751,15:32:42:754,right,15:32:43:004,,2018_Jun_11_1458,59.9520616214,MP-Perception Experiment,xx16w21,
343,training(21).mov,False,right,2,vcgpdm_dyn(15)-lvm(35)_final(7).mov,0,24,24,145,,,,,,,,15:32:43:788,15:32:44:505,15:32:47:509,right,15:32:47:759,,2018_Jun_11_1458,59.9520616214,MP-Perception Experiment,xx16w21,
344,vgpdm_dyn(15)-lvm(25)_final(2).mov,False,left,2,training(25).mov,0,25,25,27,,,,,,,,15:32:48:722,15:32:49:260,15:32:52:262,right,15:32:52:479,,2018_Jun_11_1458,59.9520616214,MP-Perception Experiment,xx16w21,
345,vcgpdm_dyn(35)-lvm(25)_final(4).mov,True,left,2,training(13).mov,0,26,26,127,,,,,,,,15:32:53:260,15:32:53:980,15:32:56:983,left,15:32:57:300,,2018_Jun_11_1458,59.9520616214,MP-Perception Experiment,xx16w21,
346,training(33).mov,False,right,2,vcgpdm_dyn(25)-lvm(25)_final(0).mov,0,27,27,13,,,,,,,,15:32:58:269,15:32:58:801,15:33:01:803,right,15:33:02:104,,2018_Jun_11_1458,59.9520616214,MP-Perception Experiment,xx16w21,
347,training(36).mov,True,right,2,map_gpdm_final(5).mov,0,28,28,118,,,,,,,,15:33:02:891,15:33:03:606,15:33:06:607,right,15:33:06:907,,2018_Jun_11_1458,59.9520616214,MP-Perception Experiment,xx16w21,
348,vgpdm_dyn(20)-lvm(15)_final(7).mov,False,left,2,training(38).mov,0,29,29,126,,,,,,,,15:33:07:870,15:33:08:408,15:33:11:410,right,15:33:11:544,,2018_Jun_11_1458,59.9520616214,MP-Perception Experiment,xx16w21,
349,training(11).mov,False,right,2,vgpdm_dyn(20)-lvm(25)_final(2).mov,0,30,30,88,,,,,,,,15:33:12:321,15:33:13:045,15:33:16:047,right,15:33:18:783,,2018_Jun_11_1458,59.9520616214,MP-Perception Experiment,xx16w21,
350,dmp_npsi(50)_final(6).mov,True,left,2,training(2).mov,0,31,31,37,,,,,,,,15:33:19:746,15:33:20:286,15:33:23:289,left,15:33:23:590,,2018_Jun_11_1458,59.9520616214,MP-Perception Experiment,xx16w21,
351,vgpdm_dyn(20)-lvm(5)_final(7).mov,True,left,2,training(24).mov,0,32,32,85,,,,,,,,15:33:24:363,15:33:25:091,15:33:28:093,left,15:33:28:594,,2018_Jun_11_1458,59.9520616214,MP-Perception Experiment,xx16w21,
352,vcgpdm_dyn(15)-lvm(5)_final(4).mov,True,left,2,training(16).mov,0,33,33,41,,,,,,,,15:33:29:566,15:33:30:095,15:33:33:097,left,15:33:33:448,,2018_Jun_11_1458,59.9520616214,MP-Perception Experiment,xx16w21,
353,vcgpdm_dyn(35)-lvm(5)_final(5).mov,False,left,2,training(21).mov,0,34,34,7,,,,,,,,15:33:34:223,15:33:34:949,15:33:37:952,right,15:33:38:286,,2018_Jun_11_1458,59.9520616214,MP-Perception Experiment,xx16w21,
354,vgpdm_dyn(25)-lvm(35)_final(1).mov,True,left,2,training(9).mov,0,35,35,152,,,,,,,,15:33:39:250,15:33:39:787,15:33:42:790,left,15:33:43:157,,2018_Jun_11_1458,59.9520616214,MP-Perception Experiment,xx16w21,
355,training(17).mov,False,right,2,dmp_npsi(20)_final(4).mov,0,36,36,17,,,,,,,,15:33:43:924,15:33:44:658,15:33:47:660,right,15:33:48:127,,2018_Jun_11_1458,59.9520616214,MP-Perception Experiment,xx16w21,
356,training(34).mov,False,right,2,vgpdm_dyn(20)-lvm(20)_final(2).mov,0,37,37,69,,,,,,,,15:33:49:095,15:33:49:628,15:33:52:631,right,15:33:53:098,,2018_Jun_11_1458,59.9520616214,MP-Perception Experiment,xx16w21,
357,dmp_npsi(25)_final(6).mov,False,left,2,training(34).mov,0,38,38,29,,,,,,,,15:33:53:879,15:33:54:599,15:33:57:601,left,15:33:57:968,,2018_Jun_11_1458,59.9520616214,MP-Perception Experiment,xx16w21,
358,vcgpdm_dyn(25)-lvm(10)_final(9).mov,False,left,2,training(16).mov,0,39,39,23,,,,,,,,15:33:58:947,15:33:59:469,15:34:02:471,left,15:34:02:838,,2018_Jun_11_1458,59.9520616214,MP-Perception Experiment,xx16w21,
359,training(39).mov,False,right,2,vgpdm_dyn(20)-lvm(30)_final(4).mov,0,40,40,42,,,,,,,,15:34:03:622,15:34:04:339,15:34:07:342,right,15:34:07:759,,2018_Jun_11_1458,59.9520616214,MP-Perception Experiment,xx16w21,
360,vgpdm_dyn(30)-lvm(30)_final(4).mov,False,left,2,training(21).mov,0,41,41,128,,,,,,,,15:34:08:533,15:34:09:262,15:34:12:248,right,15:34:12:514,,2018_Jun_11_1458,59.9520616214,MP-Perception Experiment,xx16w21,
361,vgpdm_dyn(35)-lvm(30)_final(3).mov,False,left,2,training(5).mov,0,42,42,142,,,,,,,,15:34:13:291,15:34:14:017,15:34:17:019,left,15:34:17:319,,2018_Jun_11_1458,59.9520616214,MP-Perception Experiment,xx16w21,
362,vcgpdm_dyn(15)-lvm(35)_final(9).mov,False,left,2,training(0).mov,0,43,43,56,,,,,,,,15:34:18:109,15:34:18:820,15:34:21:823,left,15:34:22:140,,2018_Jun_11_1458,59.9520616214,MP-Perception Experiment,xx16w21,
363,vgpdm_dyn(30)-lvm(20)_final(5).mov,False,left,2,training(5).mov,0,44,44,74,,,,,,,,15:34:22:930,15:34:23:641,15:34:26:644,right,15:34:26:910,,2018_Jun_11_1458,59.9520616214,MP-Perception Experiment,xx16w21,
364,vgpdm_dyn(25)-lvm(20)_final(4).mov,True,left,2,training(22).mov,0,45,45,60,,,,,,,,15:34:27:693,15:34:28:412,15:34:31:415,left,15:34:31:715,,2018_Jun_11_1458,59.9520616214,MP-Perception Experiment,xx16w21,
365,training(10).mov,True,right,2,vcgpdm_dyn(10)-lvm(15)_final(4).mov,0,46,46,50,,,,,,,,15:34:32:495,15:34:33:216,15:34:36:219,right,15:34:36:536,,2018_Jun_11_1458,59.9520616214,MP-Perception Experiment,xx16w21,
366,tmp_numprim(7)_final(0).mov,True,left,2,training(4).mov,0,47,47,80,,,,,,,,15:34:37:495,15:34:38:037,15:34:41:040,left,15:34:41:156,,2018_Jun_11_1458,59.9520616214,MP-Perception Experiment,xx16w21,
367,training(31).mov,True,right,2,map_cgpdm_final(3).mov,0,48,48,22,,,,,,,,15:34:42:126,15:34:42:657,15:34:45:658,right,15:34:45:975,,2018_Jun_11_1458,59.9520616214,MP-Perception Experiment,xx16w21,
368,training(17).mov,True,right,2,vgpdm_dyn(35)-lvm(30)_final(5).mov,0,49,49,90,,,,,,,,15:34:46:762,15:34:47:476,15:34:50:480,right,15:34:50:763,,2018_Jun_11_1458,59.9520616214,MP-Perception Experiment,xx16w21,
369,training(5).mov,False,right,2,vgpdm_dyn(5)-lvm(15)_final(4).mov,0,50,50,26,,,,,,,,15:34:51:720,15:34:52:264,15:34:55:267,right,15:34:55:634,,2018_Jun_11_1458,59.9520616214,MP-Perception Experiment,xx16w21,
370,dmp_npsi(10)_final(3)_bad.mov,True,left,2,training(21).mov,0,51,51,107,,,,,,,,15:34:56:591,15:34:57:135,15:35:00:123,left,15:35:00:473,,2018_Jun_11_1458,59.9520616214,MP-Perception Experiment,xx16w21,
371,vgpdm_dyn(30)-lvm(10)_final(4).mov,True,left,2,training(2).mov,0,52,52,51,,,,,,,,15:35:01:443,15:35:01:974,15:35:04:977,left,15:35:05:278,,2018_Jun_11_1458,59.9520616214,MP-Perception Experiment,xx16w21,
372,vgpdm_dyn(30)-lvm(25)_final(9).mov,False,left,2,training(32).mov,0,53,53,47,,,,,,,,15:35:06:251,15:35:06:779,15:35:09:781,left,15:35:10:082,,2018_Jun_11_1458,59.9520616214,MP-Perception Experiment,xx16w21,
373,training(9).mov,True,right,2,vcgpdm_dyn(15)-lvm(15)_final(8).mov,0,54,54,38,,,,,,,,15:35:11:042,15:35:11:583,15:35:14:585,right,15:35:14:669,,2018_Jun_11_1458,59.9520616214,MP-Perception Experiment,xx16w21,
374,vcgpdm_dyn(30)-lvm(20)_final(4).mov,False,left,2,training(48).mov,0,55,55,81,,,,,,,,15:35:15:630,15:35:16:170,15:35:19:172,left,15:35:19:556,,2018_Jun_11_1458,59.9520616214,MP-Perception Experiment,xx16w21,
375,training(29).mov,True,right,2,tmp_numprim(10)_final(6).mov,0,56,56,144,,,,,,,,15:35:20:345,15:35:21:057,15:35:24:061,right,15:35:24:111,,2018_Jun_11_1458,59.9520616214,MP-Perception Experiment,xx16w21,
376,training(2).mov,False,right,2,vcgpdm_dyn(10)-lvm(25)_final(1).mov,0,57,57,130,,,,,,,,15:35:24:888,15:35:25:628,15:35:28:614,right,15:35:28:948,,2018_Jun_11_1458,59.9520616214,MP-Perception Experiment,xx16w21,
377,vgpdm_dyn(35)-lvm(25)_final(4).mov,True,left,2,training(40).mov,0,58,58,20,,,,,,,,15:35:29:738,15:35:30:449,15:35:33:452,left,15:35:33:785,,2018_Jun_11_1458,59.9520616214,MP-Perception Experiment,xx16w21,
378,training(30).mov,False,right,2,vgpdm_dyn(35)-lvm(25)_final(0).mov,0,59,59,49,,,,,,,,15:35:34:566,15:35:35:301,15:35:38:287,right,15:35:38:554,,2018_Jun_11_1458,59.9520616214,MP-Perception Experiment,xx16w21,
379,training(21).mov,True,right,2,vgpdm_dyn(20)-lvm(25)_final(8).mov,0,60,60,32,,,,,,,,15:35:39:329,15:35:40:055,15:35:43:058,right,15:35:43:409,,2018_Jun_11_1458,59.9520616214,MP-Perception Experiment,xx16w21,
380,vcgpdm_dyn(35)-lvm(30)_final(4).mov,True,left,2,training(36).mov,0,61,61,2,,,,,,,,15:35:44:192,15:35:44:910,15:35:47:897,left,15:35:48:231,,2018_Jun_11_1458,59.9520616214,MP-Perception Experiment,xx16w21,
381,tmp_numprim(4)_final(3).mov,True,left,2,training(32).mov,0,62,62,33,,,,,,,,15:35:49:224,15:35:49:732,15:35:52:735,left,15:35:53:035,,2018_Jun_11_1458,59.9520616214,MP-Perception Experiment,xx16w21,
382,training(14).mov,True,right,2,vcgpdm_dyn(10)-lvm(10)_final(3).mov,0,63,63,92,,,,,,,,15:35:53:808,15:35:54:536,15:35:57:539,right,15:35:57:840,,2018_Jun_11_1458,59.9520616214,MP-Perception Experiment,xx16w21,
383,vcgpdm_dyn(25)-lvm(15)_final(6).mov,False,left,2,training(25).mov,0,64,64,64,,,,,,,,15:35:58:612,15:35:59:341,15:36:02:344,left,15:36:02:660,,2018_Jun_11_1458,59.9520616214,MP-Perception Experiment,xx16w21,
384,training(29).mov,False,right,2,dmp_npsi(30)_final(9).mov,0,65,65,61,,,,,,,,15:36:03:440,15:36:04:161,15:36:07:164,right,15:36:07:498,,2018_Jun_11_1458,59.9520616214,MP-Perception Experiment,xx16w21,
385,vcgpdm_dyn(20)-lvm(10)_final(7).mov,True,left,2,training(17).mov,0,66,66,148,,,,,,,,15:36:08:296,15:36:08:999,15:36:12:001,left,15:36:12:335,,2018_Jun_11_1458,59.9520616214,MP-Perception Experiment,xx16w21,
386,training(27).mov,False,right,2,vgpdm_dyn(25)-lvm(30)_final(1).mov,0,67,67,53,,,,,,,,15:36:13:106,15:36:13:836,15:36:16:840,right,15:36:17:156,,2018_Jun_11_1458,59.9520616214,MP-Perception Experiment,xx16w21,
387,training(32).mov,True,right,2,vcgpdm_dyn(15)-lvm(5)_final(2).mov,0,68,68,104,,,,,,,,15:36:18:121,15:36:18:658,15:36:21:660,right,15:36:21:994,,2018_Jun_11_1458,59.9520616214,MP-Perception Experiment,xx16w21,
388,vcgpdm_dyn(10)-lvm(20)_final(1).mov,True,left,2,training(19).mov,0,69,69,12,,,,,,,,15:36:22:767,15:36:23:495,15:36:26:496,left,15:36:26:829,,2018_Jun_11_1458,59.9520616214,MP-Perception Experiment,xx16w21,
389,training(28).mov,True,right,2,vcgpdm_dyn(5)-lvm(10)_final(8).mov,0,70,70,150,,,,,,,,15:36:27:787,15:36:28:330,15:36:31:333,right,15:36:31:650,,2018_Jun_11_1458,59.9520616214,MP-Perception Experiment,xx16w21,
390,training(34).mov,True,right,2,vgpdm_dyn(15)-lvm(35)_final(7).mov,0,71,71,9,,,,,,,,15:36:32:443,15:36:33:152,15:36:36:154,right,15:36:36:455,,2018_Jun_11_1458,59.9520616214,MP-Perception Experiment,xx16w21,
391,training(17).mov,True,right,2,vcgpdm_dyn(15)-lvm(10)_final(5).mov,0,72,72,11,,,,,,,,15:36:37:230,15:36:37:956,15:36:40:943,right,15:36:41:244,,2018_Jun_11_1458,59.9520616214,MP-Perception Experiment,xx16w21,
392,training(2).mov,True,right,2,dmp_npsi(30)_final(0).mov,0,73,73,158,,,,,,,,15:36:42:035,15:36:42:745,15:36:45:747,right,15:36:46:081,,2018_Jun_11_1458,59.9520616214,MP-Perception Experiment,xx16w21,
393,training(38).mov,True,right,2,vcgpdm_dyn(10)-lvm(30)_final(3).mov,0,74,74,58,,,,,,,,15:36:46:860,15:36:47:582,15:36:50:586,right,15:36:50:936,,2018_Jun_11_1458,59.9520616214,MP-Perception Experiment,xx16w21,
394,training(26).mov,False,right,2,vgpdm_dyn(20)-lvm(35)_final(0).mov,0,75,75,76,,,,,,,,15:36:51:712,15:36:52:437,15:36:55:439,right,15:36:55:706,,2018_Jun_11_1458,59.9520616214,MP-Perception Experiment,xx16w21,
395,training(37).mov,True,right,2,vcgpdm_dyn(35)-lvm(25)_final(8).mov,0,76,76,100,,,,,,,,15:36:56:488,15:36:57:207,15:37:00:210,right,15:37:00:543,,2018_Jun_11_1458,59.9520616214,MP-Perception Experiment,xx16w21,
396,training(26).mov,False,right,2,vcgpdm_dyn(30)-lvm(10)_final(4).mov,0,77,77,106,,,,,,,,15:37:01:396,15:37:02:045,15:37:05:047,right,15:37:05:364,,2018_Jun_11_1458,59.9520616214,MP-Perception Experiment,xx16w21,
397,training(36).mov,False,right,2,vgpdm_dyn(10)-lvm(5)_final(0).mov,0,78,78,89,,,,,,,,15:37:06:328,15:37:06:865,15:37:09:869,right,15:37:10:469,,2018_Jun_11_1458,59.9520616214,MP-Perception Experiment,xx16w21,
398,training(19).mov,False,right,2,dmp_npsi(35)_final(5).mov,0,79,79,102,,,,,,,,15:37:11:431,15:37:11:970,15:37:14:973,right,15:37:15:321,,2018_Jun_11_1458,59.9520616214,MP-Perception Experiment,xx16w21,
399,vgpdm_dyn(10)-lvm(20)_final(2).mov,True,left,2,training(48).mov,0,80,80,135,,,,,,,,15:37:16:271,15:37:16:822,15:37:19:825,left,15:37:20:158,,2018_Jun_11_1458,59.9520616214,MP-Perception Experiment,xx16w21,
400,vgpdm_dyn(20)-lvm(15)_final(0).mov,True,left,2,training(10).mov,0,81,81,55,,,,,,,,15:37:21:116,15:37:21:660,15:37:24:662,right,15:37:24:862,,2018_Jun_11_1458,59.9520616214,MP-Perception Experiment,xx16w21,
401,vgpdm_dyn(10)-lvm(10)_final(0).mov,False,left,2,training(33).mov,0,82,82,157,,,,,,,,15:37:25:650,15:37:26:366,15:37:29:352,right,15:37:29:552,,2018_Jun_11_1458,59.9520616214,MP-Perception Experiment,xx16w21,
402,vcgpdm_dyn(25)-lvm(15)_final(5).mov,False,left,2,training(22).mov,0,83,83,114,,,,,,,,15:37:31:531,15:37:31:532,15:37:34:056,right,15:37:34:790,,2018_Jun_11_1458,59.9520616214,MP-Perception Experiment,xx16w21,
403,dmp_npsi(40)_final(5).mov,False,left,2,training(40).mov,0,84,84,124,,,,,,,,15:37:35:579,15:37:36:291,15:37:39:294,left,15:37:39:594,,2018_Jun_11_1458,59.9520616214,MP-Perception Experiment,xx16w21,
404,training(12).mov,False,right,2,dmp_npsi(40)_final(2).mov,0,85,85,99,,,,,,,,15:37:40:557,15:37:41:095,15:37:44:098,right,15:37:44:449,,2018_Jun_11_1458,59.9520616214,MP-Perception Experiment,xx16w21,
405,training(5).mov,False,right,2,vgpdm_dyn(15)-lvm(15)_final(8).mov,0,86,86,108,,,,,,,,15:37:45:248,15:37:45:950,15:37:48:952,right,15:37:49:336,,2018_Jun_11_1458,59.9520616214,MP-Perception Experiment,xx16w21,
406,vcgpdm_dyn(30)-lvm(15)_final(9).mov,True,left,2,training(11).mov,0,87,87,153,,,,,,,,15:37:50:300,15:37:50:837,15:37:53:840,left,15:37:54:123,,2018_Jun_11_1458,59.9520616214,MP-Perception Experiment,xx16w21,
407,training(8).mov,False,right,2,vcgpdm_dyn(30)-lvm(20)_final(3).mov,0,88,88,48,,,,,,,,15:37:55:084,15:37:55:624,15:37:58:627,right,15:37:58:844,,2018_Jun_11_1458,59.9520616214,MP-Perception Experiment,xx16w21,
408,training(4).mov,False,right,2,vcgpdm_dyn(25)-lvm(5)_final(8).mov,0,89,89,83,,,,,,,,15:37:59:625,15:38:00:346,15:38:03:348,right,15:38:03:665,,2018_Jun_11_1458,59.9520616214,MP-Perception Experiment,xx16w21,
409,vcgpdm_dyn(10)-lvm(5)_final(7).mov,False,left,2,training(19).mov,0,90,90,149,,,,,,,,15:38:04:440,15:38:05:181,15:38:08:167,left,15:38:08:501,,2018_Jun_11_1458,59.9520616214,MP-Perception Experiment,xx16w21,
410,training(21).mov,True,right,2,tmp_numprim(8)_final(3).mov,0,91,91,59,,,,,,,,15:38:09:280,15:38:10:002,15:38:13:004,right,15:38:13:304,,2018_Jun_11_1458,59.9520616214,MP-Perception Experiment,xx16w21,
411,tmp_numprim(4)_final(5).mov,False,left,2,training(12).mov,0,92,92,30,,,,,,,,15:38:14:109,15:38:14:806,15:38:17:794,left,15:38:18:145,,2018_Jun_11_1458,59.9520616214,MP-Perception Experiment,xx16w21,
412,vcgpdm_dyn(30)-lvm(35)_final(6).mov,False,left,2,training(11).mov,0,93,93,119,,,,,,,,15:38:18:968,15:38:19:646,15:38:22:648,left,15:38:22:998,,2018_Jun_11_1458,59.9520616214,MP-Perception Experiment,xx16w21,
413,training(2).mov,True,right,2,vgpdm_dyn(30)-lvm(5)_final(2).mov,0,94,94,98,,,,,,,,15:38:23:770,15:38:24:499,15:38:27:502,right,15:38:27:786,,2018_Jun_11_1458,59.9520616214,MP-Perception Experiment,xx16w21,
414,vcgpdm_dyn(5)-lvm(20)_final(1).mov,False,left,2,training(15).mov,0,95,95,112,,,,,,,,15:38:28:685,15:38:29:287,15:38:32:289,left,15:38:32:623,,2018_Jun_11_1458,59.9520616214,MP-Perception Experiment,xx16w21,
415,training(29).mov,True,right,2,vcgpdm_dyn(20)-lvm(25)_final(1).mov,0,96,96,134,,,,,,,,15:38:33:392,15:38:34:124,15:38:37:128,right,15:38:37:444,,2018_Jun_11_1458,59.9520616214,MP-Perception Experiment,xx16w21,
416,vgpdm_dyn(10)-lvm(15)_final(3).mov,False,left,2,training(30).mov,0,97,97,67,,,,,,,,15:38:38:397,15:38:38:945,15:38:41:948,left,15:38:42:148,,2018_Jun_11_1458,59.9520616214,MP-Perception Experiment,xx16w21,
417,training(14).mov,False,right,2,tmp_numprim(10)_final(6).mov,0,98,98,77,,,,,,,,15:38:42:926,15:38:43:649,15:38:46:652,right,15:38:47:035,,2018_Jun_11_1458,59.9520616214,MP-Perception Experiment,xx16w21,
418,vcgpdm_dyn(25)-lvm(35)_final(1).mov,True,left,2,training(19).mov,0,99,99,19,,,,,,,,15:38:47:994,15:38:48:537,15:38:51:539,left,15:38:51:889,,2018_Jun_11_1458,59.9520616214,MP-Perception Experiment,xx16w21,
419,vgpdm_dyn(30)-lvm(35)_final(3).mov,True,left,2,training(24).mov,0,100,100,65,,,,,,,,15:38:52:671,15:38:53:391,15:38:56:392,left,15:38:56:943,,2018_Jun_11_1458,59.9520616214,MP-Perception Experiment,xx16w21,
420,vgpdm_dyn(10)-lvm(5)_final(7).mov,True,left,2,training(17).mov,0,101,101,46,,,,,,,,15:38:57:896,15:38:58:444,15:39:01:446,left,15:39:01:763,,2018_Jun_11_1458,59.9520616214,MP-Perception Experiment,xx16w21,
421,dmp_npsi(35)_final(0).mov,False,left,2,training(16).mov,0,102,102,154,,,,,,,,15:39:02:642,15:39:03:264,15:39:06:269,left,15:39:06:802,,2018_Jun_11_1458,59.9520616214,MP-Perception Experiment,xx16w21,
422,vgpdm_dyn(30)-lvm(35)_final(0).mov,True,left,2,training(13).mov,0,103,103,4,,,,,,,,15:39:07:759,15:39:08:303,15:39:11:307,right,15:39:11:591,,2018_Jun_11_1458,59.9520616214,MP-Perception Experiment,xx16w21,
423,vcgpdm_dyn(25)-lvm(20)_final(5).mov,True,left,2,training(28).mov,0,104,104,140,,,,,,,,15:39:12:544,15:39:13:092,15:39:16:094,left,15:39:16:461,,2018_Jun_11_1458,59.9520616214,MP-Perception Experiment,xx16w21,
424,vgpdm_dyn(25)-lvm(5)_final(3).mov,False,left,2,training(13).mov,0,105,105,45,,,,,,,,15:39:17:432,15:39:17:962,15:39:20:965,left,15:39:21:215,,2018_Jun_11_1458,59.9520616214,MP-Perception Experiment,xx16w21,
425,training(9).mov,True,right,2,vcgpdm_dyn(25)-lvm(35)_final(6).mov,0,106,106,43,,,,,,,,15:39:22:170,15:39:22:716,15:39:25:719,right,15:39:26:036,,2018_Jun_11_1458,59.9520616214,MP-Perception Experiment,xx16w21,
426,training(34).mov,False,right,2,vcgpdm_dyn(35)-lvm(25)_final(3).mov,0,107,107,57,,,,,,,,15:39:26:820,15:39:27:538,15:39:30:540,right,15:39:30:924,,2018_Jun_11_1458,59.9520616214,MP-Perception Experiment,xx16w21,
427,vcgpdm_dyn(30)-lvm(30)_final(8).mov,False,left,2,training(8).mov,0,108,108,54,,,,,,,,15:39:31:822,15:39:32:425,15:39:35:428,left,15:39:35:728,,2018_Jun_11_1458,59.9520616214,MP-Perception Experiment,xx16w21,
428,training(8).mov,False,right,2,vcgpdm_dyn(10)-lvm(35)_final(9).mov,0,109,109,68,,,,,,,,15:39:36:503,15:39:37:229,15:39:40:231,right,15:39:40:548,,2018_Jun_11_1458,59.9520616214,MP-Perception Experiment,xx16w21,
429,vgpdm_dyn(10)-lvm(5)_final(8).mov,True,left,2,training(8).mov,0,110,110,40,,,,,,,,15:39:41:520,15:39:42:049,15:39:45:053,left,15:39:45:351,,2018_Jun_11_1458,59.9520616214,MP-Perception Experiment,xx16w21,
430,training(17).mov,False,right,2,dmp_npsi(30)_final(0).mov,0,111,111,25,,,,,,,,15:39:46:305,15:39:46:853,15:39:49:855,right,15:39:50:155,,2018_Jun_11_1458,59.9520616214,MP-Perception Experiment,xx16w21,
431,training(26).mov,True,right,2,dmp_npsi(50)_final(9).mov,0,112,112,84,,,,,,,,15:39:51:108,15:39:51:656,15:39:54:659,left,15:39:54:926,,2018_Jun_11_1458,59.9520616214,MP-Perception Experiment,xx16w21,
432,training(26).mov,True,right,2,vcgpdm_dyn(30)-lvm(30)_final(5).mov,0,113,113,143,,,,,,,,15:39:55:889,15:39:56:427,15:39:59:415,right,15:39:59:731,,2018_Jun_11_1458,59.9520616214,MP-Perception Experiment,xx16w21,
433,training(8).mov,True,right,2,vcgpdm_dyn(5)-lvm(15)_final(1).mov,0,114,114,141,,,,,,,,15:40:00:509,15:40:01:233,15:40:04:236,right,15:40:04:570,,2018_Jun_11_1458,59.9520616214,MP-Perception Experiment,xx16w21,
434,training(21).mov,True,right,2,vgpdm_dyn(10)-lvm(20)_final(2).mov,0,115,115,123,,,,,,,,15:40:05:345,15:40:06:071,15:40:09:073,right,15:40:09:674,,2018_Jun_11_1458,59.9520616214,MP-Perception Experiment,xx16w21,
435,map_cgpdm_final(1).mov,True,left,2,training(10).mov,0,116,116,155,,,,,,,,15:40:10:636,15:40:11:175,15:40:14:178,left,15:40:14:511,,2018_Jun_11_1458,59.9520616214,MP-Perception Experiment,xx16w21,
436,training(2).mov,False,right,2,tmp_numprim(9)_final(7).mov,0,117,117,8,,,,,,,,15:40:15:471,15:40:16:012,15:40:19:015,right,15:40:19:232,,2018_Jun_11_1458,59.9520616214,MP-Perception Experiment,xx16w21,
437,training(15).mov,False,right,2,vcgpdm_dyn(25)-lvm(30)_final(1).mov,0,118,118,15,,,,,,,,15:40:20:011,15:40:20:734,15:40:23:736,right,15:40:24:053,,2018_Jun_11_1458,59.9520616214,MP-Perception Experiment,xx16w21,
438,vcgpdm_dyn(35)-lvm(35)_final(6)_bad.mov,False,left,2,training(27).mov,0,119,119,147,,,,,,,,15:40:24:847,15:40:25:554,15:40:28:557,left,15:40:28:890,,2018_Jun_11_1458,59.9520616214,MP-Perception Experiment,xx16w21,
439,training(30).mov,False,right,2,vgpdm_dyn(10)-lvm(5)_final(9).mov,0,120,120,136,,,,,,,,15:40:29:672,15:40:30:391,15:40:33:394,right,15:40:33:511,,2018_Jun_11_1458,59.9520616214,MP-Perception Experiment,xx16w21,
440,training(15).mov,True,right,2,vgpdm_dyn(35)-lvm(35)_final(0).mov,0,121,121,101,,,,,,,,15:40:34:286,15:40:35:012,15:40:38:014,right,15:40:38:330,,2018_Jun_11_1458,59.9520616214,MP-Perception Experiment,xx16w21,
441,tmp_numprim(7)_final(0).mov,False,left,2,training(1).mov,0,122,122,96,,,,,,,,15:40:39:106,15:40:39:832,15:40:42:834,right,15:40:43:184,,2018_Jun_11_1458,59.9520616214,MP-Perception Experiment,xx16w21,
442,training(30).mov,True,right,2,vgpdm_dyn(5)-lvm(30)_final(9).mov,0,123,123,132,,,,,,,,15:40:43:956,15:40:44:686,15:40:47:673,right,15:40:47:973,,2018_Jun_11_1458,59.9520616214,MP-Perception Experiment,xx16w21,
443,training(2).mov,True,right,2,vgpdm_dyn(15)-lvm(25)_final(3).mov,0,124,124,10,,,,,,,,15:40:48:925,15:40:49:475,15:40:52:477,right,15:40:52:944,,2018_Jun_11_1458,59.9520616214,MP-Perception Experiment,xx16w21,
444,training(20).mov,False,right,2,vcgpdm_dyn(25)-lvm(30)_final(7).mov,0,125,125,131,,,,,,,,15:40:53:730,15:40:54:445,15:40:57:465,right,15:40:57:782,,2018_Jun_11_1458,59.9520616214,MP-Perception Experiment,xx16w21,
445,vgpdm_dyn(30)-lvm(5)_final(1).mov,False,left,2,training(30).mov,0,126,126,14,,,,,,,,15:40:58:741,15:40:59:283,15:41:02:286,left,15:41:02:519,,2018_Jun_11_1458,59.9520616214,MP-Perception Experiment,xx16w21,
446,training(8).mov,False,right,2,vgpdm_dyn(30)-lvm(20)_final(9).mov,0,127,127,156,,,,,,,,15:41:03:475,15:41:04:021,15:41:07:023,right,15:41:07:440,,2018_Jun_11_1458,59.9520616214,MP-Perception Experiment,xx16w21,
447,vgpdm_dyn(15)-lvm(10)_final(8)_out_of_screen.mov,True,left,2,training(23).mov,0,128,128,87,,,,,,,,15:41:08:399,15:41:08:941,15:41:11:944,left,15:41:12:244,,2018_Jun_11_1458,59.9520616214,MP-Perception Experiment,xx16w21,
448,vcgpdm_dyn(30)-lvm(10)_final(8).mov,True,left,2,training(10).mov,0,129,129,139,,,,,,,,15:41:13:032,15:41:13:746,15:41:16:749,left,15:41:17:032,,2018_Jun_11_1458,59.9520616214,MP-Perception Experiment,xx16w21,
449,training(16).mov,True,right,2,vcgpdm_dyn(10)-lvm(5)_final(8).mov,0,130,130,120,,,,,,,,15:41:17:991,15:41:18:533,15:41:21:536,right,15:41:21:953,,2018_Jun_11_1458,59.9520616214,MP-Perception Experiment,xx16w21,
450,training(22).mov,True,right,2,vcgpdm_dyn(15)-lvm(5)_final(4).mov,0,131,131,71,,,,,,,,15:41:22:732,15:41:23:454,15:41:26:455,right,15:41:26:872,,2018_Jun_11_1458,59.9520616214,MP-Perception Experiment,xx16w21,
451,tmp_numprim(2)_final(2).mov,False,left,2,training(32).mov,0,132,132,129,,,,,,,,15:41:27:830,15:41:28:373,15:41:31:376,left,15:41:31:677,,2018_Jun_11_1458,59.9520616214,MP-Perception Experiment,xx16w21,
452,vcgpdm_dyn(15)-lvm(10)_final(4).mov,False,left,2,training(39).mov,0,133,133,94,,,,,,,,15:41:32:458,15:41:33:178,15:41:36:180,left,15:41:36:747,,2018_Jun_11_1458,59.9520616214,MP-Perception Experiment,xx16w21,
453,vcgpdm_dyn(35)-lvm(10)_final(8).mov,True,left,2,training(38).mov,0,134,134,121,,,,,,,,15:41:37:714,15:41:38:248,15:41:41:236,left,15:41:41:670,,2018_Jun_11_1458,59.9520616214,MP-Perception Experiment,xx16w21,
454,training(31).mov,True,right,2,vcgpdm_dyn(20)-lvm(30)_final(3).mov,0,135,135,110,,,,,,,,15:41:42:453,15:41:43:171,15:41:46:173,right,15:41:46:407,,2018_Jun_11_1458,59.9520616214,MP-Perception Experiment,xx16w21,
455,vgpdm_dyn(35)-lvm(35)_final(2).mov,False,left,2,training(0).mov,0,136,136,117,,,,,,,,15:41:47:203,15:41:47:909,15:41:50:912,right,15:41:51:128,,2018_Jun_11_1458,59.9520616214,MP-Perception Experiment,xx16w21,
456,training(34).mov,True,right,2,vgpdm_dyn(10)-lvm(25)_final(4).mov,0,137,137,6,,,,,,,,15:41:51:907,15:41:52:629,15:41:55:632,right,15:41:55:966,,2018_Jun_11_1458,59.9520616214,MP-Perception Experiment,xx16w21,
457,training(38).mov,True,right,2,vcgpdm_dyn(20)-lvm(5)_final(6).mov,0,138,138,73,,,,,,,,15:41:56:748,15:41:57:467,15:42:00:469,right,15:42:01:053,,2018_Jun_11_1458,59.9520616214,MP-Perception Experiment,xx16w21,
458,training(20).mov,True,right,2,vcgpdm_dyn(30)-lvm(15)_final(6).mov,0,139,139,62,,,,,,,,15:42:01:834,15:42:02:554,15:42:05:558,right,15:42:05:891,,2018_Jun_11_1458,59.9520616214,MP-Perception Experiment,xx16w21,
459,training(40).mov,False,right,2,vcgpdm_dyn(15)-lvm(35)_final(6).mov,0,140,140,97,,,,,,,,15:42:06:668,15:42:07:392,15:42:10:395,right,15:42:10:712,,2018_Jun_11_1458,59.9520616214,MP-Perception Experiment,xx16w21,
460,training(34).mov,False,right,2,vgpdm_dyn(30)-lvm(30)_final(3).mov,0,141,141,151,,,,,,,,15:42:11:492,15:42:12:213,15:42:15:214,right,15:42:15:497,,2018_Jun_11_1458,59.9520616214,MP-Perception Experiment,xx16w21,
461,training(23).mov,True,right,2,vcgpdm_dyn(10)-lvm(20)_final(4).mov,0,142,142,70,,,,,,,,15:42:16:439,15:42:16:998,15:42:20:001,left,15:42:20:301,,2018_Jun_11_1458,59.9520616214,MP-Perception Experiment,xx16w21,
462,training(22).mov,False,right,2,vcgpdm_dyn(20)-lvm(10)_final(6).mov,0,143,143,63,,,,,,,,15:42:21:271,15:42:21:802,15:42:24:806,right,15:42:25:139,,2018_Jun_11_1458,59.9520616214,MP-Perception Experiment,xx16w21,
463,training(22).mov,True,right,2,vgpdm_dyn(30)-lvm(15)_final(0).mov,0,144,144,78,,,,,,,,15:42:25:918,15:42:26:641,15:42:29:628,right,15:42:29:895,,2018_Jun_11_1458,59.9520616214,MP-Perception Experiment,xx16w21,
464,vgpdm_dyn(20)-lvm(30)_final(4).mov,False,left,2,training(19).mov,0,145,145,111,,,,,,,,15:42:31:874,15:42:31:875,15:42:34:399,right,15:42:34:882,,2018_Jun_11_1458,59.9520616214,MP-Perception Experiment,xx16w21,
465,vgpdm_dyn(25)-lvm(35)_final(0).mov,True,left,2,training(5).mov,0,146,146,39,,,,,,,,15:42:35:842,15:42:36:383,15:42:39:386,right,15:42:39:436,,2018_Jun_11_1458,59.9520616214,MP-Perception Experiment,xx16w21,
466,vcgpdm_dyn(5)-lvm(25)_final(8).mov,True,left,2,training(37).mov,0,147,147,21,,,,,,,,15:42:40:203,15:42:40:938,15:42:43:941,left,15:42:44:224,,2018_Jun_11_1458,59.9520616214,MP-Perception Experiment,xx16w21,
467,vgpdm_dyn(20)-lvm(15)_final(0).mov,False,left,2,training(48).mov,0,148,148,82,,,,,,,,15:42:45:004,15:42:45:725,15:42:48:728,left,15:42:49:045,,2018_Jun_11_1458,59.9520616214,MP-Perception Experiment,xx16w21,
468,training(35).mov,True,right,2,vgpdm_dyn(15)-lvm(30)_final(0).mov,0,149,149,5,,,,,,,,15:42:50:008,15:42:50:546,15:42:53:549,right,15:42:53:832,,2018_Jun_11_1458,59.9520616214,MP-Perception Experiment,xx16w21,
469,training(12).mov,False,right,2,vcgpdm_dyn(10)-lvm(30)_final(1).mov,0,150,150,3,,,,,,,,15:42:54:803,15:42:55:333,15:42:58:337,right,15:42:58:637,,2018_Jun_11_1458,59.9520616214,MP-Perception Experiment,xx16w21,
470,training(32).mov,True,right,2,vcgpdm_dyn(10)-lvm(10)_final(0).mov,0,151,151,86,,,,,,,,15:42:59:599,15:43:00:138,15:43:03:141,left,15:43:03:424,,2018_Jun_11_1458,59.9520616214,MP-Perception Experiment,xx16w21,
471,training(24).mov,False,right,2,vgpdm_dyn(15)-lvm(30)_final(4).mov,0,152,152,105,,,,,,,,15:43:04:214,15:43:04:925,15:43:07:926,right,15:43:08:176,,2018_Jun_11_1458,59.9520616214,MP-Perception Experiment,xx16w21,
472,training(5).mov,False,right,2,vcgpdm_dyn(15)-lvm(30)_final(0).mov,0,153,153,116,,,,,,,,15:43:08:956,15:43:09:677,15:43:12:680,right,15:43:12:863,,2018_Jun_11_1458,59.9520616214,MP-Perception Experiment,xx16w21,
473,vcgpdm_dyn(10)-lvm(30)_final(2).mov,True,left,2,training(37).mov,0,154,154,133,,,,,,,,15:43:13:649,15:43:14:364,15:43:17:368,left,15:43:17:635,,2018_Jun_11_1458,59.9520616214,MP-Perception Experiment,xx16w21,
