trial_number,right,flipped,correct,block,left,trials.thisRepN,trials.thisTrialN,trials.thisN,trials.thisIndex,flipwelcome.keys,flipwelcome.corr,flipwelcome.rt,flippreparations.keys,flippreparations.rt,flipInstructions.keys,flipInstructions.rt,time_at_fixation_cross_onset,time_at_videoonset,time_at_videoend,participant_key_response,time_at_key_response,key_resp_4.keys,date,frameRate,expName,participant,
,,,,,,,,,,space,0,68.7429859143,,,,,,,,,,,2018_Jun_11_1624,59.9596222988,MP-Perception Experiment,xx17m26,
,,,,,,,,,,,,,space,16.3138438557,,,,,,,,,2018_Jun_11_1624,59.9596222988,MP-Perception Experiment,xx17m26,
,,,,,,,,,,,,,,,space,16.7457593837,,,,,,,2018_Jun_11_1624,59.9596222988,MP-Perception Experiment,xx17m26,
1,training(41).mov,True,right,0,vgpdm_dyn(10)-lvm(5)_final(2).mov,0,0,0,118,,,,,,,,16:26:18:497,16:26:18:497,16:26:21:390,left,16:26:21:590,,2018_Jun_11_1624,59.9596222988,MP-Perception Experiment,xx17m26,
2,training(11).mov,False,right,0,vcgpdm_dyn(5)-lvm(5)_final(8).mov,0,1,1,155,,,,,,,,16:26:22:369,16:26:23:092,16:26:26:079,right,16:26:41:126,,2018_Jun_11_1624,59.9596222988,MP-Perception Experiment,xx17m26,
3,training(39).mov,True,right,0,vgpdm_dyn(30)-lvm(10)_final(1).mov,0,2,2,52,,,,,,,,16:26:41:900,16:26:42:627,16:26:45:629,right,16:26:48:965,,2018_Jun_11_1624,59.9596222988,MP-Perception Experiment,xx17m26,
4,training(17).mov,False,right,0,vgpdm_dyn(35)-lvm(30)_final(3).mov,0,3,3,17,,,,,,,,16:26:49:926,16:26:50:466,16:26:53:470,left,16:26:54:271,,2018_Jun_11_1624,59.9596222988,MP-Perception Experiment,xx17m26,
5,training(8).mov,False,right,0,vgpdm_dyn(25)-lvm(35)_final(2).mov,0,4,4,8,,,,,,,,16:26:55:048,16:26:55:772,16:26:58:774,left,16:26:59:225,,2018_Jun_11_1624,59.9596222988,MP-Perception Experiment,xx17m26,
6,vgpdm_dyn(35)-lvm(25)_final(5).mov,True,left,0,training(35).mov,0,5,5,136,,,,,,,,16:27:00:180,16:27:00:726,16:27:03:728,right,16:27:04:344,,2018_Jun_11_1624,59.9596222988,MP-Perception Experiment,xx17m26,
7,training(28).mov,False,right,0,vcgpdm_dyn(30)-lvm(15)_final(8).mov,0,6,6,45,,,,,,,,16:27:05:117,16:27:05:845,16:27:08:848,right,16:27:09:782,,2018_Jun_11_1624,59.9596222988,MP-Perception Experiment,xx17m26,
8,training(34).mov,False,right,0,vgpdm_dyn(15)-lvm(30)_final(1).mov,0,7,7,86,,,,,,,,16:27:10:739,16:27:11:283,16:27:14:286,left,16:27:15:437,,2018_Jun_11_1624,59.9596222988,MP-Perception Experiment,xx17m26,
9,training(32).mov,True,right,0,tmp_numprim(8)_final(4).mov,0,8,8,108,,,,,,,,16:27:16:213,16:27:16:940,16:27:19:942,left,16:27:20:676,,2018_Jun_11_1624,59.9596222988,MP-Perception Experiment,xx17m26,
10,training(9).mov,True,right,0,vgpdm_dyn(20)-lvm(5)_final(7).mov,0,9,9,80,,,,,,,,16:27:21:549,16:27:22:177,16:27:25:180,right,16:27:25:764,,2018_Jun_11_1624,59.9596222988,MP-Perception Experiment,xx17m26,
11,training(40).mov,True,right,0,vcgpdm_dyn(10)-lvm(5)_final(0).mov,0,10,10,0,,,,,,,,16:27:26:543,16:27:27:266,16:27:30:268,right,16:27:30:936,,2018_Jun_11_1624,59.9596222988,MP-Perception Experiment,xx17m26,
12,vgpdm_dyn(5)-lvm(20)_final(6).mov,False,left,0,training(29).mov,0,11,11,65,,,,,,,,16:27:31:887,16:27:32:437,16:27:35:439,right,16:27:36:056,,2018_Jun_11_1624,59.9596222988,MP-Perception Experiment,xx17m26,
13,vgpdm_dyn(20)-lvm(20)_final(0).mov,True,left,0,training(36).mov,0,12,12,113,,,,,,,,16:27:36:838,16:27:37:557,16:27:40:560,left,16:27:41:110,,2018_Jun_11_1624,59.9596222988,MP-Perception Experiment,xx17m26,
14,training(11).mov,False,right,0,vcgpdm_dyn(5)-lvm(15)_final(9).mov,0,13,13,14,,,,,,,,16:27:41:885,16:27:42:611,16:27:45:615,left,16:27:46:232,,2018_Jun_11_1624,59.9596222988,MP-Perception Experiment,xx17m26,
15,training(3).mov,False,right,0,vcgpdm_dyn(30)-lvm(15)_final(4).mov,0,14,14,88,,,,,,,,16:27:47:011,16:27:47:733,16:27:50:736,left,16:27:52:104,,2018_Jun_11_1624,59.9596222988,MP-Perception Experiment,xx17m26,
16,training(31).mov,False,right,0,vgpdm_dyn(30)-lvm(35)_final(4).mov,0,15,15,152,,,,,,,,16:27:52:877,16:27:53:605,16:27:56:605,right,16:27:57:106,,2018_Jun_11_1624,59.9596222988,MP-Perception Experiment,xx17m26,
17,training(20).mov,True,right,0,vgpdm_dyn(5)-lvm(10)_final(7).mov,0,16,16,27,,,,,,,,16:27:58:058,16:27:58:607,16:28:01:610,right,16:28:02:161,,2018_Jun_11_1624,59.9596222988,MP-Perception Experiment,xx17m26,
18,training(4).mov,True,right,0,vcgpdm_dyn(15)-lvm(25)_final(8).mov,0,17,17,9,,,,,,,,16:28:03:127,16:28:03:662,16:28:06:665,right,16:28:07:165,,2018_Jun_11_1624,59.9596222988,MP-Perception Experiment,xx17m26,
19,vcgpdm_dyn(15)-lvm(15)_final(0).mov,False,left,0,training(7).mov,0,18,18,77,,,,,,,,16:28:07:941,16:28:08:668,16:28:11:654,left,16:28:12:204,,2018_Jun_11_1624,59.9596222988,MP-Perception Experiment,xx17m26,
20,map_gpdm_final(4).mov,False,left,0,training(23).mov,0,19,19,71,,,,,,,,16:28:12:985,16:28:13:705,16:28:16:708,left,16:28:17:225,,2018_Jun_11_1624,59.9596222988,MP-Perception Experiment,xx17m26,
21,vgpdm_dyn(20)-lvm(15)_final(2).mov,True,left,0,training(31).mov,0,20,20,26,,,,,,,,16:28:17:995,16:28:18:727,16:28:21:730,right,16:28:22:197,,2018_Jun_11_1624,59.9596222988,MP-Perception Experiment,xx17m26,
22,training(35).mov,True,right,0,vcgpdm_dyn(15)-lvm(10)_final(9).mov,0,21,21,59,,,,,,,,16:28:22:993,16:28:23:698,16:28:26:700,right,16:28:27:151,,2018_Jun_11_1624,59.9596222988,MP-Perception Experiment,xx17m26,
23,vgpdm_dyn(35)-lvm(15)_final(0)_out_of_screen.mov,False,left,0,training(38).mov,0,22,22,157,,,,,,,,16:28:28:117,16:28:28:652,16:28:31:654,right,16:28:32:121,,2018_Jun_11_1624,59.9596222988,MP-Perception Experiment,xx17m26,
24,training(7).mov,True,right,0,vcgpdm_dyn(20)-lvm(25)_final(0).mov,0,23,23,127,,,,,,,,16:28:32:926,16:28:33:622,16:28:36:626,right,16:28:37:093,,2018_Jun_11_1624,59.9596222988,MP-Perception Experiment,xx17m26,
25,training(34).mov,False,right,0,vcgpdm_dyn(35)-lvm(30)_final(1).mov,0,24,24,64,,,,,,,,16:28:37:872,16:28:38:594,16:28:41:597,right,16:28:41:964,,2018_Jun_11_1624,59.9596222988,MP-Perception Experiment,xx17m26,
26,vcgpdm_dyn(20)-lvm(35)_final(6).mov,False,left,0,training(11).mov,0,25,25,130,,,,,,,,16:28:42:745,16:28:43:465,16:28:46:465,right,16:28:46:966,,2018_Jun_11_1624,59.9596222988,MP-Perception Experiment,xx17m26,
27,vcgpdm_dyn(10)-lvm(15)_final(5).mov,True,left,0,training(20).mov,0,26,26,131,,,,,,,,16:28:47:736,16:28:48:467,16:28:51:469,left,16:28:51:936,,2018_Jun_11_1624,59.9596222988,MP-Perception Experiment,xx17m26,
28,tmp_numprim(9)_final(2).mov,True,left,0,training(17).mov,0,27,27,100,,,,,,,,16:28:52:883,16:28:53:438,16:28:56:426,left,16:28:57:010,,2018_Jun_11_1624,59.9596222988,MP-Perception Experiment,xx17m26,
29,vcgpdm_dyn(35)-lvm(25)_final(3).mov,False,left,0,training(7).mov,0,28,28,42,,,,,,,,16:28:57:992,16:28:58:511,16:29:01:514,left,16:29:02:014,,2018_Jun_11_1624,59.9596222988,MP-Perception Experiment,xx17m26,
30,training(24).mov,False,right,0,vgpdm_dyn(5)-lvm(15)_final(9).mov,0,29,29,55,,,,,,,,16:29:02:968,16:29:03:515,16:29:06:518,left,16:29:07:318,,2018_Jun_11_1624,59.9596222988,MP-Perception Experiment,xx17m26,
31,training(19).mov,True,right,0,vcgpdm_dyn(5)-lvm(10)_final(0).mov,0,30,30,1,,,,,,,,16:29:08:286,16:29:08:819,16:29:11:823,right,16:29:12:257,,2018_Jun_11_1624,59.9596222988,MP-Perception Experiment,xx17m26,
32,training(21).mov,True,right,0,vgpdm_dyn(10)-lvm(15)_final(1).mov,0,31,31,133,,,,,,,,16:29:13:208,16:29:13:758,16:29:16:760,left,16:29:17:211,,2018_Jun_11_1624,59.9596222988,MP-Perception Experiment,xx17m26,
33,tmp_numprim(10)_final(7).mov,False,left,0,training(8).mov,0,32,32,62,,,,,,,,16:29:18:151,16:29:18:712,16:29:21:714,right,16:29:22:198,,2018_Jun_11_1624,59.9596222988,MP-Perception Experiment,xx17m26,
34,vgpdm_dyn(15)-lvm(30)_final(1).mov,True,left,0,training(20).mov,0,33,33,158,,,,,,,,16:29:23:150,16:29:23:699,16:29:26:702,left,16:29:27:202,,2018_Jun_11_1624,59.9596222988,MP-Perception Experiment,xx17m26,
35,training(17).mov,True,right,0,tmp_numprim(10)_final(9).mov,0,34,34,83,,,,,,,,16:29:28:180,16:29:28:704,16:29:31:707,left,16:29:32:340,,2018_Jun_11_1624,59.9596222988,MP-Perception Experiment,xx17m26,
36,tmp_numprim(8)_final(1).mov,True,left,0,training(30).mov,0,35,35,117,,,,,,,,16:29:33:307,16:29:33:842,16:29:36:842,left,16:29:37:393,,2018_Jun_11_1624,59.9596222988,MP-Perception Experiment,xx17m26,
37,tmp_numprim(2)_final(5).mov,True,left,0,training(13).mov,0,36,36,126,,,,,,,,16:29:38:355,16:29:38:894,16:29:41:896,left,16:29:42:280,,2018_Jun_11_1624,59.9596222988,MP-Perception Experiment,xx17m26,
38,training(40).mov,False,right,0,vcgpdm_dyn(25)-lvm(25)_final(1).mov,0,37,37,134,,,,,,,,16:29:43:067,16:29:43:781,16:29:46:785,right,16:29:47:252,,2018_Jun_11_1624,59.9596222988,MP-Perception Experiment,xx17m26,
39,training(38).mov,True,right,0,vcgpdm_dyn(10)-lvm(20)_final(8).mov,0,38,38,150,,,,,,,,16:29:48:032,16:29:48:755,16:29:51:740,right,16:29:52:208,,2018_Jun_11_1624,59.9596222988,MP-Perception Experiment,xx17m26,
40,vcgpdm_dyn(30)-lvm(20)_final(1).mov,False,left,0,training(27).mov,0,39,39,116,,,,,,,,16:29:52:989,16:29:53:709,16:29:56:711,left,16:29:57:228,,2018_Jun_11_1624,59.9596222988,MP-Perception Experiment,xx17m26,
41,training(18).mov,False,right,0,vcgpdm_dyn(10)-lvm(10)_final(5).mov,0,40,40,119,,,,,,,,16:29:58:001,16:29:58:729,16:30:01:732,right,16:30:02:166,,2018_Jun_11_1624,59.9596222988,MP-Perception Experiment,xx17m26,
42,tmp_numprim(7)_final(9).mov,True,left,0,training(15).mov,0,41,41,19,,,,,,,,16:30:02:940,16:30:03:668,16:30:06:670,left,16:30:07:137,,2018_Jun_11_1624,59.9596222988,MP-Perception Experiment,xx17m26,
43,vcgpdm_dyn(35)-lvm(25)_final(1).mov,True,left,0,training(2).mov,0,42,42,99,,,,,,,,16:30:07:915,16:30:08:638,16:30:11:641,left,16:30:12:108,,2018_Jun_11_1624,59.9596222988,MP-Perception Experiment,xx17m26,
44,training(36).mov,True,right,0,vgpdm_dyn(10)-lvm(30)_final(4).mov,0,43,43,41,,,,,,,,16:30:12:880,16:30:13:609,16:30:16:612,right,16:30:17:045,,2018_Jun_11_1624,59.9596222988,MP-Perception Experiment,xx17m26,
45,training(3).mov,False,right,0,vcgpdm_dyn(25)-lvm(30)_final(9).mov,0,44,44,74,,,,,,,,16:30:17:822,16:30:18:546,16:30:21:550,right,16:30:21:950,,2018_Jun_11_1624,59.9596222988,MP-Perception Experiment,xx17m26,
46,training(18).mov,False,right,0,vgpdm_dyn(30)-lvm(5)_final(4).mov,0,45,45,153,,,,,,,,16:30:22:727,16:30:23:451,16:30:26:452,right,16:30:26:919,,2018_Jun_11_1624,59.9596222988,MP-Perception Experiment,xx17m26,
47,training(27).mov,False,right,0,vgpdm_dyn(10)-lvm(35)_final(0).mov,0,46,46,87,,,,,,,,16:30:27:705,16:30:28:420,16:30:31:423,right,16:30:31:940,,2018_Jun_11_1624,59.9596222988,MP-Perception Experiment,xx17m26,
48,training(24).mov,True,right,0,vcgpdm_dyn(30)-lvm(25)_final(6).mov,0,47,47,139,,,,,,,,16:30:32:733,16:30:33:441,16:30:36:443,right,16:30:37:077,,2018_Jun_11_1624,59.9596222988,MP-Perception Experiment,xx17m26,
49,training(3).mov,True,right,0,vcgpdm_dyn(30)-lvm(5)_final(9).mov,0,48,48,57,,,,,,,,16:30:37:867,16:30:38:581,16:30:41:567,left,16:30:41:967,,2018_Jun_11_1624,59.9596222988,MP-Perception Experiment,xx17m26,
50,training(10).mov,False,right,0,vgpdm_dyn(10)-lvm(20)_final(7).mov,0,49,49,143,,,,,,,,16:30:42:742,16:30:43:468,16:30:46:471,right,16:30:46:938,,2018_Jun_11_1624,59.9596222988,MP-Perception Experiment,xx17m26,
51,vcgpdm_dyn(35)-lvm(10)_final(7).mov,True,left,0,training(21).mov,0,50,50,40,,,,,,,,16:30:47:892,16:30:48:439,16:30:51:442,right,16:30:51:909,,2018_Jun_11_1624,59.9596222988,MP-Perception Experiment,xx17m26,
52,vgpdm_dyn(10)-lvm(25)_final(1).mov,False,left,0,training(7).mov,0,51,51,48,,,,,,,,16:30:52:856,16:30:53:410,16:30:56:413,right,16:30:57:047,,2018_Jun_11_1624,59.9596222988,MP-Perception Experiment,xx17m26,
53,training(35).mov,False,right,0,vgpdm_dyn(25)-lvm(5)_final(6).mov,0,52,52,21,,,,,,,,16:30:58:005,16:30:58:548,16:31:01:551,right,16:31:02:018,,2018_Jun_11_1624,59.9596222988,MP-Perception Experiment,xx17m26,
54,vcgpdm_dyn(15)-lvm(10)_final(2).mov,True,left,0,training(8).mov,0,53,53,39,,,,,,,,16:31:02:967,16:31:03:519,16:31:06:522,left,16:31:06:889,,2018_Jun_11_1624,59.9596222988,MP-Perception Experiment,xx17m26,
55,training(24).mov,True,right,0,vcgpdm_dyn(15)-lvm(5)_final(3).mov,0,54,54,128,,,,,,,,16:31:07:657,16:31:08:390,16:31:11:392,left,16:31:11:909,,2018_Jun_11_1624,59.9596222988,MP-Perception Experiment,xx17m26,
56,training(39).mov,False,right,0,vgpdm_dyn(15)-lvm(30)_final(7).mov,0,55,55,66,,,,,,,,16:31:12:678,16:31:13:411,16:31:16:412,right,16:31:16:712,,2018_Jun_11_1624,59.9596222988,MP-Perception Experiment,xx17m26,
57,vcgpdm_dyn(15)-lvm(5)_final(1).mov,True,left,0,training(4).mov,0,56,56,58,,,,,,,,16:31:17:661,16:31:18:213,16:31:21:216,left,16:31:21:533,,2018_Jun_11_1624,59.9596222988,MP-Perception Experiment,xx17m26,
58,training(36).mov,True,right,0,vcgpdm_dyn(20)-lvm(25)_final(7).mov,0,57,57,142,,,,,,,,16:31:22:516,16:31:23:034,16:31:26:037,left,16:31:26:537,,2018_Jun_11_1624,59.9596222988,MP-Perception Experiment,xx17m26,
59,training(10).mov,False,right,0,vgpdm_dyn(15)-lvm(5)_final(5).mov,0,58,58,32,,,,,,,,16:31:27:308,16:31:28:038,16:31:31:027,right,16:31:31:427,,2018_Jun_11_1624,59.9596222988,MP-Perception Experiment,xx17m26,
60,training(11).mov,False,right,0,vcgpdm_dyn(20)-lvm(10)_final(6).mov,0,59,59,103,,,,,,,,16:31:32:377,16:31:32:928,16:31:35:931,right,16:31:36:264,,2018_Jun_11_1624,59.9596222988,MP-Perception Experiment,xx17m26,
61,tmp_numprim(5)_final(7).mov,False,left,0,training(8).mov,0,60,60,107,,,,,,,,16:31:37:063,16:31:37:765,16:31:40:768,right,16:31:41:101,,2018_Jun_11_1624,59.9596222988,MP-Perception Experiment,xx17m26,
62,training(11).mov,True,right,0,dmp_npsi(20)_final(8).mov,0,61,61,43,,,,,,,,16:31:41:872,16:31:42:603,16:31:45:605,right,16:31:46:072,,2018_Jun_11_1624,59.9596222988,MP-Perception Experiment,xx17m26,
63,map_gpdm_final(3).mov,False,left,0,training(6).mov,0,62,62,47,,,,,,,,16:31:46:854,16:31:47:573,16:31:50:577,left,16:31:50:960,,2018_Jun_11_1624,59.9596222988,MP-Perception Experiment,xx17m26,
64,training(30).mov,False,right,0,vgpdm_dyn(20)-lvm(5)_final(3).mov,0,63,63,84,,,,,,,,16:31:51:914,16:31:52:462,16:31:55:464,right,16:31:55:781,,2018_Jun_11_1624,59.9596222988,MP-Perception Experiment,xx17m26,
65,training(36).mov,True,right,0,vgpdm_dyn(10)-lvm(25)_final(5).mov,0,64,64,115,,,,,,,,16:31:56:563,16:31:57:282,16:32:00:285,right,16:32:00:702,,2018_Jun_11_1624,59.9596222988,MP-Perception Experiment,xx17m26,
66,training(31).mov,True,right,0,vgpdm_dyn(10)-lvm(10)_final(1).mov,0,65,65,67,,,,,,,,16:32:01:486,16:32:02:203,16:32:05:203,right,16:32:05:520,,2018_Jun_11_1624,59.9596222988,MP-Perception Experiment,xx17m26,
67,vcgpdm_dyn(25)-lvm(10)_final(6).mov,False,left,0,training(3).mov,0,66,66,91,,,,,,,,16:32:06:297,16:32:07:023,16:32:10:025,right,16:32:10:292,,2018_Jun_11_1624,59.9596222988,MP-Perception Experiment,xx17m26,
68,vgpdm_dyn(20)-lvm(15)_final(7).mov,False,left,0,training(16).mov,0,67,67,149,,,,,,,,16:32:11:071,16:32:11:793,16:32:14:796,left,16:32:15:279,,2018_Jun_11_1624,59.9596222988,MP-Perception Experiment,xx17m26,
69,vgpdm_dyn(15)-lvm(30)_final(0).mov,True,left,0,training(26).mov,0,68,68,89,,,,,,,,16:32:16:060,16:32:16:782,16:32:19:785,left,16:32:20:202,,2018_Jun_11_1624,59.9596222988,MP-Perception Experiment,xx17m26,
70,dmp_npsi(35)_final(0).mov,False,left,0,training(6).mov,0,69,69,135,,,,,,,,16:32:20:979,16:32:21:703,16:32:24:706,left,16:32:25:057,,2018_Jun_11_1624,59.9596222988,MP-Perception Experiment,xx17m26,
71,vcgpdm_dyn(25)-lvm(35)_final(4).mov,False,left,0,training(26).mov,0,70,70,68,,,,,,,,16:32:25:828,16:32:26:558,16:32:29:560,left,16:32:29:877,,2018_Jun_11_1624,59.9596222988,MP-Perception Experiment,xx17m26,
72,training(28).mov,True,right,0,dmp_npsi(40)_final(5).mov,0,71,71,2,,,,,,,,16:32:30:646,16:32:31:378,16:32:34:381,left,16:32:34:681,,2018_Jun_11_1624,59.9596222988,MP-Perception Experiment,xx17m26,
73,vgpdm_dyn(30)-lvm(25)_final(8).mov,True,left,0,training(32).mov,0,72,72,31,,,,,,,,16:32:35:458,16:32:36:182,16:32:39:185,left,16:32:39:535,,2018_Jun_11_1624,59.9596222988,MP-Perception Experiment,xx17m26,
74,training(13).mov,False,right,0,vgpdm_dyn(35)-lvm(5)_final(6).mov,0,73,73,98,,,,,,,,16:32:40:506,16:32:41:037,16:32:44:040,left,16:32:44:523,,2018_Jun_11_1624,59.9596222988,MP-Perception Experiment,xx17m26,
75,training(28).mov,True,right,0,tmp_numprim(8)_final(7).mov,0,74,74,85,,,,,,,,16:32:45:477,16:32:46:024,16:32:49:027,right,16:32:49:361,,2018_Jun_11_1624,59.9596222988,MP-Perception Experiment,xx17m26,
76,vcgpdm_dyn(35)-lvm(30)_final(5).mov,True,left,0,training(31).mov,0,75,75,70,,,,,,,,16:32:50:314,16:32:50:862,16:32:53:864,left,16:32:54:213,,2018_Jun_11_1624,59.9596222988,MP-Perception Experiment,xx17m26,
77,training(5).mov,False,right,0,vcgpdm_dyn(30)-lvm(10)_final(0).mov,0,76,76,151,,,,,,,,16:32:55:197,16:32:55:714,16:32:58:717,right,16:32:59:184,,2018_Jun_11_1624,59.9596222988,MP-Perception Experiment,xx17m26,
78,training(48).mov,False,right,0,vcgpdm_dyn(25)-lvm(15)_final(9).mov,0,77,77,75,,,,,,,,16:33:00:141,16:33:00:685,16:33:03:688,right,16:33:04:038,,2018_Jun_11_1624,59.9596222988,MP-Perception Experiment,xx17m26,
79,training(32).mov,False,right,0,vgpdm_dyn(20)-lvm(30)_final(7).mov,0,78,78,44,,,,,,,,16:33:04:997,16:33:05:539,16:33:08:527,right,16:33:08:861,,2018_Jun_11_1624,59.9596222988,MP-Perception Experiment,xx17m26,
80,vgpdm_dyn(20)-lvm(25)_final(7).mov,True,left,0,training(10).mov,0,79,79,145,,,,,,,,16:33:09:638,16:33:10:362,16:33:13:364,right,16:33:13:915,,2018_Jun_11_1624,59.9596222988,MP-Perception Experiment,xx17m26,
81,vgpdm_dyn(30)-lvm(20)_final(2).mov,True,left,0,training(40).mov,0,80,80,81,,,,,,,,16:33:14:882,16:33:15:416,16:33:18:419,right,16:33:18:686,,2018_Jun_11_1624,59.9596222988,MP-Perception Experiment,xx17m26,
82,training(22).mov,False,right,0,vcgpdm_dyn(20)-lvm(15)_final(0).mov,0,81,81,5,,,,,,,,16:33:19:656,16:33:20:187,16:33:23:190,right,16:33:23:607,,2018_Jun_11_1624,59.9596222988,MP-Perception Experiment,xx17m26,
83,tmp_numprim(5)_final(0).mov,True,left,0,training(38).mov,0,82,82,30,,,,,,,,16:33:24:389,16:33:25:108,16:33:28:111,left,16:33:28:511,,2018_Jun_11_1624,59.9596222988,MP-Perception Experiment,xx17m26,
84,vcgpdm_dyn(30)-lvm(20)_final(7).mov,True,left,0,training(13).mov,0,83,83,90,,,,,,,,16:33:29:471,16:33:30:012,16:33:33:015,left,16:33:33:382,,2018_Jun_11_1624,59.9596222988,MP-Perception Experiment,xx17m26,
85,training(3).mov,False,right,0,vcgpdm_dyn(15)-lvm(30)_final(8).mov,0,84,84,106,,,,,,,,16:33:34:337,16:33:34:884,16:33:37:886,right,16:33:38:186,,2018_Jun_11_1624,59.9596222988,MP-Perception Experiment,xx17m26,
86,training(22).mov,False,right,0,vgpdm_dyn(10)-lvm(35)_final(0).mov,0,85,85,123,,,,,,,,16:33:38:964,16:33:39:687,16:33:42:690,right,16:33:43:007,,2018_Jun_11_1624,59.9596222988,MP-Perception Experiment,xx17m26,
87,tmp_numprim(5)_final(6).mov,False,left,0,training(17).mov,0,86,86,111,,,,,,,,16:33:43:796,16:33:44:523,16:33:47:509,left,16:33:47:892,,2018_Jun_11_1624,59.9596222988,MP-Perception Experiment,xx17m26,
88,vcgpdm_dyn(30)-lvm(30)_final(0).mov,False,left,0,training(23).mov,0,87,87,137,,,,,,,,16:33:48:671,16:33:49:393,16:33:52:397,left,16:33:52:781,,2018_Jun_11_1624,59.9596222988,MP-Perception Experiment,xx17m26,
89,training(3).mov,True,right,0,vcgpdm_dyn(25)-lvm(30)_final(5).mov,0,88,88,22,,,,,,,,16:33:53:555,16:33:54:282,16:33:57:269,left,16:33:57:553,,2018_Jun_11_1624,59.9596222988,MP-Perception Experiment,xx17m26,
90,vgpdm_dyn(15)-lvm(25)_final(9).mov,False,left,0,training(29).mov,0,89,89,132,,,,,,,,16:33:58:327,16:33:59:054,16:34:02:057,left,16:34:02:407,,2018_Jun_11_1624,59.9596222988,MP-Perception Experiment,xx17m26,
91,vgpdm_dyn(10)-lvm(5)_final(2).mov,False,left,0,training(13).mov,0,90,90,20,,,,,,,,16:34:03:175,16:34:03:908,16:34:06:911,left,16:34:07:261,,2018_Jun_11_1624,59.9596222988,MP-Perception Experiment,xx17m26,
92,vgpdm_dyn(20)-lvm(5)_final(2).mov,True,left,0,training(8).mov,0,91,91,109,,,,,,,,16:34:08:035,16:34:08:763,16:34:11:766,left,16:34:12:132,,2018_Jun_11_1624,59.9596222988,MP-Perception Experiment,xx17m26,
93,vgpdm_dyn(30)-lvm(15)_final(2).mov,False,left,0,training(9).mov,0,92,92,61,,,,,,,,16:34:12:953,16:34:13:633,16:34:16:636,left,16:34:17:070,,2018_Jun_11_1624,59.9596222988,MP-Perception Experiment,xx17m26,
94,training(30).mov,False,right,0,vgpdm_dyn(30)-lvm(20)_final(1).mov,0,93,93,112,,,,,,,,16:34:18:027,16:34:18:571,16:34:21:573,right,16:34:21:957,,2018_Jun_11_1624,59.9596222988,MP-Perception Experiment,xx17m26,
95,training(2).mov,True,right,0,vgpdm_dyn(35)-lvm(10)_final(4).mov,0,94,94,56,,,,,,,,16:34:22:904,16:34:23:458,16:34:26:462,right,16:34:26:829,,2018_Jun_11_1624,59.9596222988,MP-Perception Experiment,xx17m26,
96,training(1).mov,False,right,0,vcgpdm_dyn(15)-lvm(10)_final(1).mov,0,95,95,110,,,,,,,,16:34:27:604,16:34:28:330,16:34:31:332,right,16:34:31:616,,2018_Jun_11_1624,59.9596222988,MP-Perception Experiment,xx17m26,
97,vcgpdm_dyn(30)-lvm(15)_final(7).mov,True,left,0,training(35).mov,0,96,96,97,,,,,,,,16:34:32:585,16:34:33:117,16:34:36:118,right,16:34:36:735,,2018_Jun_11_1624,59.9596222988,MP-Perception Experiment,xx17m26,
98,dmp_npsi(25)_final(1).mov,True,left,0,training(24).mov,0,97,97,23,,,,,,,,16:34:37:522,16:34:38:236,16:34:41:238,left,16:34:41:689,,2018_Jun_11_1624,59.9596222988,MP-Perception Experiment,xx17m26,
99,vgpdm_dyn(35)-lvm(25)_final(4).mov,False,left,0,training(8).mov,0,98,98,25,,,,,,,,16:34:42:467,16:34:43:191,16:34:46:193,left,16:34:46:577,,2018_Jun_11_1624,59.9596222988,MP-Perception Experiment,xx17m26,
100,tmp_numprim(3)_final(0).mov,True,left,0,training(19).mov,0,99,99,79,,,,,,,,16:34:47:378,16:34:48:078,16:34:51:066,left,16:34:51:466,,2018_Jun_11_1624,59.9596222988,MP-Perception Experiment,xx17m26,
101,training(15).mov,True,right,0,vgpdm_dyn(30)-lvm(20)_final(8).mov,0,100,100,148,,,,,,,,16:34:52:419,16:34:52:967,16:34:55:970,left,16:34:56:287,,2018_Jun_11_1624,59.9596222988,MP-Perception Experiment,xx17m26,
102,vcgpdm_dyn(20)-lvm(10)_final(2).mov,True,left,0,training(8).mov,0,101,101,78,,,,,,,,16:34:57:064,16:34:57:788,16:35:00:791,left,16:35:01:158,,2018_Jun_11_1624,59.9596222988,MP-Perception Experiment,xx17m26,
103,training(10).mov,False,right,0,vgpdm_dyn(10)-lvm(35)_final(3).mov,0,102,102,3,,,,,,,,16:35:02:108,16:35:02:659,16:35:05:662,right,16:35:06:046,,2018_Jun_11_1624,59.9596222988,MP-Perception Experiment,xx17m26,
104,vcgpdm_dyn(15)-lvm(25)_final(6).mov,False,left,0,training(32).mov,0,103,103,50,,,,,,,,16:35:06:825,16:35:07:547,16:35:10:549,left,16:35:10:883,,2018_Jun_11_1624,59.9596222988,MP-Perception Experiment,xx17m26,
105,training(36).mov,True,right,0,vgpdm_dyn(15)-lvm(5)_final(7).mov,0,104,104,82,,,,,,,,16:35:11:842,16:35:12:384,16:35:15:387,left,16:35:17:838,,2018_Jun_11_1624,59.9596222988,MP-Perception Experiment,xx17m26,
106,training(29).mov,False,right,0,vgpdm_dyn(10)-lvm(20)_final(2).mov,0,105,105,63,,,,,,,,16:35:18:787,16:35:19:341,16:35:22:343,right,16:35:22:627,,2018_Jun_11_1624,59.9596222988,MP-Perception Experiment,xx17m26,
107,tmp_numprim(2)_final(5).mov,True,left,0,training(38).mov,0,106,106,38,,,,,,,,16:35:23:575,16:35:24:128,16:35:27:128,left,16:35:27:495,,2018_Jun_11_1624,59.9596222988,MP-Perception Experiment,xx17m26,
108,vgpdm_dyn(30)-lvm(5)_final(0).mov,False,left,0,training(29).mov,0,107,107,28,,,,,,,,16:35:28:453,16:35:28:997,16:35:31:999,left,16:35:32:433,,2018_Jun_11_1624,59.9596222988,MP-Perception Experiment,xx17m26,
109,training(18).mov,False,right,0,vgpdm_dyn(25)-lvm(35)_final(6).mov,0,108,108,121,,,,,,,,16:35:33:211,16:35:33:934,16:35:36:922,right,16:35:40:742,,2018_Jun_11_1624,59.9596222988,MP-Perception Experiment,xx17m26,
110,vgpdm_dyn(10)-lvm(10)_final(6).mov,False,left,0,training(0).mov,0,109,109,73,,,,,,,,16:35:41:761,16:35:42:277,16:35:45:246,right,16:35:45:796,,2018_Jun_11_1624,59.9596222988,MP-Perception Experiment,xx17m26,
111,vgpdm_dyn(35)-lvm(35)_final(0).mov,True,left,0,training(10).mov,0,110,110,105,,,,,,,,16:35:46:574,16:35:47:314,16:35:50:300,left,16:35:50:634,,2018_Jun_11_1624,59.9596222988,MP-Perception Experiment,xx17m26,
112,training(17).mov,True,right,0,vcgpdm_dyn(10)-lvm(30)_final(2).mov,0,111,111,33,,,,,,,,16:35:51:420,16:35:52:135,16:35:55:138,right,16:35:56:306,,2018_Jun_11_1624,59.9596222988,MP-Perception Experiment,xx17m26,
113,vgpdm_dyn(20)-lvm(20)_final(5).mov,True,left,0,training(34).mov,0,112,112,141,,,,,,,,16:35:57:084,16:35:57:807,16:36:00:810,right,16:36:01:043,,2018_Jun_11_1624,59.9596222988,MP-Perception Experiment,xx17m26,
114,training(23).mov,True,right,0,vcgpdm_dyn(5)-lvm(15)_final(1).mov,0,113,113,93,,,,,,,,16:36:01:821,16:36:02:544,16:36:05:547,right,16:36:06:080,,2018_Jun_11_1624,59.9596222988,MP-Perception Experiment,xx17m26,
115,training(36).mov,True,right,0,vgpdm_dyn(10)-lvm(20)_final(0).mov,0,114,114,36,,,,,,,,16:36:06:856,16:36:07:598,16:36:10:584,right,16:36:10:852,,2018_Jun_11_1624,59.9596222988,MP-Perception Experiment,xx17m26,
116,vgpdm_dyn(15)-lvm(5)_final(1).mov,False,left,0,training(20).mov,0,115,115,92,,,,,,,,16:36:11:631,16:36:12:353,16:36:15:354,left,16:36:15:637,,2018_Jun_11_1624,59.9596222988,MP-Perception Experiment,xx17m26,
117,vgpdm_dyn(5)-lvm(30)_final(7).mov,False,left,0,training(26).mov,0,116,116,12,,,,,,,,16:36:16:435,16:36:17:138,16:36:20:141,left,16:36:20:475,,2018_Jun_11_1624,59.9596222988,MP-Perception Experiment,xx17m26,
118,training(24).mov,False,right,0,tmp_numprim(8)_final(6).mov,0,117,117,53,,,,,,,,16:36:21:251,16:36:21:976,16:36:24:978,left,16:36:25:295,,2018_Jun_11_1624,59.9596222988,MP-Perception Experiment,xx17m26,
119,training(15).mov,False,right,0,vgpdm_dyn(30)-lvm(15)_final(2).mov,0,118,118,114,,,,,,,,16:36:26:059,16:36:26:796,16:36:29:785,right,16:36:30:085,,2018_Jun_11_1624,59.9596222988,MP-Perception Experiment,xx17m26,
120,vgpdm_dyn(30)-lvm(15)_final(7).mov,False,left,0,training(30).mov,0,119,119,69,,,,,,,,16:36:31:070,16:36:31:586,16:36:34:589,left,16:36:34:856,,2018_Jun_11_1624,59.9596222988,MP-Perception Experiment,xx17m26,
121,training(12).mov,True,right,0,vgpdm_dyn(35)-lvm(30)_final(5).mov,0,120,120,24,,,,,,,,16:36:35:635,16:36:36:357,16:36:39:359,right,16:36:40:277,,2018_Jun_11_1624,59.9596222988,MP-Perception Experiment,xx17m26,
122,training(9).mov,True,right,0,vgpdm_dyn(35)-lvm(5)_final(6).mov,0,121,121,51,,,,,,,,16:36:41:698,16:36:42:211,16:36:44:780,right,16:36:45:264,,2018_Jun_11_1624,59.9596222988,MP-Perception Experiment,xx17m26,
123,dmp_npsi(30)_final(2).mov,True,left,0,training(36).mov,0,122,122,49,,,,,,,,16:36:46:038,16:36:46:766,16:36:49:769,right,16:36:50:102,,2018_Jun_11_1624,59.9596222988,MP-Perception Experiment,xx17m26,
124,training(31).mov,False,right,0,vgpdm_dyn(35)-lvm(30)_final(4).mov,0,123,123,15,,,,,,,,16:36:50:877,16:36:51:603,16:36:54:606,right,16:36:54:889,,2018_Jun_11_1624,59.9596222988,MP-Perception Experiment,xx17m26,
125,training(27).mov,False,right,0,vcgpdm_dyn(20)-lvm(15)_final(1).mov,0,124,124,154,,,,,,,,16:36:55:685,16:36:56:391,16:36:59:393,right,16:36:59:710,,2018_Jun_11_1624,59.9596222988,MP-Perception Experiment,xx17m26,
126,training(4).mov,True,right,0,vgpdm_dyn(20)-lvm(35)_final(9).mov,0,125,125,46,,,,,,,,16:37:00:667,16:37:01:211,16:37:04:215,right,16:37:04:513,,2018_Jun_11_1624,59.9596222988,MP-Perception Experiment,xx17m26,
127,tmp_numprim(10)_final(5).mov,False,left,0,training(32).mov,0,126,126,60,,,,,,,,16:37:05:499,16:37:06:014,16:37:09:017,left,16:37:09:350,,2018_Jun_11_1624,59.9596222988,MP-Perception Experiment,xx17m26,
128,training(31).mov,True,right,0,vcgpdm_dyn(30)-lvm(30)_final(9).mov,0,127,127,140,,,,,,,,16:37:10:298,16:37:10:851,16:37:13:854,right,16:37:14:271,,2018_Jun_11_1624,59.9596222988,MP-Perception Experiment,xx17m26,
129,training(9).mov,False,right,0,vgpdm_dyn(15)-lvm(35)_final(3).mov,0,128,128,95,,,,,,,,16:37:15:223,16:37:15:772,16:37:18:760,right,16:37:18:993,,2018_Jun_11_1624,59.9596222988,MP-Perception Experiment,xx17m26,
130,training(31).mov,True,right,0,vgpdm_dyn(30)-lvm(15)_final(0).mov,0,129,129,125,,,,,,,,16:37:19:947,16:37:20:494,16:37:23:498,right,16:37:23:765,,2018_Jun_11_1624,59.9596222988,MP-Perception Experiment,xx17m26,
131,tmp_numprim(4)_final(7).mov,False,left,0,training(0).mov,0,130,130,37,,,,,,,,16:37:24:637,16:37:25:266,16:37:28:268,left,16:37:28:785,,2018_Jun_11_1624,59.9596222988,MP-Perception Experiment,xx17m26,
132,vcgpdm_dyn(25)-lvm(35)_final(7).mov,True,left,0,training(19).mov,0,131,131,72,,,,,,,,16:37:29:730,16:37:30:287,16:37:33:289,left,16:37:33:623,,2018_Jun_11_1624,59.9596222988,MP-Perception Experiment,xx17m26,
133,training(8).mov,False,right,0,vgpdm_dyn(20)-lvm(10)_final(6)_out_of_screen.mov,0,132,132,13,,,,,,,,16:37:34:403,16:37:35:124,16:37:38:127,right,16:37:38:478,,2018_Jun_11_1624,59.9596222988,MP-Perception Experiment,xx17m26,
134,training(4).mov,False,right,0,vgpdm_dyn(15)-lvm(35)_final(9).mov,0,133,133,96,,,,,,,,16:37:39:256,16:37:39:979,16:37:42:981,right,16:37:43:315,,2018_Jun_11_1624,59.9596222988,MP-Perception Experiment,xx17m26,
135,tmp_numprim(10)_final(0).mov,True,left,0,training(21).mov,0,134,134,16,,,,,,,,16:37:44:284,16:37:44:816,16:37:47:819,left,16:37:48:269,,2018_Jun_11_1624,59.9596222988,MP-Perception Experiment,xx17m26,
136,training(7).mov,True,right,0,tmp_numprim(6)_final(8).mov,0,135,135,18,,,,,,,,16:37:49:230,16:37:49:770,16:37:52:773,right,16:37:53:089,,2018_Jun_11_1624,59.9596222988,MP-Perception Experiment,xx17m26,
137,training(21).mov,False,right,0,vgpdm_dyn(5)-lvm(10)_final(5).mov,0,136,136,102,,,,,,,,16:37:53:862,16:37:54:605,16:37:57:592,right,16:37:58:026,,2018_Jun_11_1624,59.9596222988,MP-Perception Experiment,xx17m26,
138,training(37).mov,False,right,0,vcgpdm_dyn(15)-lvm(5)_final(6).mov,0,137,137,76,,,,,,,,16:37:59:007,16:37:59:527,16:38:02:530,right,16:38:02:897,,2018_Jun_11_1624,59.9596222988,MP-Perception Experiment,xx17m26,
139,vgpdm_dyn(25)-lvm(35)_final(4).mov,False,left,0,training(6).mov,0,138,138,146,,,,,,,,16:38:03:862,16:38:04:398,16:38:07:385,right,16:38:07:736,,2018_Jun_11_1624,59.9596222988,MP-Perception Experiment,xx17m26,
140,vgpdm_dyn(30)-lvm(10)_final(8).mov,False,left,0,training(15).mov,0,139,139,11,,,,,,,,16:38:08:701,16:38:09:237,16:38:12:239,left,16:38:12:873,,2018_Jun_11_1624,59.9596222988,MP-Perception Experiment,xx17m26,
141,map_cgpdm_final(6).mov,False,left,0,training(48).mov,0,140,140,7,,,,,,,,16:38:13:832,16:38:14:375,16:38:17:378,left,16:38:17:761,,2018_Jun_11_1624,59.9596222988,MP-Perception Experiment,xx17m26,
142,vgpdm_dyn(15)-lvm(35)_final(1).mov,True,left,0,training(3).mov,0,141,141,4,,,,,,,,16:38:18:721,16:38:19:262,16:38:22:265,left,16:38:22:582,,2018_Jun_11_1624,59.9596222988,MP-Perception Experiment,xx17m26,
143,training(14).mov,False,right,0,vcgpdm_dyn(10)-lvm(15)_final(4).mov,0,142,142,54,,,,,,,,16:38:23:549,16:38:24:083,16:38:27:086,right,16:38:27:386,,2018_Jun_11_1624,59.9596222988,MP-Perception Experiment,xx17m26,
144,training(36).mov,False,right,0,vcgpdm_dyn(20)-lvm(5)_final(7).mov,0,143,143,122,,,,,,,,16:38:28:162,16:38:28:887,16:38:31:890,right,16:38:32:191,,2018_Jun_11_1624,59.9596222988,MP-Perception Experiment,xx17m26,
145,vgpdm_dyn(10)-lvm(20)_final(0).mov,False,left,0,training(10).mov,0,144,144,6,,,,,,,,16:38:32:984,16:38:33:692,16:38:36:694,right,16:38:37:045,,2018_Jun_11_1624,59.9596222988,MP-Perception Experiment,xx17m26,
146,vgpdm_dyn(20)-lvm(30)_final(0).mov,False,left,0,training(23).mov,0,145,145,138,,,,,,,,16:38:37:822,16:38:38:546,16:38:41:548,left,16:38:41:999,,2018_Jun_11_1624,59.9596222988,MP-Perception Experiment,xx17m26,
147,vcgpdm_dyn(15)-lvm(30)_final(0).mov,False,left,0,training(21).mov,0,146,146,147,,,,,,,,16:38:42:780,16:38:43:500,16:38:46:500,right,16:38:46:984,,2018_Jun_11_1624,59.9596222988,MP-Perception Experiment,xx17m26,
148,training(40).mov,True,right,0,vgpdm_dyn(30)-lvm(35)_final(2).mov,0,147,147,35,,,,,,,,16:38:47:771,16:38:48:486,16:38:51:489,left,16:38:51:839,,2018_Jun_11_1624,59.9596222988,MP-Perception Experiment,xx17m26,
149,vcgpdm_dyn(35)-lvm(10)_final(2).mov,True,left,0,training(24).mov,0,148,148,129,,,,,,,,16:38:52:625,16:38:53:340,16:38:56:328,right,16:38:56:511,,2018_Jun_11_1624,59.9596222988,MP-Perception Experiment,xx17m26,
150,vgpdm_dyn(10)-lvm(15)_final(8).mov,True,left,0,training(40).mov,0,149,149,94,,,,,,,,16:38:57:291,16:38:58:012,16:39:01:015,left,16:39:01:315,,2018_Jun_11_1624,59.9596222988,MP-Perception Experiment,xx17m26,
151,training(19).mov,True,right,0,vgpdm_dyn(20)-lvm(25)_final(8).mov,0,150,150,120,,,,,,,,16:39:02:304,16:39:02:816,16:39:05:820,right,16:39:06:187,,2018_Jun_11_1624,59.9596222988,MP-Perception Experiment,xx17m26,
152,vcgpdm_dyn(10)-lvm(30)_final(7).mov,True,left,0,training(8).mov,0,151,151,144,,,,,,,,16:39:07:146,16:39:07:688,16:39:10:690,right,16:39:10:991,,2018_Jun_11_1624,59.9596222988,MP-Perception Experiment,xx17m26,
153,training(13).mov,True,right,0,vgpdm_dyn(20)-lvm(20)_final(8).mov,0,152,152,104,,,,,,,,16:39:11:945,16:39:12:492,16:39:15:494,left,16:39:15:778,,2018_Jun_11_1624,59.9596222988,MP-Perception Experiment,xx17m26,
154,vcgpdm_dyn(10)-lvm(5)_final(6).mov,False,left,0,training(1).mov,0,153,153,34,,,,,,,,16:39:16:741,16:39:17:279,16:39:20:282,right,16:39:20:665,,2018_Jun_11_1624,59.9596222988,MP-Perception Experiment,xx17m26,
155,training(40).mov,False,right,0,vcgpdm_dyn(10)-lvm(20)_final(6).mov,0,154,154,10,,,,,,,,16:39:21:627,16:39:22:166,16:39:25:170,right,16:39:25:620,,2018_Jun_11_1624,59.9596222988,MP-Perception Experiment,xx17m26,
156,vcgpdm_dyn(10)-lvm(25)_final(4).mov,True,left,0,training(7).mov,0,155,155,29,,,,,,,,16:39:26:402,16:39:27:121,16:39:30:124,left,16:39:31:358,,2018_Jun_11_1624,59.9596222988,MP-Perception Experiment,xx17m26,
157,training(18).mov,True,right,0,vgpdm_dyn(30)-lvm(5)_final(0).mov,0,156,156,101,,,,,,,,16:39:32:331,16:39:32:859,16:39:35:860,left,16:39:36:210,,2018_Jun_11_1624,59.9596222988,MP-Perception Experiment,xx17m26,
158,training(2).mov,True,right,0,vcgpdm_dyn(30)-lvm(30)_final(8).mov,0,157,157,156,,,,,,,,16:39:36:997,16:39:37:711,16:39:40:715,right,16:39:40:982,,2018_Jun_11_1624,59.9596222988,MP-Perception Experiment,xx17m26,
159,vcgpdm_dyn(25)-lvm(5)_final(4).mov,True,left,0,training(31).mov,0,158,158,124,,,,,,,,16:39:41:797,16:39:42:483,16:39:45:485,left,16:39:45:936,,2018_Jun_11_1624,59.9596222988,MP-Perception Experiment,xx17m26,
160,vcgpdm_dyn(15)-lvm(35)_final(8).mov,True,left,1,training(0).mov,0,0,0,88,,,,,,,,16:42:23:889,16:42:24:441,16:42:27:427,left,16:42:27:877,,2018_Jun_11_1624,59.9596222988,MP-Perception Experiment,xx17m26,
161,training(13).mov,False,right,1,vgpdm_dyn(20)-lvm(35)_final(2).mov,0,1,1,92,,,,,,,,16:42:28:848,16:42:29:378,16:42:32:381,right,16:42:32:881,,2018_Jun_11_1624,59.9596222988,MP-Perception Experiment,xx17m26,
162,training(18).mov,False,right,1,vcgpdm_dyn(30)-lvm(35)_final(4).mov,0,2,2,127,,,,,,,,16:42:33:664,16:42:34:382,16:42:37:386,left,16:42:37:803,,2018_Jun_11_1624,59.9596222988,MP-Perception Experiment,xx17m26,
163,training(15).mov,False,right,1,vcgpdm_dyn(30)-lvm(30)_final(8).mov,0,3,3,115,,,,,,,,16:42:38:583,16:42:39:304,16:42:42:307,right,16:42:42:590,,2018_Jun_11_1624,59.9596222988,MP-Perception Experiment,xx17m26,
164,vgpdm_dyn(25)-lvm(35)_final(0).mov,False,left,1,training(2).mov,0,4,4,106,,,,,,,,16:42:43:371,16:42:44:091,16:42:47:094,left,16:42:47:411,,2018_Jun_11_1624,59.9596222988,MP-Perception Experiment,xx17m26,
165,training(11).mov,True,right,1,vgpdm_dyn(5)-lvm(15)_final(5).mov,0,5,5,96,,,,,,,,16:42:48:189,16:42:48:912,16:42:51:914,right,16:42:52:198,,2018_Jun_11_1624,59.9596222988,MP-Perception Experiment,xx17m26,
166,vcgpdm_dyn(5)-lvm(20)_final(8).mov,False,left,1,training(10).mov,0,6,6,53,,,,,,,,16:42:52:985,16:42:53:700,16:42:56:701,right,16:42:56:951,,2018_Jun_11_1624,59.9596222988,MP-Perception Experiment,xx17m26,
167,vcgpdm_dyn(10)-lvm(30)_final(2).mov,True,left,1,training(10).mov,0,7,7,56,,,,,,,,16:42:57:730,16:42:58:452,16:43:01:455,left,16:43:01:721,,2018_Jun_11_1624,59.9596222988,MP-Perception Experiment,xx17m26,
168,vcgpdm_dyn(15)-lvm(35)_final(4).mov,False,left,1,training(4).mov,0,8,8,14,,,,,,,,16:43:02:502,16:43:03:223,16:43:06:225,right,16:43:06:509,,2018_Jun_11_1624,59.9596222988,MP-Perception Experiment,xx17m26,
169,vgpdm_dyn(25)-lvm(30)_final(3).mov,False,left,1,training(37).mov,0,9,9,50,,,,,,,,16:43:07:320,16:43:08:010,16:43:10:998,left,16:43:11:366,,2018_Jun_11_1624,59.9596222988,MP-Perception Experiment,xx17m26,
170,vcgpdm_dyn(20)-lvm(30)_final(1).mov,True,left,1,training(19).mov,0,10,10,154,,,,,,,,16:43:12:161,16:43:12:866,16:43:15:869,left,16:43:16:119,,2018_Jun_11_1624,59.9596222988,MP-Perception Experiment,xx17m26,
171,vgpdm_dyn(5)-lvm(20)_final(7).mov,True,left,1,training(48).mov,0,11,11,28,,,,,,,,16:43:16:900,16:43:17:620,16:43:20:623,left,16:43:20:856,,2018_Jun_11_1624,59.9596222988,MP-Perception Experiment,xx17m26,
172,training(19).mov,False,right,1,vgpdm_dyn(15)-lvm(10)_final(2)_out_of_screen.mov,0,12,12,1,,,,,,,,16:43:21:810,16:43:22:357,16:43:25:360,right,16:43:25:694,,2018_Jun_11_1624,59.9596222988,MP-Perception Experiment,xx17m26,
173,training(39).mov,False,right,1,vcgpdm_dyn(35)-lvm(25)_final(4).mov,0,13,13,121,,,,,,,,16:43:26:647,16:43:27:195,16:43:30:198,right,16:43:30:599,,2018_Jun_11_1624,59.9596222988,MP-Perception Experiment,xx17m26,
174,map_cgpdm_final(5).mov,False,left,1,training(39).mov,0,14,14,39,,,,,,,,16:43:31:553,16:43:32:100,16:43:35:102,left,16:43:35:352,,2018_Jun_11_1624,59.9596222988,MP-Perception Experiment,xx17m26,
175,training(4).mov,False,right,1,vgpdm_dyn(15)-lvm(25)_final(6).mov,0,15,15,8,,,,,,,,16:43:36:251,16:43:36:854,16:43:39:856,right,16:43:40:373,,2018_Jun_11_1624,59.9596222988,MP-Perception Experiment,xx17m26,
176,vcgpdm_dyn(10)-lvm(35)_final(1).mov,True,left,1,training(35).mov,0,16,16,49,,,,,,,,16:43:41:962,16:43:41:962,16:43:44:875,left,16:43:45:310,,2018_Jun_11_1624,59.9596222988,MP-Perception Experiment,xx17m26,
177,training(5).mov,False,right,1,vgpdm_dyn(5)-lvm(15)_final(7).mov,0,17,17,118,,,,,,,,16:43:46:095,16:43:46:811,16:43:49:813,right,16:43:50:097,,2018_Jun_11_1624,59.9596222988,MP-Perception Experiment,xx17m26,
178,vcgpdm_dyn(15)-lvm(15)_final(1).mov,True,left,1,training(7).mov,0,18,18,9,,,,,,,,16:43:51:050,16:43:51:598,16:43:54:600,left,16:43:54:917,,2018_Jun_11_1624,59.9596222988,MP-Perception Experiment,xx17m26,
179,training(24).mov,True,right,1,vcgpdm_dyn(30)-lvm(20)_final(4).mov,0,19,19,111,,,,,,,,16:43:55:877,16:43:56:420,16:43:59:406,right,16:43:59:907,,2018_Jun_11_1624,59.9596222988,MP-Perception Experiment,xx17m26,
180,training(31).mov,True,right,1,vcgpdm_dyn(5)-lvm(20)_final(3).mov,0,20,20,70,,,,,,,,16:44:00:699,16:44:01:408,16:44:04:411,right,16:44:04:878,,2018_Jun_11_1624,59.9596222988,MP-Perception Experiment,xx17m26,
181,training(48).mov,False,right,1,dmp_npsi(40)_final(8).mov,0,21,21,47,,,,,,,,16:44:05:659,16:44:06:379,16:44:09:382,right,16:44:09:665,,2018_Jun_11_1624,59.9596222988,MP-Perception Experiment,xx17m26,
182,training(33).mov,True,right,1,vcgpdm_dyn(20)-lvm(30)_final(7).mov,0,22,22,107,,,,,,,,16:44:10:652,16:44:11:167,16:44:14:169,right,16:44:14:586,,2018_Jun_11_1624,59.9596222988,MP-Perception Experiment,xx17m26,
183,vgpdm_dyn(35)-lvm(5)_final(7).mov,False,left,1,training(1).mov,0,23,23,150,,,,,,,,16:44:15:368,16:44:16:087,16:44:19:090,left,16:44:19:373,,2018_Jun_11_1624,59.9596222988,MP-Perception Experiment,xx17m26,
184,vcgpdm_dyn(15)-lvm(20)_final(0).mov,True,left,1,training(30).mov,0,24,24,23,,,,,,,,16:44:20:160,16:44:20:875,16:44:23:878,left,16:44:24:245,,2018_Jun_11_1624,59.9596222988,MP-Perception Experiment,xx17m26,
185,training(20).mov,False,right,1,vcgpdm_dyn(20)-lvm(20)_final(3).mov,0,25,25,22,,,,,,,,16:44:25:241,16:44:25:746,16:44:28:749,right,16:44:29:149,,2018_Jun_11_1624,59.9596222988,MP-Perception Experiment,xx17m26,
186,training(40).mov,False,right,1,dmp_npsi(30)_final(1).mov,0,26,26,135,,,,,,,,16:44:29:924,16:44:30:650,16:44:33:653,right,16:44:33:953,,2018_Jun_11_1624,59.9596222988,MP-Perception Experiment,xx17m26,
187,vcgpdm_dyn(5)-lvm(5)_final(9).mov,False,left,1,training(13).mov,0,27,27,71,,,,,,,,16:44:34:917,16:44:35:469,16:44:38:456,left,16:44:38:606,,2018_Jun_11_1624,59.9596222988,MP-Perception Experiment,xx17m26,
188,vgpdm_dyn(30)-lvm(30)_final(2).mov,False,left,1,training(22).mov,0,28,28,97,,,,,,,,16:44:39:570,16:44:40:107,16:44:43:109,right,16:44:43:376,,2018_Jun_11_1624,59.9596222988,MP-Perception Experiment,xx17m26,
189,vgpdm_dyn(10)-lvm(30)_final(8).mov,True,left,1,training(31).mov,0,29,29,94,,,,,,,,16:44:44:337,16:44:44:877,16:44:47:865,left,16:44:48:115,,2018_Jun_11_1624,59.9596222988,MP-Perception Experiment,xx17m26,
190,vgpdm_dyn(30)-lvm(25)_final(5).mov,False,left,1,training(27).mov,0,30,30,51,,,,,,,,16:44:49:081,16:44:49:616,16:44:52:619,right,16:44:52:936,,2018_Jun_11_1624,59.9596222988,MP-Perception Experiment,xx17m26,
191,vgpdm_dyn(5)-lvm(15)_final(6).mov,False,left,1,training(21).mov,0,31,31,24,,,,,,,,16:44:53:899,16:44:54:437,16:44:57:440,left,16:44:57:640,,2018_Jun_11_1624,59.9596222988,MP-Perception Experiment,xx17m26,
192,vgpdm_dyn(5)-lvm(20)_final(7).mov,False,left,1,training(1).mov,0,32,32,3,,,,,,,,16:44:58:604,16:44:59:142,16:45:02:144,right,16:45:02:444,,2018_Jun_11_1624,59.9596222988,MP-Perception Experiment,xx17m26,
193,training(27).mov,True,right,1,vcgpdm_dyn(5)-lvm(25)_final(1).mov,0,33,33,29,,,,,,,,16:45:03:409,16:45:03:945,16:45:06:948,right,16:45:07:215,,2018_Jun_11_1624,59.9596222988,MP-Perception Experiment,xx17m26,
194,vgpdm_dyn(30)-lvm(35)_final(4).mov,True,left,1,training(15).mov,0,34,34,120,,,,,,,,16:45:07:988,16:45:08:716,16:45:11:719,left,16:45:12:035,,2018_Jun_11_1624,59.9596222988,MP-Perception Experiment,xx17m26,
195,vgpdm_dyn(10)-lvm(30)_final(6).mov,False,left,1,training(5).mov,0,35,35,105,,,,,,,,16:45:13:024,16:45:13:538,16:45:16:540,left,16:45:16:807,,2018_Jun_11_1624,59.9596222988,MP-Perception Experiment,xx17m26,
196,vgpdm_dyn(5)-lvm(20)_final(7).mov,False,left,1,training(28).mov,0,36,36,13,,,,,,,,16:45:17:581,16:45:18:308,16:45:21:311,right,16:45:21:611,,2018_Jun_11_1624,59.9596222988,MP-Perception Experiment,xx17m26,
197,training(27).mov,True,right,1,vgpdm_dyn(30)-lvm(15)_final(7).mov,0,37,37,34,,,,,,,,16:45:22:391,16:45:23:112,16:45:26:113,right,16:45:26:513,,2018_Jun_11_1624,59.9596222988,MP-Perception Experiment,xx17m26,
198,map_cgpdm_final(8).mov,True,left,1,training(19).mov,0,38,38,63,,,,,,,,16:45:27:292,16:45:28:014,16:45:31:018,right,16:45:31:451,,2018_Jun_11_1624,59.9596222988,MP-Perception Experiment,xx17m26,
199,training(27).mov,True,right,1,vgpdm_dyn(15)-lvm(30)_final(2).mov,0,39,39,18,,,,,,,,16:45:32:231,16:45:32:952,16:45:35:955,right,16:45:36:472,,2018_Jun_11_1624,59.9596222988,MP-Perception Experiment,xx17m26,
200,vgpdm_dyn(35)-lvm(5)_final(2).mov,False,left,1,training(40).mov,0,40,40,89,,,,,,,,16:45:37:253,16:45:37:973,16:45:40:961,left,16:45:41:311,,2018_Jun_11_1624,59.9596222988,MP-Perception Experiment,xx17m26,
201,tmp_numprim(9)_final(0).mov,False,left,1,training(31).mov,0,41,41,30,,,,,,,,16:45:42:096,16:45:42:812,16:45:45:815,left,16:45:46:182,,2018_Jun_11_1624,59.9596222988,MP-Perception Experiment,xx17m26,
202,training(37).mov,False,right,1,vcgpdm_dyn(20)-lvm(25)_final(4).mov,0,42,42,44,,,,,,,,16:45:46:969,16:45:47:684,16:45:50:686,right,16:45:50:970,,2018_Jun_11_1624,59.9596222988,MP-Perception Experiment,xx17m26,
203,training(34).mov,True,right,1,vcgpdm_dyn(15)-lvm(30)_final(5).mov,0,43,43,17,,,,,,,,16:45:51:751,16:45:52:471,16:45:55:474,right,16:45:55:740,,2018_Jun_11_1624,59.9596222988,MP-Perception Experiment,xx17m26,
204,vgpdm_dyn(5)-lvm(20)_final(5).mov,False,left,1,training(39).mov,0,44,44,6,,,,,,,,16:45:56:522,16:45:57:241,16:46:00:244,left,16:46:00:578,,2018_Jun_11_1624,59.9596222988,MP-Perception Experiment,xx17m26,
205,training(33).mov,True,right,1,vcgpdm_dyn(15)-lvm(35)_final(1).mov,0,45,45,84,,,,,,,,16:46:01:364,16:46:02:079,16:46:05:082,left,16:46:05:399,,2018_Jun_11_1624,59.9596222988,MP-Perception Experiment,xx17m26,
206,vcgpdm_dyn(10)-lvm(5)_final(1).mov,False,left,1,training(12).mov,0,46,46,35,,,,,,,,16:46:06:182,16:46:06:900,16:46:09:903,right,16:46:10:220,,2018_Jun_11_1624,59.9596222988,MP-Perception Experiment,xx17m26,
207,training(14).mov,True,right,1,vcgpdm_dyn(10)-lvm(25)_final(2).mov,0,47,47,87,,,,,,,,16:46:11:002,16:46:11:721,16:46:14:723,right,16:46:15:038,,2018_Jun_11_1624,59.9596222988,MP-Perception Experiment,xx17m26,
208,training(38).mov,True,right,1,vgpdm_dyn(25)-lvm(5)_final(5).mov,0,48,48,33,,,,,,,,16:46:16:035,16:46:16:540,16:46:19:542,right,16:46:19:859,,2018_Jun_11_1624,59.9596222988,MP-Perception Experiment,xx17m26,
209,vcgpdm_dyn(20)-lvm(5)_final(7).mov,False,left,1,training(5).mov,0,49,49,145,,,,,,,,16:46:20:821,16:46:21:360,16:46:24:364,right,16:46:24:664,,2018_Jun_11_1624,59.9596222988,MP-Perception Experiment,xx17m26,
210,vgpdm_dyn(20)-lvm(30)_final(5).mov,True,left,1,training(8).mov,0,50,50,40,,,,,,,,16:46:25:622,16:46:26:165,16:46:29:153,left,16:46:29:720,,2018_Jun_11_1624,59.9596222988,MP-Perception Experiment,xx17m26,
211,vgpdm_dyn(25)-lvm(30)_final(3).mov,True,left,1,training(29).mov,0,51,51,75,,,,,,,,16:46:30:672,16:46:31:221,16:46:34:224,left,16:46:34:591,,2018_Jun_11_1624,59.9596222988,MP-Perception Experiment,xx17m26,
212,training(33).mov,True,right,1,tmp_numprim(7)_final(4).mov,0,52,52,61,,,,,,,,16:46:35:557,16:46:36:092,16:46:39:094,left,16:46:39:378,,2018_Jun_11_1624,59.9596222988,MP-Perception Experiment,xx17m26,
213,training(10).mov,False,right,1,tmp_numprim(9)_final(3).mov,0,53,53,62,,,,,,,,16:46:40:338,16:46:40:880,16:46:43:882,right,16:46:44:166,,2018_Jun_11_1624,59.9596222988,MP-Perception Experiment,xx17m26,
214,vcgpdm_dyn(25)-lvm(5)_final(9).mov,False,left,1,training(38).mov,0,54,54,4,,,,,,,,16:46:45:112,16:46:45:667,16:46:48:670,left,16:46:48:953,,2018_Jun_11_1624,59.9596222988,MP-Perception Experiment,xx17m26,
215,training(26).mov,False,right,1,vcgpdm_dyn(10)-lvm(20)_final(3).mov,0,55,55,148,,,,,,,,16:46:49:905,16:46:50:454,16:46:53:457,right,16:46:53:740,,2018_Jun_11_1624,59.9596222988,MP-Perception Experiment,xx17m26,
216,training(26).mov,False,right,1,tmp_numprim(8)_final(6).mov,0,56,56,98,,,,,,,,16:46:54:704,16:46:55:241,16:46:58:245,left,16:46:58:678,,2018_Jun_11_1624,59.9596222988,MP-Perception Experiment,xx17m26,
217,vgpdm_dyn(15)-lvm(30)_final(5).mov,False,left,1,training(15).mov,0,57,57,0,,,,,,,,16:46:59:634,16:47:00:180,16:47:03:182,left,16:47:03:532,,2018_Jun_11_1624,59.9596222988,MP-Perception Experiment,xx17m26,
218,vcgpdm_dyn(20)-lvm(30)_final(8).mov,True,left,1,training(13).mov,0,58,58,10,,,,,,,,16:47:04:484,16:47:05:048,16:47:08:034,left,16:47:08:318,,2018_Jun_11_1624,59.9596222988,MP-Perception Experiment,xx17m26,
219,vcgpdm_dyn(15)-lvm(25)_final(2).mov,False,left,1,training(3).mov,0,59,59,129,,,,,,,,16:47:09:094,16:47:09:819,16:47:12:822,right,16:47:13:172,,2018_Jun_11_1624,59.9596222988,MP-Perception Experiment,xx17m26,
220,training(16).mov,True,right,1,vcgpdm_dyn(30)-lvm(25)_final(5).mov,0,60,60,76,,,,,,,,16:47:13:955,16:47:14:673,16:47:17:662,right,16:47:17:962,,2018_Jun_11_1624,59.9596222988,MP-Perception Experiment,xx17m26,
221,training(26).mov,False,right,1,vcgpdm_dyn(20)-lvm(30)_final(9).mov,0,61,61,81,,,,,,,,16:47:18:764,16:47:19:463,16:47:22:465,right,16:47:22:899,,2018_Jun_11_1624,59.9596222988,MP-Perception Experiment,xx17m26,
222,training(34).mov,False,right,1,vcgpdm_dyn(5)-lvm(25)_final(7).mov,0,62,62,41,,,,,,,,16:47:23:677,16:47:24:400,16:47:27:403,right,16:47:27:720,,2018_Jun_11_1624,59.9596222988,MP-Perception Experiment,xx17m26,
223,training(32).mov,True,right,1,vcgpdm_dyn(10)-lvm(20)_final(5).mov,0,63,63,132,,,,,,,,16:47:28:490,16:47:29:221,16:47:32:223,right,16:47:32:440,,2018_Jun_11_1624,59.9596222988,MP-Perception Experiment,xx17m26,
224,training(21).mov,True,right,1,vcgpdm_dyn(25)-lvm(5)_final(9).mov,0,64,64,131,,,,,,,,16:47:33:224,16:47:33:942,16:47:36:945,right,16:47:37:278,,2018_Jun_11_1624,59.9596222988,MP-Perception Experiment,xx17m26,
225,dmp_npsi(20)_final(4).mov,False,left,1,training(30).mov,0,65,65,143,,,,,,,,16:47:38:062,16:47:38:779,16:47:41:782,left,16:47:42:266,,2018_Jun_11_1624,59.9596222988,MP-Perception Experiment,xx17m26,
226,vcgpdm_dyn(10)-lvm(35)_final(5).mov,True,left,1,training(48).mov,0,66,66,74,,,,,,,,16:47:43:047,16:47:43:767,16:47:46:769,left,16:47:47:136,,2018_Jun_11_1624,59.9596222988,MP-Perception Experiment,xx17m26,
227,training(28).mov,False,right,1,tmp_numprim(4)_final(1).mov,0,67,67,65,,,,,,,,16:47:47:926,16:47:48:637,16:47:51:641,right,16:47:51:841,,2018_Jun_11_1624,59.9596222988,MP-Perception Experiment,xx17m26,
228,training(35).mov,False,right,1,vcgpdm_dyn(5)-lvm(30)_final(1)_bad.mov,0,68,68,5,,,,,,,,16:47:52:810,16:47:53:342,16:47:56:343,right,16:47:56:610,,2018_Jun_11_1624,59.9596222988,MP-Perception Experiment,xx17m26,
229,vcgpdm_dyn(5)-lvm(25)_final(9).mov,True,left,1,training(28).mov,0,69,69,139,,,,,,,,16:47:57:398,16:47:58:111,16:48:01:113,left,16:48:01:397,,2018_Jun_11_1624,59.9596222988,MP-Perception Experiment,xx17m26,
230,vgpdm_dyn(15)-lvm(15)_final(1).mov,True,left,1,training(22).mov,0,70,70,21,,,,,,,,16:48:02:353,16:48:02:898,16:48:05:901,left,16:48:06:218,,2018_Jun_11_1624,59.9596222988,MP-Perception Experiment,xx17m26,
231,training(25).mov,True,right,1,dmp_npsi(25)_final(0).mov,0,71,71,142,,,,,,,,16:48:06:996,16:48:07:720,16:48:10:707,right,16:48:11:158,,2018_Jun_11_1624,59.9596222988,MP-Perception Experiment,xx17m26,
232,training(38).mov,True,right,1,vcgpdm_dyn(5)-lvm(5)_final(4).mov,0,72,72,119,,,,,,,,16:48:12:111,16:48:12:659,16:48:15:661,right,16:48:15:912,,2018_Jun_11_1624,59.9596222988,MP-Perception Experiment,xx17m26,
233,vcgpdm_dyn(5)-lvm(25)_final(7).mov,False,left,1,training(13).mov,0,73,73,37,,,,,,,,16:48:16:694,16:48:17:413,16:48:20:415,left,16:48:20:766,,2018_Jun_11_1624,59.9596222988,MP-Perception Experiment,xx17m26,
234,training(28).mov,False,right,1,vcgpdm_dyn(10)-lvm(10)_final(9).mov,0,74,74,90,,,,,,,,16:48:21:755,16:48:22:267,16:48:25:270,right,16:48:25:604,,2018_Jun_11_1624,59.9596222988,MP-Perception Experiment,xx17m26,
235,training(14).mov,True,right,1,vcgpdm_dyn(30)-lvm(5)_final(7).mov,0,75,75,16,,,,,,,,16:48:26:569,16:48:27:105,16:48:30:124,right,16:48:30:508,,2018_Jun_11_1624,59.9596222988,MP-Perception Experiment,xx17m26,
236,vcgpdm_dyn(30)-lvm(15)_final(7).mov,False,left,1,training(31).mov,0,76,76,114,,,,,,,,16:48:31:287,16:48:32:009,16:48:35:011,left,16:48:35:328,,2018_Jun_11_1624,59.9596222988,MP-Perception Experiment,xx17m26,
237,vcgpdm_dyn(35)-lvm(20)_final(1).mov,False,left,1,training(32).mov,0,77,77,152,,,,,,,,16:48:36:113,16:48:36:829,16:48:39:832,left,16:48:40:082,,2018_Jun_11_1624,59.9596222988,MP-Perception Experiment,xx17m26,
238,training(36).mov,False,right,1,vcgpdm_dyn(35)-lvm(10)_final(3).mov,0,78,78,155,,,,,,,,16:48:41:814,16:48:41:814,16:48:44:587,right,16:48:45:102,,2018_Jun_11_1624,59.9596222988,MP-Perception Experiment,xx17m26,
239,training(39).mov,True,right,1,vcgpdm_dyn(15)-lvm(10)_final(6).mov,0,79,79,36,,,,,,,,16:48:45:883,16:48:46:603,16:48:49:606,right,16:48:49:956,,2018_Jun_11_1624,59.9596222988,MP-Perception Experiment,xx17m26,
240,map_gpdm_final(1).mov,True,left,1,training(33).mov,0,80,80,101,,,,,,,,16:48:50:737,16:48:51:457,16:48:54:460,left,16:48:54:726,,2018_Jun_11_1624,59.9596222988,MP-Perception Experiment,xx17m26,
241,vgpdm_dyn(30)-lvm(20)_final(9).mov,False,left,1,training(39).mov,0,81,81,122,,,,,,,,16:48:55:513,16:48:56:228,16:48:59:215,right,16:48:59:565,,2018_Jun_11_1624,59.9596222988,MP-Perception Experiment,xx17m26,
242,training(22).mov,True,right,1,vcgpdm_dyn(20)-lvm(5)_final(7).mov,0,82,82,103,,,,,,,,16:49:00:401,16:49:01:068,16:49:04:070,right,16:49:04:637,,2018_Jun_11_1624,59.9596222988,MP-Perception Experiment,xx17m26,
243,training(11).mov,True,right,1,vcgpdm_dyn(30)-lvm(35)_final(5).mov,0,83,83,83,,,,,,,,16:49:05:587,16:49:06:138,16:49:09:141,right,16:49:09:341,,2018_Jun_11_1624,59.9596222988,MP-Perception Experiment,xx17m26,
244,training(12).mov,True,right,1,vcgpdm_dyn(5)-lvm(5)_final(6).mov,0,84,84,141,,,,,,,,16:49:10:288,16:49:10:842,16:49:13:845,right,16:49:14:245,,2018_Jun_11_1624,59.9596222988,MP-Perception Experiment,xx17m26,
245,vgpdm_dyn(30)-lvm(10)_final(5).mov,False,left,1,training(12).mov,0,85,85,133,,,,,,,,16:49:15:199,16:49:15:763,16:49:18:750,right,16:49:18:983,,2018_Jun_11_1624,59.9596222988,MP-Perception Experiment,xx17m26,
246,training(24).mov,False,right,1,vcgpdm_dyn(10)-lvm(20)_final(8).mov,0,86,86,157,,,,,,,,16:49:19:937,16:49:20:484,16:49:23:487,right,16:49:23:820,,2018_Jun_11_1624,59.9596222988,MP-Perception Experiment,xx17m26,
247,vcgpdm_dyn(35)-lvm(15)_final(2)_out_of_screen.mov,False,left,1,training(4).mov,0,87,87,46,,,,,,,,16:49:24:798,16:49:25:321,16:49:28:324,left,16:49:28:674,,2018_Jun_11_1624,59.9596222988,MP-Perception Experiment,xx17m26,
248,tmp_numprim(7)_final(5).mov,True,left,1,training(33).mov,0,88,88,126,,,,,,,,16:49:29:628,16:49:30:175,16:49:33:178,left,16:49:33:461,,2018_Jun_11_1624,59.9596222988,MP-Perception Experiment,xx17m26,
249,training(13).mov,False,right,1,vcgpdm_dyn(20)-lvm(15)_final(3).mov,0,89,89,108,,,,,,,,16:49:34:410,16:49:34:964,16:49:37:964,right,16:49:38:265,,2018_Jun_11_1624,59.9596222988,MP-Perception Experiment,xx17m26,
250,training(15).mov,True,right,1,vcgpdm_dyn(20)-lvm(20)_final(4).mov,0,90,90,153,,,,,,,,16:49:39:219,16:49:39:766,16:49:42:768,right,16:49:43:035,,2018_Jun_11_1624,59.9596222988,MP-Perception Experiment,xx17m26,
251,tmp_numprim(6)_final(4).mov,True,left,1,training(37).mov,0,91,91,80,,,,,,,,16:49:43:806,16:49:44:536,16:49:47:524,left,16:49:47:891,,2018_Jun_11_1624,59.9596222988,MP-Perception Experiment,xx17m26,
252,training(24).mov,False,right,1,vcgpdm_dyn(30)-lvm(15)_final(7).mov,0,92,92,26,,,,,,,,16:49:48:869,16:49:49:392,16:49:52:396,left,16:49:52:796,,2018_Jun_11_1624,59.9596222988,MP-Perception Experiment,xx17m26,
253,vgpdm_dyn(10)-lvm(15)_final(2).mov,True,left,1,training(13).mov,0,93,93,7,,,,,,,,16:49:53:579,16:49:54:314,16:49:57:299,left,16:49:57:450,,2018_Jun_11_1624,59.9596222988,MP-Perception Experiment,xx17m26,
254,training(16).mov,True,right,1,vgpdm_dyn(10)-lvm(5)_final(2).mov,0,94,94,54,,,,,,,,16:49:58:226,16:49:58:951,16:50:01:953,left,16:50:02:287,,2018_Jun_11_1624,59.9596222988,MP-Perception Experiment,xx17m26,
255,vgpdm_dyn(5)-lvm(30)_final(2).mov,True,left,1,training(26).mov,0,95,95,117,,,,,,,,16:50:03:063,16:50:03:788,16:50:06:790,left,16:50:06:974,,2018_Jun_11_1624,59.9596222988,MP-Perception Experiment,xx17m26,
256,training(17).mov,True,right,1,vgpdm_dyn(35)-lvm(5)_final(1).mov,0,96,96,95,,,,,,,,16:50:07:752,16:50:08:492,16:50:11:479,right,16:50:12:046,,2018_Jun_11_1624,59.9596222988,MP-Perception Experiment,xx17m26,
257,vgpdm_dyn(20)-lvm(30)_final(2).mov,True,left,1,training(3).mov,0,97,97,67,,,,,,,,16:50:12:821,16:50:13:547,16:50:16:549,right,16:50:16:900,,2018_Jun_11_1624,59.9596222988,MP-Perception Experiment,xx17m26,
258,training(2).mov,True,right,1,vcgpdm_dyn(15)-lvm(35)_final(8).mov,0,98,98,116,,,,,,,,16:50:17:672,16:50:18:401,16:50:21:403,right,16:50:21:770,,2018_Jun_11_1624,59.9596222988,MP-Perception Experiment,xx17m26,
259,vcgpdm_dyn(10)-lvm(30)_final(7).mov,True,left,1,training(23).mov,0,99,99,100,,,,,,,,16:50:22:728,16:50:23:271,16:50:26:272,left,16:50:26:856,,2018_Jun_11_1624,59.9596222988,MP-Perception Experiment,xx17m26,
260,vcgpdm_dyn(25)-lvm(15)_final(5).mov,False,left,1,training(14).mov,0,100,100,113,,,,,,,,16:50:27:660,16:50:28:358,16:50:31:360,left,16:50:31:677,,2018_Jun_11_1624,59.9596222988,MP-Perception Experiment,xx17m26,
261,vcgpdm_dyn(25)-lvm(10)_final(2).mov,False,left,1,training(12).mov,0,101,101,140,,,,,,,,16:50:32:638,16:50:33:178,16:50:36:181,left,16:50:36:465,,2018_Jun_11_1624,59.9596222988,MP-Perception Experiment,xx17m26,
262,training(10).mov,True,right,1,vcgpdm_dyn(30)-lvm(20)_final(7).mov,0,102,102,25,,,,,,,,16:50:37:250,16:50:37:966,16:50:40:953,left,16:50:41:287,,2018_Jun_11_1624,59.9596222988,MP-Perception Experiment,xx17m26,
263,vgpdm_dyn(15)-lvm(5)_final(8).mov,True,left,1,training(27).mov,0,103,103,99,,,,,,,,16:50:42:073,16:50:42:788,16:50:45:792,right,16:50:46:626,,2018_Jun_11_1624,59.9596222988,MP-Perception Experiment,xx17m26,
264,dmp_npsi(50)_final(4).mov,True,left,1,training(33).mov,0,104,104,93,,,,,,,,16:50:47:405,16:50:48:127,16:50:51:129,left,16:50:51:646,,2018_Jun_11_1624,59.9596222988,MP-Perception Experiment,xx17m26,
265,vcgpdm_dyn(10)-lvm(25)_final(1).mov,False,left,1,training(19).mov,0,105,105,110,,,,,,,,16:50:52:429,16:50:53:164,16:50:56:150,left,16:50:56:500,,2018_Jun_11_1624,59.9596222988,MP-Perception Experiment,xx17m26,
266,training(27).mov,True,right,1,vcgpdm_dyn(15)-lvm(35)_final(4).mov,0,106,106,112,,,,,,,,16:50:57:281,16:50:58:001,16:51:01:004,right,16:51:01:454,,2018_Jun_11_1624,59.9596222988,MP-Perception Experiment,xx17m26,
267,tmp_numprim(2)_final(8).mov,True,left,1,training(6).mov,0,107,107,27,,,,,,,,16:51:02:419,16:51:02:956,16:51:05:959,left,16:51:06:359,,2018_Jun_11_1624,59.9596222988,MP-Perception Experiment,xx17m26,
268,vgpdm_dyn(25)-lvm(20)_final(3).mov,False,left,1,training(16).mov,0,108,108,12,,,,,,,,16:51:07:142,16:51:07:860,16:51:10:863,left,16:51:11:197,,2018_Jun_11_1624,59.9596222988,MP-Perception Experiment,xx17m26,
269,dmp_npsi(45)_final(9).mov,True,left,1,training(5).mov,0,109,109,109,,,,,,,,16:51:12:161,16:51:12:697,16:51:15:698,right,16:51:15:998,,2018_Jun_11_1624,59.9596222988,MP-Perception Experiment,xx17m26,
270,training(19).mov,False,right,1,vcgpdm_dyn(30)-lvm(10)_final(7).mov,0,110,110,32,,,,,,,,16:51:16:775,16:51:17:500,16:51:20:503,right,16:51:20:720,,2018_Jun_11_1624,59.9596222988,MP-Perception Experiment,xx17m26,
271,vcgpdm_dyn(20)-lvm(15)_final(8).mov,False,left,1,training(40).mov,0,111,111,82,,,,,,,,16:51:21:701,16:51:22:221,16:51:25:224,right,16:51:25:357,,2018_Jun_11_1624,59.9596222988,MP-Perception Experiment,xx17m26,
272,vgpdm_dyn(20)-lvm(20)_final(4).mov,False,left,1,training(3).mov,0,112,112,31,,,,,,,,16:51:26:137,16:51:26:858,16:51:29:846,left,16:51:30:063,,2018_Jun_11_1624,59.9596222988,MP-Perception Experiment,xx17m26,
273,training(33).mov,True,right,1,vgpdm_dyn(25)-lvm(30)_final(7).mov,0,113,113,72,,,,,,,,16:51:30:852,16:51:31:564,16:51:34:566,right,16:51:34:816,,2018_Jun_11_1624,59.9596222988,MP-Perception Experiment,xx17m26,
274,vcgpdm_dyn(35)-lvm(30)_final(0).mov,False,left,1,training(20).mov,0,114,114,15,,,,,,,,16:51:35:601,16:51:36:318,16:51:39:321,left,16:51:39:538,,2018_Jun_11_1624,59.9596222988,MP-Perception Experiment,xx17m26,
275,vcgpdm_dyn(35)-lvm(10)_final(2).mov,True,left,1,training(32).mov,0,115,115,43,,,,,,,,16:51:40:304,16:51:41:039,16:51:44:042,left,16:51:44:509,,2018_Jun_11_1624,59.9596222988,MP-Perception Experiment,xx17m26,
276,training(5).mov,False,right,1,vcgpdm_dyn(30)-lvm(30)_final(4).mov,0,116,116,55,,,,,,,,16:51:45:288,16:51:46:010,16:51:49:012,right,16:51:49:179,,2018_Jun_11_1624,59.9596222988,MP-Perception Experiment,xx17m26,
277,training(7).mov,True,right,1,tmp_numprim(7)_final(4).mov,0,117,117,130,,,,,,,,16:51:49:958,16:51:50:680,16:51:53:683,right,16:51:53:883,,2018_Jun_11_1624,59.9596222988,MP-Perception Experiment,xx17m26,
278,training(32).mov,True,right,1,vgpdm_dyn(10)-lvm(10)_final(3).mov,0,118,118,128,,,,,,,,16:51:54:850,16:51:55:385,16:51:58:388,left,16:51:58:554,,2018_Jun_11_1624,59.9596222988,MP-Perception Experiment,xx17m26,
279,training(27).mov,False,right,1,dmp_npsi(35)_final(4).mov,0,119,119,137,,,,,,,,16:51:59:513,16:52:00:055,16:52:03:058,right,16:52:03:308,,2018_Jun_11_1624,59.9596222988,MP-Perception Experiment,xx17m26,
280,map_cgpdm_final(7).mov,False,left,1,training(1).mov,0,120,120,45,,,,,,,,16:52:04:084,16:52:04:809,16:52:07:810,right,16:52:10:696,,2018_Jun_11_1624,59.9596222988,MP-Perception Experiment,xx17m26,
281,training(25).mov,False,right,1,map_cgpdm_final(1).mov,0,121,121,104,,,,,,,,16:52:11:473,16:52:12:198,16:52:15:200,right,16:52:15:484,,2018_Jun_11_1624,59.9596222988,MP-Perception Experiment,xx17m26,
282,training(48).mov,False,right,1,tmp_numprim(6)_final(7).mov,0,122,122,60,,,,,,,,16:52:16:266,16:52:16:985,16:52:19:973,right,16:52:20:289,,2018_Jun_11_1624,59.9596222988,MP-Perception Experiment,xx17m26,
283,training(34).mov,True,right,1,vgpdm_dyn(35)-lvm(10)_final(2).mov,0,123,123,102,,,,,,,,16:52:21:067,16:52:21:791,16:52:24:793,left,16:52:25:177,,2018_Jun_11_1624,59.9596222988,MP-Perception Experiment,xx17m26,
284,training(9).mov,False,right,1,tmp_numprim(4)_final(1).mov,0,124,124,42,,,,,,,,16:52:25:947,16:52:26:678,16:52:29:682,right,16:52:31:466,,2018_Jun_11_1624,59.9596222988,MP-Perception Experiment,xx17m26,
285,vgpdm_dyn(10)-lvm(30)_final(6).mov,True,left,1,training(4).mov,0,125,125,134,,,,,,,,16:52:32:237,16:52:32:967,16:52:35:970,left,16:52:36:871,,2018_Jun_11_1624,59.9596222988,MP-Perception Experiment,xx17m26,
286,training(4).mov,False,right,1,vgpdm_dyn(20)-lvm(25)_final(2).mov,0,126,126,69,,,,,,,,16:52:37:674,16:52:38:372,16:52:41:374,right,16:52:41:441,,2018_Jun_11_1624,59.9596222988,MP-Perception Experiment,xx17m26,
287,training(17).mov,False,right,1,vgpdm_dyn(25)-lvm(5)_final(8).mov,0,127,127,158,,,,,,,,16:52:42:222,16:52:42:942,16:52:45:945,right,16:52:46:245,,2018_Jun_11_1624,59.9596222988,MP-Perception Experiment,xx17m26,
288,vgpdm_dyn(10)-lvm(15)_final(0).mov,False,left,1,training(33).mov,0,128,128,78,,,,,,,,16:52:47:025,16:52:47:747,16:52:50:749,right,16:52:51:083,,2018_Jun_11_1624,59.9596222988,MP-Perception Experiment,xx17m26,
289,training(17).mov,True,right,1,dmp_npsi(50)_final(4).mov,0,129,129,48,,,,,,,,16:52:51:868,16:52:52:584,16:52:55:585,right,16:52:56:019,,2018_Jun_11_1624,59.9596222988,MP-Perception Experiment,xx17m26,
290,vcgpdm_dyn(30)-lvm(25)_final(9).mov,True,left,1,training(39).mov,0,130,130,138,,,,,,,,16:52:56:804,16:52:57:520,16:53:00:522,left,16:53:00:739,,2018_Jun_11_1624,59.9596222988,MP-Perception Experiment,xx17m26,
291,training(3).mov,False,right,1,vgpdm_dyn(30)-lvm(10)_final(1).mov,0,131,131,58,,,,,,,,16:53:01:702,16:53:02:240,16:53:05:244,right,16:53:05:694,,2018_Jun_11_1624,59.9596222988,MP-Perception Experiment,xx17m26,
292,training(28).mov,True,right,1,vgpdm_dyn(10)-lvm(20)_final(7).mov,0,132,132,66,,,,,,,,16:53:06:642,16:53:07:195,16:53:10:183,right,16:53:10:433,,2018_Jun_11_1624,59.9596222988,MP-Perception Experiment,xx17m26,
293,vgpdm_dyn(15)-lvm(25)_final(2).mov,False,left,1,training(29).mov,0,133,133,64,,,,,,,,16:53:11:395,16:53:11:934,16:53:14:937,left,16:53:15:220,,2018_Jun_11_1624,59.9596222988,MP-Perception Experiment,xx17m26,
294,training(39).mov,True,right,1,vgpdm_dyn(5)-lvm(10)_final(9).mov,0,134,134,124,,,,,,,,16:53:16:185,16:53:16:721,16:53:19:724,right,16:53:20:074,,2018_Jun_11_1624,59.9596222988,MP-Perception Experiment,xx17m26,
295,vcgpdm_dyn(15)-lvm(30)_final(9).mov,True,left,1,training(27).mov,0,135,135,73,,,,,,,,16:53:21:041,16:53:21:575,16:53:24:579,left,16:53:24:829,,2018_Jun_11_1624,59.9596222988,MP-Perception Experiment,xx17m26,
296,tmp_numprim(2)_final(2).mov,True,left,1,training(11).mov,0,136,136,79,,,,,,,,16:53:25:788,16:53:26:330,16:53:29:333,left,16:53:29:583,,2018_Jun_11_1624,59.9596222988,MP-Perception Experiment,xx17m26,
297,dmp_npsi(15)_final(0).mov,True,left,1,training(31).mov,0,137,137,20,,,,,,,,16:53:30:530,16:53:31:084,16:53:34:086,left,16:53:34:520,,2018_Jun_11_1624,59.9596222988,MP-Perception Experiment,xx17m26,
298,training(35).mov,True,right,1,vcgpdm_dyn(25)-lvm(25)_final(0).mov,0,138,138,85,,,,,,,,16:53:35:322,16:53:36:021,16:53:39:024,left,16:53:39:174,,2018_Jun_11_1624,59.9596222988,MP-Perception Experiment,xx17m26,
299,vgpdm_dyn(25)-lvm(10)_final(2)_out_of_screen.mov,False,left,1,training(14).mov,0,139,139,147,,,,,,,,16:53:40:144,16:53:40:676,16:53:43:679,left,16:53:43:912,,2018_Jun_11_1624,59.9596222988,MP-Perception Experiment,xx17m26,
300,training(1).mov,True,right,1,dmp_npsi(5)_final(5)_bad.mov,0,140,140,151,,,,,,,,16:53:44:691,16:53:45:428,16:53:48:414,right,16:53:48:764,,2018_Jun_11_1624,59.9596222988,MP-Perception Experiment,xx17m26,
301,vcgpdm_dyn(35)-lvm(5)_final(4).mov,True,left,1,training(8).mov,0,141,141,57,,,,,,,,16:53:49:550,16:53:50:265,16:53:53:268,right,16:53:53:485,,2018_Jun_11_1624,59.9596222988,MP-Perception Experiment,xx17m26,
302,vcgpdm_dyn(5)-lvm(10)_final(2).mov,True,left,1,training(38).mov,0,142,142,86,,,,,,,,16:53:54:263,16:53:54:986,16:53:57:974,right,16:53:58:058,,2018_Jun_11_1624,59.9596222988,MP-Perception Experiment,xx17m26,
303,training(32).mov,False,right,1,vcgpdm_dyn(25)-lvm(15)_final(5).mov,0,143,143,123,,,,,,,,16:53:58:832,16:53:59:559,16:54:02:561,right,16:54:02:695,,2018_Jun_11_1624,59.9596222988,MP-Perception Experiment,xx17m26,
304,training(22).mov,False,right,1,vcgpdm_dyn(20)-lvm(35)_final(9).mov,0,144,144,156,,,,,,,,16:54:03:474,16:54:04:196,16:54:07:199,right,16:54:07:749,,2018_Jun_11_1624,59.9596222988,MP-Perception Experiment,xx17m26,
305,training(4).mov,False,right,1,tmp_numprim(6)_final(0).mov,0,145,145,11,,,,,,,,16:54:08:535,16:54:09:250,16:54:12:253,right,16:54:12:653,,2018_Jun_11_1624,59.9596222988,MP-Perception Experiment,xx17m26,
306,training(14).mov,True,right,1,vgpdm_dyn(5)-lvm(30)_final(9).mov,0,146,146,136,,,,,,,,16:54:13:616,16:54:14:154,16:54:17:158,right,16:54:17:941,,2018_Jun_11_1624,59.9596222988,MP-Perception Experiment,xx17m26,
307,vgpdm_dyn(5)-lvm(10)_final(9).mov,True,left,1,training(36).mov,0,147,147,19,,,,,,,,16:54:18:892,16:54:19:443,16:54:22:445,left,16:54:22:712,,2018_Jun_11_1624,59.9596222988,MP-Perception Experiment,xx17m26,
308,training(32).mov,True,right,1,dmp_npsi(15)_final(3).mov,0,148,148,2,,,,,,,,16:54:23:664,16:54:24:213,16:54:27:216,right,16:54:27:599,,2018_Jun_11_1624,59.9596222988,MP-Perception Experiment,xx17m26,
309,vcgpdm_dyn(25)-lvm(20)_final(8).mov,True,left,1,training(37).mov,0,149,149,91,,,,,,,,16:54:28:383,16:54:29:100,16:54:32:104,left,16:54:32:321,,2018_Jun_11_1624,59.9596222988,MP-Perception Experiment,xx17m26,
310,vcgpdm_dyn(30)-lvm(35)_final(3).mov,False,left,1,training(11).mov,0,150,150,146,,,,,,,,16:54:33:270,16:54:33:822,16:54:36:823,left,16:54:37:173,,2018_Jun_11_1624,59.9596222988,MP-Perception Experiment,xx17m26,
311,training(23).mov,True,right,1,vcgpdm_dyn(20)-lvm(25)_final(0).mov,0,151,151,52,,,,,,,,16:54:37:954,16:54:38:674,16:54:41:677,right,16:54:41:860,,2018_Jun_11_1624,59.9596222988,MP-Perception Experiment,xx17m26,
312,training(14).mov,False,right,1,vgpdm_dyn(35)-lvm(30)_final(1).mov,0,152,152,38,,,,,,,,16:54:42:660,16:54:43:361,16:54:46:364,right,16:54:46:547,,2018_Jun_11_1624,59.9596222988,MP-Perception Experiment,xx17m26,
313,training(9).mov,True,right,1,map_gpdm_final(5).mov,0,153,153,144,,,,,,,,16:54:47:331,16:54:48:050,16:54:51:054,right,16:54:51:337,,2018_Jun_11_1624,59.9596222988,MP-Perception Experiment,xx17m26,
314,dmp_npsi(30)_final(6).mov,True,left,1,training(3).mov,0,154,154,59,,,,,,,,16:54:52:300,16:54:52:838,16:54:55:841,left,16:54:55:974,,2018_Jun_11_1624,59.9596222988,MP-Perception Experiment,xx17m26,
315,map_cgpdm_final(9).mov,False,left,1,training(18).mov,0,155,155,149,,,,,,,,16:54:56:753,16:54:57:475,16:55:00:478,left,16:55:00:711,,2018_Jun_11_1624,59.9596222988,MP-Perception Experiment,xx17m26,
316,training(18).mov,True,right,1,vgpdm_dyn(5)-lvm(10)_final(7).mov,0,156,156,77,,,,,,,,16:55:01:486,16:55:02:212,16:55:05:215,right,16:55:05:565,,2018_Jun_11_1624,59.9596222988,MP-Perception Experiment,xx17m26,
317,dmp_npsi(35)_final(3).mov,True,left,1,training(25).mov,0,157,157,125,,,,,,,,16:55:06:343,16:55:07:067,16:55:10:070,left,16:55:10:637,,2018_Jun_11_1624,59.9596222988,MP-Perception Experiment,xx17m26,
318,tmp_numprim(5)_final(6).mov,False,left,1,training(5).mov,0,158,158,68,,,,,,,,16:55:11:421,16:55:12:138,16:55:15:141,right,16:55:15:307,,2018_Jun_11_1624,59.9596222988,MP-Perception Experiment,xx17m26,
319,training(14).mov,True,right,2,vcgpdm_dyn(15)-lvm(10)_final(9).mov,0,0,0,38,,,,,,,,16:58:01:661,16:58:02:400,16:58:05:386,left,16:58:05:803,,2018_Jun_11_1624,59.9596222988,MP-Perception Experiment,xx17m26,
320,vgpdm_dyn(30)-lvm(35)_final(0).mov,False,left,2,training(36).mov,0,1,1,118,,,,,,,,16:58:06:610,16:58:07:306,16:58:10:292,right,16:58:10:559,,2018_Jun_11_1624,59.9596222988,MP-Perception Experiment,xx17m26,
321,vgpdm_dyn(15)-lvm(5)_final(2).mov,False,left,2,training(0).mov,0,2,2,127,,,,,,,,16:58:11:376,16:58:12:060,16:58:15:063,right,16:58:15:246,,2018_Jun_11_1624,59.9596222988,MP-Perception Experiment,xx17m26,
322,training(6).mov,False,right,2,vcgpdm_dyn(30)-lvm(15)_final(6).mov,0,3,3,112,,,,,,,,16:58:16:202,16:58:16:747,16:58:19:751,left,16:58:20:084,,2018_Jun_11_1624,59.9596222988,MP-Perception Experiment,xx17m26,
323,vgpdm_dyn(15)-lvm(25)_final(6).mov,True,left,2,training(25).mov,0,4,4,91,,,,,,,,16:58:21:031,16:58:21:585,16:58:24:588,left,16:58:24:871,,2018_Jun_11_1624,59.9596222988,MP-Perception Experiment,xx17m26,
324,training(39).mov,False,right,2,tmp_numprim(7)_final(9).mov,0,5,5,87,,,,,,,,16:58:25:828,16:58:26:389,16:58:29:375,right,16:58:29:709,,2018_Jun_11_1624,59.9596222988,MP-Perception Experiment,xx17m26,
325,training(27).mov,False,right,2,vcgpdm_dyn(10)-lvm(35)_final(5).mov,0,6,6,39,,,,,,,,16:58:30:491,16:58:31:210,16:58:34:212,right,16:58:34:529,,2018_Jun_11_1624,59.9596222988,MP-Perception Experiment,xx17m26,
326,vgpdm_dyn(15)-lvm(5)_final(0).mov,True,left,2,training(31).mov,0,7,7,10,,,,,,,,16:58:35:485,16:58:36:030,16:58:39:034,left,16:58:39:301,,2018_Jun_11_1624,59.9596222988,MP-Perception Experiment,xx17m26,
327,training(0).mov,False,right,2,vcgpdm_dyn(15)-lvm(25)_final(4).mov,0,8,8,148,,,,,,,,16:58:40:084,16:58:40:802,16:58:43:804,left,16:58:44:038,,2018_Jun_11_1624,59.9596222988,MP-Perception Experiment,xx17m26,
328,vcgpdm_dyn(25)-lvm(30)_final(4).mov,False,left,2,training(24).mov,0,9,9,109,,,,,,,,16:58:45:006,16:58:45:554,16:58:48:540,left,16:58:49:023,,2018_Jun_11_1624,59.9596222988,MP-Perception Experiment,xx17m26,
329,training(8).mov,True,right,2,vcgpdm_dyn(10)-lvm(15)_final(6).mov,0,10,10,146,,,,,,,,16:58:49:810,16:58:50:525,16:58:53:527,right,16:58:53:727,,2018_Jun_11_1624,59.9596222988,MP-Perception Experiment,xx17m26,
330,tmp_numprim(10)_final(9).mov,True,left,2,training(20).mov,0,11,11,153,,,,,,,,16:58:54:511,16:58:55:229,16:58:58:217,left,16:58:58:617,,2018_Jun_11_1624,59.9596222988,MP-Perception Experiment,xx17m26,
331,vcgpdm_dyn(25)-lvm(25)_final(9).mov,True,left,2,training(26).mov,0,12,12,59,,,,,,,,16:58:59:393,16:59:00:118,16:59:03:121,left,16:59:03:171,,2018_Jun_11_1624,59.9596222988,MP-Perception Experiment,xx17m26,
332,training(24).mov,False,right,2,vcgpdm_dyn(25)-lvm(30)_final(2).mov,0,13,13,145,,,,,,,,16:59:03:953,16:59:04:672,16:59:07:675,right,16:59:07:975,,2018_Jun_11_1624,59.9596222988,MP-Perception Experiment,xx17m26,
333,vcgpdm_dyn(10)-lvm(35)_final(2).mov,False,left,2,training(32).mov,0,14,14,115,,,,,,,,16:59:08:772,16:59:09:476,16:59:12:480,left,16:59:12:746,,2018_Jun_11_1624,59.9596222988,MP-Perception Experiment,xx17m26,
334,training(34).mov,False,right,2,vcgpdm_dyn(15)-lvm(25)_final(1).mov,0,15,15,34,,,,,,,,16:59:13:651,16:59:14:248,16:59:17:250,right,16:59:17:967,,2018_Jun_11_1624,59.9596222988,MP-Perception Experiment,xx17m26,
335,vcgpdm_dyn(35)-lvm(20)_final(2).mov,True,left,2,training(35).mov,0,16,16,88,,,,,,,,16:59:18:751,16:59:19:468,16:59:22:471,left,16:59:22:771,,2018_Jun_11_1624,59.9596222988,MP-Perception Experiment,xx17m26,
336,training(19).mov,True,right,2,vgpdm_dyn(20)-lvm(35)_final(2).mov,0,17,17,96,,,,,,,,16:59:23:544,16:59:24:272,16:59:27:275,left,16:59:27:625,,2018_Jun_11_1624,59.9596222988,MP-Perception Experiment,xx17m26,
337,vgpdm_dyn(10)-lvm(35)_final(1).mov,True,left,2,training(38).mov,0,18,18,107,,,,,,,,16:59:28:409,16:59:29:126,16:59:32:130,left,16:59:32:397,,2018_Jun_11_1624,59.9596222988,MP-Perception Experiment,xx17m26,
338,training(3).mov,False,right,2,dmp_npsi(20)_final(8).mov,0,19,19,86,,,,,,,,16:59:33:352,16:59:33:898,16:59:36:898,right,16:59:37:099,,2018_Jun_11_1624,59.9596222988,MP-Perception Experiment,xx17m26,
339,vcgpdm_dyn(15)-lvm(20)_final(7).mov,True,left,2,training(25).mov,0,20,20,2,,,,,,,,16:59:37:880,16:59:38:600,16:59:41:602,left,16:59:41:652,,2018_Jun_11_1624,59.9596222988,MP-Perception Experiment,xx17m26,
340,vgpdm_dyn(35)-lvm(10)_final(9).mov,False,left,2,training(11).mov,0,21,21,7,,,,,,,,16:59:42:432,16:59:43:153,16:59:46:156,right,16:59:46:439,,2018_Jun_11_1624,59.9596222988,MP-Perception Experiment,xx17m26,
341,dmp_npsi(20)_final(9).mov,False,left,2,training(7).mov,0,22,22,13,,,,,,,,16:59:47:394,16:59:47:942,16:59:50:929,left,16:59:51:079,,2018_Jun_11_1624,59.9596222988,MP-Perception Experiment,xx17m26,
342,vgpdm_dyn(20)-lvm(35)_final(7).mov,False,left,2,training(25).mov,0,23,23,132,,,,,,,,16:59:51:858,16:59:52:580,16:59:55:583,right,16:59:55:867,,2018_Jun_11_1624,59.9596222988,MP-Perception Experiment,xx17m26,
343,training(9).mov,True,right,2,vcgpdm_dyn(20)-lvm(15)_final(9).mov,0,24,24,67,,,,,,,,16:59:56:838,16:59:57:368,17:00:00:370,right,17:00:00:604,,2018_Jun_11_1624,59.9596222988,MP-Perception Experiment,xx17m26,
344,training(25).mov,False,right,2,vcgpdm_dyn(35)-lvm(5)_final(6).mov,0,25,25,61,,,,,,,,17:00:01:385,17:00:02:105,17:00:05:108,right,17:00:05:359,,2018_Jun_11_1624,59.9596222988,MP-Perception Experiment,xx17m26,
345,training(4).mov,False,right,2,vgpdm_dyn(5)-lvm(35)_final(6)_bad.mov,0,26,26,64,,,,,,,,17:00:06:143,17:00:06:860,17:00:09:862,right,17:00:10:396,,2018_Jun_11_1624,59.9596222988,MP-Perception Experiment,xx17m26,
346,training(17).mov,False,right,2,vgpdm_dyn(30)-lvm(30)_final(3).mov,0,27,27,89,,,,,,,,17:00:11:202,17:00:11:897,17:00:14:900,right,17:00:15:166,,2018_Jun_11_1624,59.9596222988,MP-Perception Experiment,xx17m26,
347,training(17).mov,False,right,2,vcgpdm_dyn(25)-lvm(35)_final(9).mov,0,28,28,6,,,,,,,,17:00:15:952,17:00:16:668,17:00:19:670,right,17:00:19:904,,2018_Jun_11_1624,59.9596222988,MP-Perception Experiment,xx17m26,
348,training(2).mov,True,right,2,vgpdm_dyn(10)-lvm(5)_final(2).mov,0,29,29,129,,,,,,,,17:00:20:682,17:00:21:405,17:00:24:408,right,17:00:24:542,,2018_Jun_11_1624,59.9596222988,MP-Perception Experiment,xx17m26,
349,vgpdm_dyn(10)-lvm(10)_final(2).mov,False,left,2,training(29).mov,0,30,30,4,,,,,,,,17:00:25:507,17:00:26:058,17:00:29:044,right,17:00:29:244,,2018_Jun_11_1624,59.9596222988,MP-Perception Experiment,xx17m26,
350,training(37).mov,True,right,2,vcgpdm_dyn(25)-lvm(10)_final(0).mov,0,31,31,16,,,,,,,,17:00:30:040,17:00:30:745,17:00:33:747,left,17:00:34:031,,2018_Jun_11_1624,59.9596222988,MP-Perception Experiment,xx17m26,
351,training(1).mov,True,right,2,vgpdm_dyn(15)-lvm(15)_final(2).mov,0,32,32,32,,,,,,,,17:00:34:815,17:00:35:532,17:00:38:520,left,17:00:38:820,,2018_Jun_11_1624,59.9596222988,MP-Perception Experiment,xx17m26,
352,vcgpdm_dyn(5)-lvm(5)_final(4).mov,True,left,2,training(33).mov,0,33,33,41,,,,,,,,17:00:39:611,17:00:40:322,17:00:43:325,left,17:00:43:441,,2018_Jun_11_1624,59.9596222988,MP-Perception Experiment,xx17m26,
353,training(34).mov,False,right,2,vcgpdm_dyn(30)-lvm(5)_final(1).mov,0,34,34,143,,,,,,,,17:00:44:411,17:00:44:942,17:00:47:945,right,17:00:47:962,,2018_Jun_11_1624,59.9596222988,MP-Perception Experiment,xx17m26,
354,vgpdm_dyn(35)-lvm(30)_final(8).mov,True,left,2,training(16).mov,0,35,35,138,,,,,,,,17:00:48:740,17:00:49:463,17:00:52:465,left,17:00:52:766,,2018_Jun_11_1624,59.9596222988,MP-Perception Experiment,xx17m26,
355,training(24).mov,True,right,2,vcgpdm_dyn(20)-lvm(20)_final(2).mov,0,36,36,47,,,,,,,,17:00:53:546,17:00:54:267,17:00:57:270,right,17:00:57:587,,2018_Jun_11_1624,59.9596222988,MP-Perception Experiment,xx17m26,
356,tmp_numprim(8)_final(2).mov,False,left,2,training(27).mov,0,37,37,20,,,,,,,,17:00:58:552,17:00:59:088,17:01:02:091,left,17:01:02:241,,2018_Jun_11_1624,59.9596222988,MP-Perception Experiment,xx17m26,
357,training(32).mov,False,right,2,vgpdm_dyn(15)-lvm(35)_final(5).mov,0,38,38,83,,,,,,,,17:01:03:022,17:01:03:742,17:01:06:745,right,17:01:07:028,,2018_Jun_11_1624,59.9596222988,MP-Perception Experiment,xx17m26,
358,vcgpdm_dyn(25)-lvm(35)_final(2).mov,False,left,2,training(37).mov,0,39,39,147,,,,,,,,17:01:07:805,17:01:08:529,17:01:11:532,left,17:01:11:832,,2018_Jun_11_1624,59.9596222988,MP-Perception Experiment,xx17m26,
359,vcgpdm_dyn(20)-lvm(10)_final(4).mov,False,left,2,training(8).mov,0,40,40,37,,,,,,,,17:01:12:608,17:01:13:333,17:01:16:335,right,17:01:16:401,,2018_Jun_11_1624,59.9596222988,MP-Perception Experiment,xx17m26,
360,training(19).mov,False,right,2,vcgpdm_dyn(35)-lvm(20)_final(7).mov,0,41,41,23,,,,,,,,17:01:17:208,17:01:17:903,17:01:20:905,right,17:01:20:955,,2018_Jun_11_1624,59.9596222988,MP-Perception Experiment,xx17m26,
361,training(17).mov,True,right,2,vgpdm_dyn(20)-lvm(5)_final(4).mov,0,42,42,1,,,,,,,,17:01:21:741,17:01:22:456,17:01:25:459,left,17:01:25:642,,2018_Jun_11_1624,59.9596222988,MP-Perception Experiment,xx17m26,
362,training(27).mov,True,right,2,vgpdm_dyn(30)-lvm(25)_final(7).mov,0,43,43,53,,,,,,,,17:01:26:424,17:01:27:143,17:01:30:146,left,17:01:30:479,,2018_Jun_11_1624,59.9596222988,MP-Perception Experiment,xx17m26,
363,training(12).mov,False,right,2,vgpdm_dyn(5)-lvm(15)_final(9).mov,0,44,44,108,,,,,,,,17:01:31:439,17:01:31:983,17:01:34:986,right,17:01:35:253,,2018_Jun_11_1624,59.9596222988,MP-Perception Experiment,xx17m26,
364,training(39).mov,True,right,2,vgpdm_dyn(30)-lvm(20)_final(3).mov,0,45,45,22,,,,,,,,17:01:36:034,17:01:36:754,17:01:39:757,left,17:01:40:073,,2018_Jun_11_1624,59.9596222988,MP-Perception Experiment,xx17m26,
365,training(37).mov,True,right,2,vgpdm_dyn(5)-lvm(15)_final(3).mov,0,46,46,70,,,,,,,,17:01:41:915,17:01:41:915,17:01:44:577,right,17:01:45:211,,2018_Jun_11_1624,59.9596222988,MP-Perception Experiment,xx17m26,
366,training(19).mov,False,right,2,tmp_numprim(9)_final(1).mov,0,47,47,35,,,,,,,,17:01:46:163,17:01:46:712,17:01:49:716,right,17:01:50:216,,2018_Jun_11_1624,59.9596222988,MP-Perception Experiment,xx17m26,
367,vcgpdm_dyn(10)-lvm(25)_final(3).mov,True,left,2,training(23).mov,0,48,48,72,,,,,,,,17:01:50:994,17:01:51:717,17:01:54:720,left,17:01:54:886,,2018_Jun_11_1624,59.9596222988,MP-Perception Experiment,xx17m26,
368,training(4).mov,False,right,2,map_gpdm_final(9).mov,0,49,49,101,,,,,,,,17:01:55:680,17:01:56:387,17:01:59:390,right,17:01:59:707,,2018_Jun_11_1624,59.9596222988,MP-Perception Experiment,xx17m26,
369,training(4).mov,False,right,2,vgpdm_dyn(35)-lvm(35)_final(9).mov,0,50,50,135,,,,,,,,17:02:00:487,17:02:01:208,17:02:04:211,right,17:02:04:361,,2018_Jun_11_1624,59.9596222988,MP-Perception Experiment,xx17m26,
370,training(5).mov,False,right,2,vcgpdm_dyn(35)-lvm(25)_final(3).mov,0,51,51,137,,,,,,,,17:02:05:105,17:02:05:862,17:02:08:863,right,17:02:09:080,,2018_Jun_11_1624,59.9596222988,MP-Perception Experiment,xx17m26,
371,training(22).mov,False,right,2,vcgpdm_dyn(10)-lvm(5)_final(1).mov,0,52,52,131,,,,,,,,17:02:09:852,17:02:10:581,17:02:13:584,right,17:02:13:801,,2018_Jun_11_1624,59.9596222988,MP-Perception Experiment,xx17m26,
372,training(1).mov,True,right,2,vgpdm_dyn(10)-lvm(15)_final(5).mov,0,53,53,25,,,,,,,,17:02:14:613,17:02:15:302,17:02:18:304,right,17:02:18:521,,2018_Jun_11_1624,59.9596222988,MP-Perception Experiment,xx17m26,
373,tmp_numprim(6)_final(8).mov,True,left,2,training(30).mov,0,54,54,150,,,,,,,,17:02:19:297,17:02:20:022,17:02:23:010,left,17:02:23:260,,2018_Jun_11_1624,59.9596222988,MP-Perception Experiment,xx17m26,
374,tmp_numprim(4)_final(3).mov,False,left,2,training(18).mov,0,55,55,68,,,,,,,,17:02:24:045,17:02:24:762,17:02:27:765,left,17:02:27:832,,2018_Jun_11_1624,59.9596222988,MP-Perception Experiment,xx17m26,
375,training(9).mov,True,right,2,dmp_npsi(45)_final(5).mov,0,56,56,119,,,,,,,,17:02:28:613,17:02:29:333,17:02:32:335,left,17:02:32:452,,2018_Jun_11_1624,59.9596222988,MP-Perception Experiment,xx17m26,
376,vgpdm_dyn(30)-lvm(10)_final(4).mov,True,left,2,training(20).mov,0,57,57,78,,,,,,,,17:02:33:252,17:02:33:970,17:02:36:956,left,17:02:37:122,,2018_Jun_11_1624,59.9596222988,MP-Perception Experiment,xx17m26,
377,vcgpdm_dyn(5)-lvm(20)_final(4).mov,False,left,2,training(0).mov,0,58,58,130,,,,,,,,17:02:37:904,17:02:38:623,17:02:41:627,left,17:02:41:994,,2018_Jun_11_1624,59.9596222988,MP-Perception Experiment,xx17m26,
378,vgpdm_dyn(30)-lvm(30)_final(8).mov,False,left,2,training(12).mov,0,59,59,18,,,,,,,,17:02:42:779,17:02:43:495,17:02:46:498,right,17:02:46:614,,2018_Jun_11_1624,59.9596222988,MP-Perception Experiment,xx17m26,
379,dmp_npsi(15)_final(0).mov,True,left,2,training(3).mov,0,60,60,113,,,,,,,,17:02:47:578,17:02:48:115,17:02:51:118,left,17:02:51:251,,2018_Jun_11_1624,59.9596222988,MP-Perception Experiment,xx17m26,
380,vgpdm_dyn(30)-lvm(30)_final(6).mov,True,left,2,training(36).mov,0,61,61,103,,,,,,,,17:02:52:207,17:02:52:753,17:02:55:755,left,17:02:55:955,,2018_Jun_11_1624,59.9596222988,MP-Perception Experiment,xx17m26,
381,dmp_npsi(25)_final(2).mov,True,left,2,training(9).mov,0,62,62,128,,,,,,,,17:02:56:935,17:02:57:471,17:03:00:475,left,17:03:00:491,,2018_Jun_11_1624,59.9596222988,MP-Perception Experiment,xx17m26,
382,tmp_numprim(3)_final(2).mov,False,left,2,training(16).mov,0,63,63,19,,,,,,,,17:03:01:477,17:03:01:993,17:03:04:995,left,17:03:05:312,,2018_Jun_11_1624,59.9596222988,MP-Perception Experiment,xx17m26,
383,training(16).mov,False,right,2,vcgpdm_dyn(35)-lvm(5)_final(7).mov,0,64,64,11,,,,,,,,17:03:06:101,17:03:06:813,17:03:09:801,right,17:03:10:084,,2018_Jun_11_1624,59.9596222988,MP-Perception Experiment,xx17m26,
384,vcgpdm_dyn(10)-lvm(35)_final(1).mov,False,left,2,training(13).mov,0,65,65,26,,,,,,,,17:03:10:865,17:03:11:585,17:03:14:588,right,17:03:14:771,,2018_Jun_11_1624,59.9596222988,MP-Perception Experiment,xx17m26,
385,training(41).mov,False,right,2,vcgpdm_dyn(30)-lvm(5)_final(5).mov,0,66,66,57,,,,,,,,17:03:15:572,17:03:16:273,17:03:19:276,right,17:03:19:426,,2018_Jun_11_1624,59.9596222988,MP-Perception Experiment,xx17m26,
386,vcgpdm_dyn(25)-lvm(5)_final(5).mov,False,left,2,training(13).mov,0,67,67,92,,,,,,,,17:03:20:214,17:03:20:927,17:03:23:930,right,17:03:23:947,,2018_Jun_11_1624,59.9596222988,MP-Perception Experiment,xx17m26,
387,vcgpdm_dyn(10)-lvm(35)_final(6).mov,True,left,2,training(40).mov,0,68,68,156,,,,,,,,17:03:24:942,17:03:25:448,17:03:28:450,left,17:03:28:467,,2018_Jun_11_1624,59.9596222988,MP-Perception Experiment,xx17m26,
388,vcgpdm_dyn(35)-lvm(10)_final(9).mov,False,left,2,training(37).mov,0,69,69,158,,,,,,,,17:03:29:245,17:03:29:968,17:03:32:971,left,17:03:33:221,,2018_Jun_11_1624,59.9596222988,MP-Perception Experiment,xx17m26,
389,training(21).mov,True,right,2,vcgpdm_dyn(20)-lvm(15)_final(5).mov,0,70,70,105,,,,,,,,17:03:34:004,17:03:34:723,17:03:37:725,right,17:03:38:059,,2018_Jun_11_1624,59.9596222988,MP-Perception Experiment,xx17m26,
390,training(28).mov,True,right,2,vcgpdm_dyn(30)-lvm(35)_final(3).mov,0,71,71,30,,,,,,,,17:03:38:843,17:03:39:560,17:03:42:563,right,17:03:42:713,,2018_Jun_11_1624,59.9596222988,MP-Perception Experiment,xx17m26,
391,vgpdm_dyn(20)-lvm(15)_final(2).mov,True,left,2,training(18).mov,0,72,72,42,,,,,,,,17:03:43:523,17:03:44:214,17:03:47:215,left,17:03:47:431,,2018_Jun_11_1624,59.9596222988,MP-Perception Experiment,xx17m26,
392,vcgpdm_dyn(15)-lvm(15)_final(4).mov,True,left,2,training(5).mov,0,73,73,79,,,,,,,,17:03:48:388,17:03:48:933,17:03:51:936,left,17:03:52:186,,2018_Jun_11_1624,59.9596222988,MP-Perception Experiment,xx17m26,
393,vgpdm_dyn(25)-lvm(30)_final(3).mov,True,left,2,training(10).mov,0,74,74,33,,,,,,,,17:03:53:133,17:03:53:687,17:03:56:690,left,17:03:56:940,,2018_Jun_11_1624,59.9596222988,MP-Perception Experiment,xx17m26,
394,training(14).mov,True,right,2,dmp_npsi(50)_final(1).mov,0,75,75,65,,,,,,,,17:03:57:718,17:03:58:441,17:04:01:429,left,17:04:01:462,,2018_Jun_11_1624,59.9596222988,MP-Perception Experiment,xx17m26,
395,training(41).mov,True,right,2,vgpdm_dyn(35)-lvm(35)_final(7).mov,0,76,76,134,,,,,,,,17:04:02:245,17:04:02:963,17:04:05:966,left,17:04:06:216,,2018_Jun_11_1624,59.9596222988,MP-Perception Experiment,xx17m26,
396,training(28).mov,False,right,2,vgpdm_dyn(5)-lvm(20)_final(2).mov,0,77,77,46,,,,,,,,17:04:06:993,17:04:07:717,17:04:10:721,right,17:04:10:871,,2018_Jun_11_1624,59.9596222988,MP-Perception Experiment,xx17m26,
397,vcgpdm_dyn(10)-lvm(5)_final(0).mov,True,left,2,training(26).mov,0,78,78,28,,,,,,,,17:04:11:645,17:04:12:372,17:04:15:374,left,17:04:15:725,,2018_Jun_11_1624,59.9596222988,MP-Perception Experiment,xx17m26,
398,training(5).mov,True,right,2,vcgpdm_dyn(35)-lvm(5)_final(6).mov,0,79,79,82,,,,,,,,17:04:16:501,17:04:17:226,17:04:20:228,left,17:04:20:529,,2018_Jun_11_1624,59.9596222988,MP-Perception Experiment,xx17m26,
399,training(11).mov,False,right,2,vgpdm_dyn(5)-lvm(25)_final(3)_out_of_screen.mov,0,80,80,125,,,,,,,,17:04:21:301,17:04:22:030,17:04:25:032,right,17:04:25:416,,2018_Jun_11_1624,59.9596222988,MP-Perception Experiment,xx17m26,
400,vcgpdm_dyn(5)-lvm(5)_final(3).mov,False,left,2,training(32).mov,0,81,81,157,,,,,,,,17:04:26:381,17:04:26:918,17:04:29:921,right,17:04:30:154,,2018_Jun_11_1624,59.9596222988,MP-Perception Experiment,xx17m26,
401,training(39).mov,False,right,2,vgpdm_dyn(15)-lvm(15)_final(7).mov,0,82,82,98,,,,,,,,17:04:31:136,17:04:31:655,17:04:34:658,right,17:04:34:958,,2018_Jun_11_1624,59.9596222988,MP-Perception Experiment,xx17m26,
402,training(14).mov,False,right,2,map_cgpdm_final(0).mov,0,83,83,66,,,,,,,,17:04:35:921,17:04:36:474,17:04:39:460,right,17:04:39:693,,2018_Jun_11_1624,59.9596222988,MP-Perception Experiment,xx17m26,
403,training(6).mov,True,right,2,tmp_numprim(2)_final(1).mov,0,84,84,124,,,,,,,,17:04:40:478,17:04:41:194,17:04:44:198,right,17:04:44:465,,2018_Jun_11_1624,59.9596222988,MP-Perception Experiment,xx17m26,
404,vcgpdm_dyn(20)-lvm(35)_final(8).mov,True,left,2,training(31).mov,0,85,85,141,,,,,,,,17:04:45:243,17:04:45:966,17:04:48:954,right,17:04:49:254,,2018_Jun_11_1624,59.9596222988,MP-Perception Experiment,xx17m26,
405,training(38).mov,True,right,2,map_cgpdm_final(4).mov,0,86,86,54,,,,,,,,17:04:50:034,17:04:50:755,17:04:53:757,right,17:04:54:141,,2018_Jun_11_1624,59.9596222988,MP-Perception Experiment,xx17m26,
406,training(5).mov,True,right,2,vcgpdm_dyn(35)-lvm(30)_final(7).mov,0,87,87,133,,,,,,,,17:04:54:926,17:04:55:642,17:04:58:645,right,17:04:59:128,,2018_Jun_11_1624,59.9596222988,MP-Perception Experiment,xx17m26,
407,training(22).mov,True,right,2,vgpdm_dyn(20)-lvm(25)_final(0).mov,0,88,88,14,,,,,,,,17:04:59:908,17:05:00:629,17:05:03:633,right,17:05:03:867,,2018_Jun_11_1624,59.9596222988,MP-Perception Experiment,xx17m26,
408,tmp_numprim(3)_final(2).mov,True,left,2,training(41).mov,0,89,89,17,,,,,,,,17:05:04:812,17:05:05:368,17:05:08:370,left,17:05:08:687,,2018_Jun_11_1624,59.9596222988,MP-Perception Experiment,xx17m26,
409,dmp_npsi(15)_final(6).mov,True,left,2,training(39).mov,0,90,90,102,,,,,,,,17:05:09:470,17:05:10:188,17:05:13:191,left,17:05:13:408,,2018_Jun_11_1624,59.9596222988,MP-Perception Experiment,xx17m26,
410,training(37).mov,False,right,2,vgpdm_dyn(20)-lvm(30)_final(9).mov,0,91,91,9,,,,,,,,17:05:14:191,17:05:14:909,17:05:17:911,right,17:05:18:262,,2018_Jun_11_1624,59.9596222988,MP-Perception Experiment,xx17m26,
411,dmp_npsi(50)_final(0).mov,False,left,2,training(6).mov,0,92,92,100,,,,,,,,17:05:19:043,17:05:19:764,17:05:22:766,right,17:05:23:083,,2018_Jun_11_1624,59.9596222988,MP-Perception Experiment,xx17m26,
412,vgpdm_dyn(5)-lvm(30)_final(3).mov,True,left,2,training(1).mov,0,93,93,12,,,,,,,,17:05:23:883,17:05:24:584,17:05:27:585,left,17:05:27:702,,2018_Jun_11_1624,59.9596222988,MP-Perception Experiment,xx17m26,
413,training(40).mov,False,right,2,vcgpdm_dyn(15)-lvm(15)_final(5).mov,0,94,94,116,,,,,,,,17:05:28:473,17:05:29:203,17:05:32:205,left,17:05:32:489,,2018_Jun_11_1624,59.9596222988,MP-Perception Experiment,xx17m26,
414,vgpdm_dyn(35)-lvm(25)_final(4).mov,False,left,2,training(23).mov,0,95,95,99,,,,,,,,17:05:33:439,17:05:33:990,17:05:36:993,right,17:05:37:294,,2018_Jun_11_1624,59.9596222988,MP-Perception Experiment,xx17m26,
415,training(25).mov,True,right,2,vcgpdm_dyn(10)-lvm(15)_final(3).mov,0,96,96,15,,,,,,,,17:05:38:079,17:05:38:795,17:05:41:782,right,17:05:42:133,,2018_Jun_11_1624,59.9596222988,MP-Perception Experiment,xx17m26,
416,training(19).mov,True,right,2,tmp_numprim(5)_final(0).mov,0,97,97,139,,,,,,,,17:05:42:904,17:05:43:634,17:05:46:637,right,17:05:46:736,,2018_Jun_11_1624,59.9596222988,MP-Perception Experiment,xx17m26,
417,vgpdm_dyn(20)-lvm(5)_final(8).mov,True,left,2,training(1).mov,0,98,98,81,,,,,,,,17:05:47:700,17:05:48:238,17:05:51:240,left,17:05:51:507,,2018_Jun_11_1624,59.9596222988,MP-Perception Experiment,xx17m26,
418,vcgpdm_dyn(35)-lvm(25)_final(6).mov,True,left,2,training(35).mov,0,99,99,50,,,,,,,,17:05:52:471,17:05:53:008,17:05:56:012,left,17:05:56:228,,2018_Jun_11_1624,59.9596222988,MP-Perception Experiment,xx17m26,
419,training(4).mov,False,right,2,vgpdm_dyn(30)-lvm(20)_final(1).mov,0,100,100,0,,,,,,,,17:05:57:195,17:05:57:730,17:06:00:732,right,17:06:01:149,,2018_Jun_11_1624,59.9596222988,MP-Perception Experiment,xx17m26,
420,vgpdm_dyn(30)-lvm(35)_final(3).mov,False,left,2,training(34).mov,0,101,101,117,,,,,,,,17:06:02:132,17:06:02:650,17:06:05:653,left,17:06:05:953,,2018_Jun_11_1624,59.9596222988,MP-Perception Experiment,xx17m26,
421,vcgpdm_dyn(25)-lvm(10)_final(9).mov,False,left,2,training(28).mov,0,102,102,142,,,,,,,,17:06:06:915,17:06:07:454,17:06:10:457,right,17:06:10:824,,2018_Jun_11_1624,59.9596222988,MP-Perception Experiment,xx17m26,
422,vgpdm_dyn(30)-lvm(35)_final(1).mov,True,left,2,training(32).mov,0,103,103,90,,,,,,,,17:06:11:782,17:06:12:326,17:06:15:328,left,17:06:15:645,,2018_Jun_11_1624,59.9596222988,MP-Perception Experiment,xx17m26,
423,vcgpdm_dyn(5)-lvm(10)_final(0).mov,True,left,2,training(19).mov,0,104,104,106,,,,,,,,17:06:16:606,17:06:17:161,17:06:20:147,left,17:06:20:397,,2018_Jun_11_1624,59.9596222988,MP-Perception Experiment,xx17m26,
424,training(41).mov,True,right,2,vgpdm_dyn(25)-lvm(30)_final(5).mov,0,105,105,62,,,,,,,,17:06:21:178,17:06:21:898,17:06:24:901,right,17:06:25:218,,2018_Jun_11_1624,59.9596222988,MP-Perception Experiment,xx17m26,
425,training(48).mov,True,right,2,vgpdm_dyn(5)-lvm(10)_final(6).mov,0,106,106,93,,,,,,,,17:06:26:015,17:06:26:719,17:06:29:707,right,17:06:29:841,,2018_Jun_11_1624,59.9596222988,MP-Perception Experiment,xx17m26,
426,vcgpdm_dyn(35)-lvm(20)_final(1).mov,True,left,2,training(27).mov,0,107,107,76,,,,,,,,17:06:30:624,17:06:31:359,17:06:34:345,left,17:06:34:561,,2018_Jun_11_1624,59.9596222988,MP-Perception Experiment,xx17m26,
427,vgpdm_dyn(30)-lvm(5)_final(4).mov,False,left,2,training(9).mov,0,108,108,114,,,,,,,,17:06:35:333,17:06:36:063,17:06:39:065,left,17:06:39:449,,2018_Jun_11_1624,59.9596222988,MP-Perception Experiment,xx17m26,
428,vgpdm_dyn(5)-lvm(5)_final(8)_out_of_screen.mov,False,left,2,training(22).mov,0,109,109,95,,,,,,,,17:06:40:230,17:06:40:950,17:06:43:952,left,17:06:44:219,,2018_Jun_11_1624,59.9596222988,MP-Perception Experiment,xx17m26,
429,vcgpdm_dyn(15)-lvm(20)_final(4).mov,True,left,2,training(20).mov,0,110,110,43,,,,,,,,17:06:45:192,17:06:45:720,17:06:48:724,left,17:06:49:058,,2018_Jun_11_1624,59.9596222988,MP-Perception Experiment,xx17m26,
430,vgpdm_dyn(20)-lvm(25)_final(7).mov,True,left,2,training(10).mov,0,111,111,84,,,,,,,,17:06:49:833,17:06:50:559,17:06:53:561,left,17:06:54:095,,2018_Jun_11_1624,59.9596222988,MP-Perception Experiment,xx17m26,
431,vgpdm_dyn(20)-lvm(15)_final(7).mov,False,left,2,training(19).mov,0,112,112,77,,,,,,,,17:06:55:059,17:06:55:596,17:06:58:599,right,17:06:58:999,,2018_Jun_11_1624,59.9596222988,MP-Perception Experiment,xx17m26,
432,vcgpdm_dyn(5)-lvm(20)_final(0).mov,False,left,2,training(2).mov,0,113,113,110,,,,,,,,17:06:59:782,17:07:00:500,17:07:03:503,left,17:07:03:536,,2018_Jun_11_1624,59.9596222988,MP-Perception Experiment,xx17m26,
433,vcgpdm_dyn(10)-lvm(10)_final(4).mov,True,left,2,training(2).mov,0,114,114,51,,,,,,,,17:07:04:495,17:07:05:038,17:07:08:039,right,17:07:08:322,,2018_Jun_11_1624,59.9596222988,MP-Perception Experiment,xx17m26,
434,vgpdm_dyn(10)-lvm(35)_final(3).mov,False,left,2,training(33).mov,0,115,115,40,,,,,,,,17:07:09:099,17:07:09:823,17:07:12:826,left,17:07:13:126,,2018_Jun_11_1624,59.9596222988,MP-Perception Experiment,xx17m26,
435,vcgpdm_dyn(5)-lvm(10)_final(1).mov,True,left,2,training(29).mov,0,116,116,144,,,,,,,,17:07:14:082,17:07:14:627,17:07:17:630,left,17:07:17:830,,2018_Jun_11_1624,59.9596222988,MP-Perception Experiment,xx17m26,
436,training(32).mov,False,right,2,vgpdm_dyn(15)-lvm(35)_final(7).mov,0,117,117,152,,,,,,,,17:07:18:670,17:07:19:331,17:07:22:320,right,17:07:22:520,,2018_Jun_11_1624,59.9596222988,MP-Perception Experiment,xx17m26,
437,dmp_npsi(20)_final(7).mov,True,left,2,training(26).mov,0,118,118,52,,,,,,,,17:07:23:487,17:07:24:021,17:07:27:023,left,17:07:27:641,,2018_Jun_11_1624,59.9596222988,MP-Perception Experiment,xx17m26,
438,vcgpdm_dyn(15)-lvm(15)_final(4).mov,True,left,2,training(11).mov,0,119,119,36,,,,,,,,17:07:28:419,17:07:29:142,17:07:32:144,left,17:07:32:978,,2018_Jun_11_1624,59.9596222988,MP-Perception Experiment,xx17m26,
439,dmp_npsi(35)_final(7).mov,True,left,2,training(17).mov,0,120,120,69,,,,,,,,17:07:33:962,17:07:34:479,17:07:37:482,left,17:07:37:749,,2018_Jun_11_1624,59.9596222988,MP-Perception Experiment,xx17m26,
440,vcgpdm_dyn(30)-lvm(20)_final(9).mov,True,left,2,training(40).mov,0,121,121,97,,,,,,,,17:07:38:534,17:07:39:251,17:07:42:253,left,17:07:42:554,,2018_Jun_11_1624,59.9596222988,MP-Perception Experiment,xx17m26,
441,training(18).mov,False,right,2,vcgpdm_dyn(10)-lvm(5)_final(8).mov,0,122,122,31,,,,,,,,17:07:43:340,17:07:44:055,17:07:47:057,left,17:07:47:941,,2018_Jun_11_1624,59.9596222988,MP-Perception Experiment,xx17m26,
442,training(23).mov,True,right,2,dmp_npsi(45)_final(3).mov,0,123,123,44,,,,,,,,17:07:48:719,17:07:49:442,17:07:52:445,left,17:07:52:995,,2018_Jun_11_1624,59.9596222988,MP-Perception Experiment,xx17m26,
443,training(4).mov,False,right,2,map_gpdm_final(6).mov,0,124,124,71,,,,,,,,17:07:53:775,17:07:54:496,17:07:57:498,right,17:07:57:782,,2018_Jun_11_1624,59.9596222988,MP-Perception Experiment,xx17m26,
444,training(29).mov,False,right,2,map_gpdm_final(2).mov,0,125,125,24,,,,,,,,17:07:58:570,17:07:59:283,17:08:02:285,right,17:08:02:602,,2018_Jun_11_1624,59.9596222988,MP-Perception Experiment,xx17m26,
445,training(32).mov,False,right,2,vgpdm_dyn(30)-lvm(10)_final(6).mov,0,126,126,3,,,,,,,,17:08:03:384,17:08:04:103,17:08:07:106,right,17:08:07:506,,2018_Jun_11_1624,59.9596222988,MP-Perception Experiment,xx17m26,
446,dmp_npsi(50)_final(1).mov,True,left,2,training(41).mov,0,127,127,126,,,,,,,,17:08:08:281,17:08:09:007,17:08:11:995,left,17:08:12:512,,2018_Jun_11_1624,59.9596222988,MP-Perception Experiment,xx17m26,
447,vcgpdm_dyn(30)-lvm(20)_final(6).mov,False,left,2,training(32).mov,0,128,128,8,,,,,,,,17:08:13:282,17:08:14:014,17:08:17:017,left,17:08:17:167,,2018_Jun_11_1624,59.9596222988,MP-Perception Experiment,xx17m26,
448,training(32).mov,False,right,2,vcgpdm_dyn(25)-lvm(15)_final(3).mov,0,129,129,58,,,,,,,,17:08:17:956,17:08:18:668,17:08:21:671,right,17:08:21:987,,2018_Jun_11_1624,59.9596222988,MP-Perception Experiment,xx17m26,
449,training(39).mov,False,right,2,vcgpdm_dyn(30)-lvm(25)_final(7).mov,0,130,130,121,,,,,,,,17:08:22:764,17:08:23:489,17:08:26:491,right,17:08:26:775,,2018_Jun_11_1624,59.9596222988,MP-Perception Experiment,xx17m26,
450,training(26).mov,False,right,2,vcgpdm_dyn(35)-lvm(30)_final(7).mov,0,131,131,155,,,,,,,,17:08:27:543,17:08:28:276,17:08:31:279,right,17:08:31:513,,2018_Jun_11_1624,59.9596222988,MP-Perception Experiment,xx17m26,
451,training(27).mov,False,right,2,vcgpdm_dyn(10)-lvm(10)_final(0).mov,0,132,132,94,,,,,,,,17:08:32:295,17:08:33:014,17:08:36:017,right,17:08:36:267,,2018_Jun_11_1624,59.9596222988,MP-Perception Experiment,xx17m26,
452,training(20).mov,True,right,2,dmp_npsi(15)_final(4).mov,0,133,133,21,,,,,,,,17:08:37:069,17:08:37:768,17:08:40:770,right,17:08:41:004,,2018_Jun_11_1624,59.9596222988,MP-Perception Experiment,xx17m26,
453,map_cgpdm_final(2).mov,True,left,2,training(19).mov,0,134,134,74,,,,,,,,17:08:41:789,17:08:42:505,17:08:45:508,left,17:08:45:558,,2018_Jun_11_1624,59.9596222988,MP-Perception Experiment,xx17m26,
454,vgpdm_dyn(30)-lvm(15)_final(7).mov,False,left,2,training(25).mov,0,135,135,27,,,,,,,,17:08:46:531,17:08:47:074,17:08:50:060,left,17:08:50:444,,2018_Jun_11_1624,59.9596222988,MP-Perception Experiment,xx17m26,
455,training(35).mov,False,right,2,vcgpdm_dyn(20)-lvm(30)_final(0).mov,0,136,136,151,,,,,,,,17:08:51:420,17:08:51:945,17:08:54:948,right,17:08:55:014,,2018_Jun_11_1624,59.9596222988,MP-Perception Experiment,xx17m26,
456,vcgpdm_dyn(30)-lvm(10)_final(9).mov,True,left,2,training(0).mov,0,137,137,85,,,,,,,,17:08:55:984,17:08:56:515,17:08:59:503,left,17:08:59:720,,2018_Jun_11_1624,59.9596222988,MP-Perception Experiment,xx17m26,
457,vgpdm_dyn(20)-lvm(20)_final(6).mov,False,left,2,training(12).mov,0,138,138,149,,,,,,,,17:09:00:671,17:09:01:221,17:09:04:224,left,17:09:04:457,,2018_Jun_11_1624,59.9596222988,MP-Perception Experiment,xx17m26,
458,training(28).mov,False,right,2,vgpdm_dyn(5)-lvm(30)_final(4).mov,0,139,139,5,,,,,,,,17:09:05:235,17:09:05:958,17:09:08:962,right,17:09:09:028,,2018_Jun_11_1624,59.9596222988,MP-Perception Experiment,xx17m26,
459,training(10).mov,False,right,2,vcgpdm_dyn(10)-lvm(30)_final(2).mov,0,140,140,75,,,,,,,,17:09:09:819,17:09:10:530,17:09:13:532,right,17:09:13:582,,2018_Jun_11_1624,59.9596222988,MP-Perception Experiment,xx17m26,
460,vgpdm_dyn(35)-lvm(10)_final(7).mov,False,left,2,training(35).mov,0,141,141,55,,,,,,,,17:09:14:361,17:09:15:083,17:09:18:086,left,17:09:18:319,,2018_Jun_11_1624,59.9596222988,MP-Perception Experiment,xx17m26,
461,vcgpdm_dyn(20)-lvm(20)_final(0).mov,True,left,2,training(16).mov,0,142,142,56,,,,,,,,17:09:19:095,17:09:19:820,17:09:22:823,left,17:09:23:040,,2018_Jun_11_1624,59.9596222988,MP-Perception Experiment,xx17m26,
462,vgpdm_dyn(35)-lvm(25)_final(4).mov,False,left,2,training(7).mov,0,143,143,104,,,,,,,,17:09:23:808,17:09:24:542,17:09:27:544,left,17:09:27:928,,2018_Jun_11_1624,59.9596222988,MP-Perception Experiment,xx17m26,
463,vcgpdm_dyn(20)-lvm(5)_final(3).mov,True,left,2,training(35).mov,0,144,144,29,,,,,,,,17:09:28:707,17:09:29:429,17:09:32:432,left,17:09:32:832,,2018_Jun_11_1624,59.9596222988,MP-Perception Experiment,xx17m26,
464,training(16).mov,True,right,2,dmp_npsi(30)_final(5).mov,0,145,145,49,,,,,,,,17:09:33:785,17:09:34:333,17:09:37:334,right,17:09:38:335,,2018_Jun_11_1624,59.9596222988,MP-Perception Experiment,xx17m26,
465,training(14).mov,True,right,2,vgpdm_dyn(35)-lvm(35)_final(2).mov,0,146,146,123,,,,,,,,17:09:39:136,17:09:39:836,17:09:42:839,left,17:09:42:889,,2018_Jun_11_1624,59.9596222988,MP-Perception Experiment,xx17m26,
466,training(27).mov,True,right,2,vgpdm_dyn(15)-lvm(35)_final(2).mov,0,147,147,45,,,,,,,,17:09:43:670,17:09:44:390,17:09:47:393,right,17:09:47:576,,2018_Jun_11_1624,59.9596222988,MP-Perception Experiment,xx17m26,
467,vgpdm_dyn(10)-lvm(15)_final(7).mov,False,left,2,training(4).mov,0,148,148,120,,,,,,,,17:09:48:532,17:09:49:078,17:09:52:065,left,17:09:52:115,,2018_Jun_11_1624,59.9596222988,MP-Perception Experiment,xx17m26,
468,vcgpdm_dyn(10)-lvm(25)_final(1).mov,False,left,2,training(19).mov,0,149,149,60,,,,,,,,17:09:53:069,17:09:53:616,17:09:56:619,left,17:09:57:002,,2018_Jun_11_1624,59.9596222988,MP-Perception Experiment,xx17m26,
469,dmp_npsi(20)_final(9).mov,True,left,2,training(34).mov,0,150,150,140,,,,,,,,17:09:57:951,17:09:58:504,17:10:01:507,left,17:10:02:008,,2018_Jun_11_1624,59.9596222988,MP-Perception Experiment,xx17m26,
470,training(36).mov,True,right,2,vcgpdm_dyn(20)-lvm(25)_final(4).mov,0,151,151,111,,,,,,,,17:10:02:957,17:10:03:509,17:10:06:511,left,17:10:06:578,,2018_Jun_11_1624,59.9596222988,MP-Perception Experiment,xx17m26,
471,training(12).mov,True,right,2,dmp_npsi(35)_final(8).mov,0,152,152,154,,,,,,,,17:10:07:536,17:10:08:079,17:10:11:082,right,17:10:11:198,,2018_Jun_11_1624,59.9596222988,MP-Perception Experiment,xx17m26,
472,vgpdm_dyn(20)-lvm(25)_final(8).mov,True,left,2,training(8).mov,0,153,153,136,,,,,,,,17:10:11:979,17:10:12:699,17:10:15:702,left,17:10:15:835,,2018_Jun_11_1624,59.9596222988,MP-Perception Experiment,xx17m26,
473,training(24).mov,True,right,2,vcgpdm_dyn(10)-lvm(25)_final(0).mov,0,154,154,73,,,,,,,,17:10:16:622,17:10:17:337,17:10:20:340,right,17:10:20:774,,2018_Jun_11_1624,59.9596222988,MP-Perception Experiment,xx17m26,
