trial_number,right,flipped,correct,block,left,trials.thisRepN,trials.thisTrialN,trials.thisN,trials.thisIndex,flipwelcome.keys,flipwelcome.corr,flipwelcome.rt,flippreparations.keys,flippreparations.rt,flipInstructions.keys,flipInstructions.rt,time_at_fixation_cross_onset,time_at_videoonset,time_at_videoend,participant_key_response,time_at_key_response,key_resp_4.keys,date,frameRate,expName,participant,
,,,,,,,,,,space,0,13.5632725772,,,,,,,,,,,2018_Jun_12_1225,59.9512139634,MP-Perception Experiment,xx18w25,
,,,,,,,,,,,,,space,19.9002803896,,,,,,,,,2018_Jun_12_1225,59.9512139634,MP-Perception Experiment,xx18w25,
,,,,,,,,,,,,,,,space,11.0428143767,,,,,,,2018_Jun_12_1225,59.9512139634,MP-Perception Experiment,xx18w25,
1,vgpdm_dyn(15)-lvm(5)_final(2).mov,False,left,0,training(28).mov,0,0,0,61,,,,,,,,12:26:44:624,12:26:44:624,12:26:47:500,left,12:26:49:616,,2018_Jun_12_1225,59.9512139634,MP-Perception Experiment,xx18w25,
2,vcgpdm_dyn(25)-lvm(30)_final(4).mov,True,left,0,training(14).mov,0,1,1,151,,,,,,,,12:26:50:398,12:26:51:117,12:26:54:120,left,12:26:55:471,,2018_Jun_12_1225,59.9512139634,MP-Perception Experiment,xx18w25,
3,training(8).mov,False,right,0,vcgpdm_dyn(30)-lvm(15)_final(6).mov,0,2,2,41,,,,,,,,12:26:56:255,12:26:56:972,12:26:59:976,right,12:27:01:060,,2018_Jun_12_1225,59.9512139634,MP-Perception Experiment,xx18w25,
4,vcgpdm_dyn(20)-lvm(10)_final(2).mov,True,left,0,training(2).mov,0,3,3,5,,,,,,,,12:27:01:840,12:27:02:563,12:27:05:565,left,12:27:06:182,,2018_Jun_12_1225,59.9512139634,MP-Perception Experiment,xx18w25,
5,training(14).mov,True,right,0,vgpdm_dyn(30)-lvm(20)_final(3).mov,0,4,4,149,,,,,,,,12:27:06:995,12:27:07:684,12:27:10:686,right,12:27:11:153,,2018_Jun_12_1225,59.9512139634,MP-Perception Experiment,xx18w25,
6,training(41).mov,True,right,0,vcgpdm_dyn(20)-lvm(20)_final(6).mov,0,5,5,15,,,,,,,,12:27:11:936,12:27:12:654,12:27:15:657,right,12:27:16:041,,2018_Jun_12_1225,59.9512139634,MP-Perception Experiment,xx18w25,
7,dmp_npsi(40)_final(8).mov,False,left,0,training(17).mov,0,6,6,98,,,,,,,,12:27:16:818,12:27:17:543,12:27:20:545,left,12:27:21:346,,2018_Jun_12_1225,59.9512139634,MP-Perception Experiment,xx18w25,
8,training(19).mov,False,right,0,vgpdm_dyn(25)-lvm(5)_final(2).mov,0,7,7,37,,,,,,,,12:27:22:126,12:27:22:847,12:27:25:849,left,12:27:26:850,,2018_Jun_12_1225,59.9512139634,MP-Perception Experiment,xx18w25,
9,vgpdm_dyn(30)-lvm(10)_final(1).mov,True,left,0,training(38).mov,0,8,8,100,,,,,,,,12:27:27:624,12:27:28:351,12:27:31:354,left,12:27:31:754,,2018_Jun_12_1225,59.9512139634,MP-Perception Experiment,xx18w25,
10,vcgpdm_dyn(15)-lvm(5)_final(8).mov,False,left,0,training(16).mov,0,9,9,35,,,,,,,,12:27:32:529,12:27:33:255,12:27:36:259,left,12:27:36:759,,2018_Jun_12_1225,59.9512139634,MP-Perception Experiment,xx18w25,
11,vcgpdm_dyn(15)-lvm(25)_final(7).mov,False,left,0,training(13).mov,0,10,10,90,,,,,,,,12:27:37:538,12:27:38:275,12:27:41:261,left,12:27:41:561,,2018_Jun_12_1225,59.9512139634,MP-Perception Experiment,xx18w25,
12,vcgpdm_dyn(15)-lvm(20)_final(2).mov,True,left,0,training(25).mov,0,11,11,103,,,,,,,,12:27:42:345,12:27:43:062,12:27:46:065,left,12:27:46:699,,2018_Jun_12_1225,59.9512139634,MP-Perception Experiment,xx18w25,
13,training(31).mov,False,right,0,vcgpdm_dyn(30)-lvm(15)_final(5).mov,0,12,12,141,,,,,,,,12:27:47:476,12:27:48:200,12:27:51:188,left,12:27:51:939,,2018_Jun_12_1225,59.9512139634,MP-Perception Experiment,xx18w25,
14,vgpdm_dyn(35)-lvm(25)_final(8).mov,False,left,0,training(38).mov,0,13,13,2,,,,,,,,12:27:52:719,12:27:53:440,12:27:56:443,right,12:27:56:860,,2018_Jun_12_1225,59.9512139634,MP-Perception Experiment,xx18w25,
15,vgpdm_dyn(25)-lvm(5)_final(9).mov,False,left,0,training(21).mov,0,14,14,111,,,,,,,,12:27:57:600,12:27:58:361,12:28:01:363,left,12:28:01:714,,2018_Jun_12_1225,59.9512139634,MP-Perception Experiment,xx18w25,
16,vcgpdm_dyn(30)-lvm(30)_final(5).mov,False,left,0,training(15).mov,0,15,15,38,,,,,,,,12:28:02:637,12:28:03:215,12:28:06:217,right,12:28:07:251,,2018_Jun_12_1225,59.9512139634,MP-Perception Experiment,xx18w25,
17,vcgpdm_dyn(30)-lvm(25)_final(4).mov,False,left,0,training(8).mov,0,16,16,43,,,,,,,,12:28:08:212,12:28:08:754,12:28:11:756,left,12:28:12:123,,2018_Jun_12_1225,59.9512139634,MP-Perception Experiment,xx18w25,
18,training(37).mov,True,right,0,vgpdm_dyn(15)-lvm(15)_final(5).mov,0,17,17,44,,,,,,,,12:28:12:899,12:28:13:624,12:28:16:627,right,12:28:16:860,,2018_Jun_12_1225,59.9512139634,MP-Perception Experiment,xx18w25,
19,tmp_numprim(10)_final(1).mov,False,left,0,training(13).mov,0,18,18,72,,,,,,,,12:28:17:635,12:28:18:361,12:28:21:364,right,12:28:21:681,,2018_Jun_12_1225,59.9512139634,MP-Perception Experiment,xx18w25,
20,training(30).mov,True,right,0,vcgpdm_dyn(20)-lvm(25)_final(1).mov,0,19,19,147,,,,,,,,12:28:22:465,12:28:23:182,12:28:26:185,left,12:28:26:569,,2018_Jun_12_1225,59.9512139634,MP-Perception Experiment,xx18w25,
21,training(34).mov,False,right,0,vcgpdm_dyn(25)-lvm(10)_final(5).mov,0,20,20,138,,,,,,,,12:28:27:528,12:28:28:085,12:28:31:071,right,12:28:31:438,,2018_Jun_12_1225,59.9512139634,MP-Perception Experiment,xx18w25,
22,training(9).mov,True,right,0,vcgpdm_dyn(20)-lvm(35)_final(5).mov,0,21,21,24,,,,,,,,12:28:32:210,12:28:32:939,12:28:35:941,left,12:28:36:192,,2018_Jun_12_1225,59.9512139634,MP-Perception Experiment,xx18w25,
23,vcgpdm_dyn(10)-lvm(30)_final(9).mov,True,left,0,training(30).mov,0,22,22,47,,,,,,,,12:28:37:146,12:28:37:693,12:28:40:680,left,12:28:41:114,,2018_Jun_12_1225,59.9512139634,MP-Perception Experiment,xx18w25,
24,vcgpdm_dyn(25)-lvm(15)_final(2).mov,True,left,0,training(36).mov,0,23,23,59,,,,,,,,12:28:42:078,12:28:42:615,12:28:45:619,right,12:28:45:986,,2018_Jun_12_1225,59.9512139634,MP-Perception Experiment,xx18w25,
25,vcgpdm_dyn(5)-lvm(15)_final(3).mov,False,left,0,training(32).mov,0,24,24,19,,,,,,,,12:28:47:014,12:28:47:520,12:28:50:489,right,12:28:50:740,,2018_Jun_12_1225,59.9512139634,MP-Perception Experiment,xx18w25,
26,vcgpdm_dyn(25)-lvm(5)_final(9).mov,False,left,0,training(13).mov,0,25,25,113,,,,,,,,12:28:51:689,12:28:52:241,12:28:55:243,right,12:28:55:493,,2018_Jun_12_1225,59.9512139634,MP-Perception Experiment,xx18w25,
27,vcgpdm_dyn(30)-lvm(10)_final(0).mov,True,left,0,training(39).mov,0,26,26,7,,,,,,,,12:28:56:451,12:28:56:994,12:28:59:997,left,12:29:00:832,,2018_Jun_12_1225,59.9512139634,MP-Perception Experiment,xx18w25,
28,vcgpdm_dyn(30)-lvm(5)_final(6).mov,True,left,0,training(33).mov,0,27,27,21,,,,,,,,12:29:01:789,12:29:02:333,12:29:05:336,left,12:29:05:669,,2018_Jun_12_1225,59.9512139634,MP-Perception Experiment,xx18w25,
29,training(18).mov,True,right,0,tmp_numprim(9)_final(1).mov,0,28,28,118,,,,,,,,12:29:06:669,12:29:07:187,12:29:10:173,right,12:29:11:274,,2018_Jun_12_1225,59.9512139634,MP-Perception Experiment,xx18w25,
30,vgpdm_dyn(5)-lvm(5)_final(5)_out_of_screen.mov,True,left,0,training(21).mov,0,29,29,123,,,,,,,,12:29:12:439,12:29:12:942,12:29:15:777,left,12:29:16:244,,2018_Jun_12_1225,59.9512139634,MP-Perception Experiment,xx18w25,
31,training(39).mov,True,right,0,vgpdm_dyn(15)-lvm(30)_final(9).mov,0,30,30,124,,,,,,,,12:29:17:205,12:29:17:746,12:29:20:747,right,12:29:21:298,,2018_Jun_12_1225,59.9512139634,MP-Perception Experiment,xx18w25,
32,vcgpdm_dyn(5)-lvm(10)_final(5).mov,True,left,0,training(15).mov,0,31,31,132,,,,,,,,12:29:22:077,12:29:22:799,12:29:25:801,left,12:29:26:118,,2018_Jun_12_1225,59.9512139634,MP-Perception Experiment,xx18w25,
33,tmp_numprim(6)_final(6).mov,True,left,0,training(20).mov,0,32,32,17,,,,,,,,12:29:26:902,12:29:27:619,12:29:30:607,left,12:29:30:891,,2018_Jun_12_1225,59.9512139634,MP-Perception Experiment,xx18w25,
34,vgpdm_dyn(20)-lvm(5)_final(0).mov,False,left,0,training(19).mov,0,33,33,105,,,,,,,,12:29:31:838,12:29:32:392,12:29:35:394,right,12:29:35:594,,2018_Jun_12_1225,59.9512139634,MP-Perception Experiment,xx18w25,
35,vgpdm_dyn(25)-lvm(35)_final(9).mov,True,left,0,training(3).mov,0,34,34,85,,,,,,,,12:29:36:547,12:29:37:097,12:29:40:099,right,12:29:40:433,,2018_Jun_12_1225,59.9512139634,MP-Perception Experiment,xx18w25,
36,vgpdm_dyn(20)-lvm(20)_final(7).mov,True,left,0,training(1).mov,0,35,35,36,,,,,,,,12:29:41:211,12:29:41:934,12:29:44:936,right,12:29:45:270,,2018_Jun_12_1225,59.9512139634,MP-Perception Experiment,xx18w25,
37,training(22).mov,True,right,0,vgpdm_dyn(35)-lvm(5)_final(2).mov,0,36,36,51,,,,,,,,12:29:46:252,12:29:46:771,12:29:49:774,right,12:29:50:090,,2018_Jun_12_1225,59.9512139634,MP-Perception Experiment,xx18w25,
38,vcgpdm_dyn(35)-lvm(15)_final(8)_out_of_screen.mov,True,left,0,training(20).mov,0,37,37,33,,,,,,,,12:29:51:070,12:29:51:592,12:29:54:595,left,12:29:54:929,,2018_Jun_12_1225,59.9512139634,MP-Perception Experiment,xx18w25,
39,tmp_numprim(8)_final(8).mov,True,left,0,training(41).mov,0,38,38,125,,,,,,,,12:29:55:713,12:29:56:430,12:29:59:432,left,12:29:59:899,,2018_Jun_12_1225,59.9512139634,MP-Perception Experiment,xx18w25,
40,tmp_numprim(7)_final(7).mov,True,left,0,training(4).mov,0,39,39,88,,,,,,,,12:30:00:670,12:30:01:400,12:30:04:403,left,12:30:04:970,,2018_Jun_12_1225,59.9512139634,MP-Perception Experiment,xx18w25,
41,training(38).mov,False,right,0,vcgpdm_dyn(25)-lvm(35)_final(0).mov,0,40,40,74,,,,,,,,12:30:05:747,12:30:06:471,12:30:09:472,right,12:30:09:889,,2018_Jun_12_1225,59.9512139634,MP-Perception Experiment,xx18w25,
42,vgpdm_dyn(25)-lvm(20)_final(5).mov,False,left,0,training(22).mov,0,41,41,66,,,,,,,,12:30:10:660,12:30:11:391,12:30:14:394,left,12:30:15:011,,2018_Jun_12_1225,59.9512139634,MP-Perception Experiment,xx18w25,
43,training(12).mov,True,right,0,map_cgpdm_final(0).mov,0,42,42,63,,,,,,,,12:30:15:800,12:30:16:512,12:30:19:514,right,12:30:20:031,,2018_Jun_12_1225,59.9512139634,MP-Perception Experiment,xx18w25,
44,training(39).mov,True,right,0,vcgpdm_dyn(20)-lvm(35)_final(7).mov,0,43,43,23,,,,,,,,12:30:20:807,12:30:21:533,12:30:24:520,right,12:30:24:921,,2018_Jun_12_1225,59.9512139634,MP-Perception Experiment,xx18w25,
45,dmp_npsi(30)_final(6).mov,False,left,0,training(6).mov,0,44,44,137,,,,,,,,12:30:25:885,12:30:26:422,12:30:29:425,left,12:30:29:809,,2018_Jun_12_1225,59.9512139634,MP-Perception Experiment,xx18w25,
46,vgpdm_dyn(20)-lvm(5)_final(0).mov,False,left,0,training(39).mov,0,45,45,32,,,,,,,,12:30:30:649,12:30:31:310,12:30:34:313,left,12:30:34:746,,2018_Jun_12_1225,59.9512139634,MP-Perception Experiment,xx18w25,
47,training(38).mov,False,right,0,vgpdm_dyn(10)-lvm(20)_final(2).mov,0,46,46,110,,,,,,,,12:30:35:525,12:30:36:247,12:30:39:266,right,12:30:39:583,,2018_Jun_12_1225,59.9512139634,MP-Perception Experiment,xx18w25,
48,training(23).mov,True,right,0,vcgpdm_dyn(5)-lvm(20)_final(7).mov,0,47,47,135,,,,,,,,12:30:40:541,12:30:41:084,12:30:44:087,right,12:30:44:504,,2018_Jun_12_1225,59.9512139634,MP-Perception Experiment,xx18w25,
49,training(20).mov,True,right,0,vgpdm_dyn(20)-lvm(15)_final(0).mov,0,48,48,115,,,,,,,,12:30:45:459,12:30:46:006,12:30:49:009,right,12:30:49:459,,2018_Jun_12_1225,59.9512139634,MP-Perception Experiment,xx18w25,
50,vgpdm_dyn(25)-lvm(25)_final(3)_bad.mov,False,left,0,training(14).mov,0,49,49,104,,,,,,,,12:30:50:417,12:30:50:960,12:30:53:963,left,12:30:54:496,,2018_Jun_12_1225,59.9512139634,MP-Perception Experiment,xx18w25,
51,training(9).mov,True,right,0,vcgpdm_dyn(30)-lvm(30)_final(4).mov,0,50,50,26,,,,,,,,12:30:55:480,12:30:55:998,12:30:58:998,right,12:30:59:449,,2018_Jun_12_1225,59.9512139634,MP-Perception Experiment,xx18w25,
52,training(5).mov,False,right,0,vgpdm_dyn(5)-lvm(30)_final(7).mov,0,51,51,95,,,,,,,,12:31:00:230,12:31:00:950,12:31:03:953,right,12:31:04:587,,2018_Jun_12_1225,59.9512139634,MP-Perception Experiment,xx18w25,
53,training(39).mov,False,right,0,vcgpdm_dyn(5)-lvm(10)_final(4).mov,0,52,52,29,,,,,,,,12:31:05:361,12:31:06:088,12:31:09:091,left,12:31:09:358,,2018_Jun_12_1225,59.9512139634,MP-Perception Experiment,xx18w25,
54,vgpdm_dyn(10)-lvm(10)_final(4).mov,True,left,0,training(2).mov,0,53,53,148,,,,,,,,12:31:10:319,12:31:10:861,12:31:13:863,left,12:31:14:313,,2018_Jun_12_1225,59.9512139634,MP-Perception Experiment,xx18w25,
55,training(48).mov,False,right,0,vcgpdm_dyn(10)-lvm(35)_final(6).mov,0,54,54,52,,,,,,,,12:31:15:265,12:31:15:815,12:31:18:817,right,12:31:19:084,,2018_Jun_12_1225,59.9512139634,MP-Perception Experiment,xx18w25,
56,training(11).mov,True,right,0,vgpdm_dyn(20)-lvm(25)_final(9).mov,0,55,55,121,,,,,,,,12:31:20:036,12:31:20:585,12:31:23:589,right,12:31:24:139,,2018_Jun_12_1225,59.9512139634,MP-Perception Experiment,xx18w25,
57,training(23).mov,False,right,0,dmp_npsi(50)_final(7).mov,0,56,56,49,,,,,,,,12:31:25:089,12:31:25:640,12:31:28:643,right,12:31:29:076,,2018_Jun_12_1225,59.9512139634,MP-Perception Experiment,xx18w25,
58,training(16).mov,True,right,0,dmp_npsi(30)_final(9).mov,0,57,57,142,,,,,,,,12:31:30:035,12:31:30:577,12:31:33:580,right,12:31:34:230,,2018_Jun_12_1225,59.9512139634,MP-Perception Experiment,xx18w25,
59,vcgpdm_dyn(10)-lvm(35)_final(7).mov,False,left,0,training(16).mov,0,58,58,50,,,,,,,,12:31:35:178,12:31:35:732,12:31:38:735,left,12:31:39:052,,2018_Jun_12_1225,59.9512139634,MP-Perception Experiment,xx18w25,
60,training(5).mov,False,right,0,vgpdm_dyn(30)-lvm(30)_final(2).mov,0,59,59,83,,,,,,,,12:31:40:001,12:31:40:553,12:31:43:556,right,12:31:43:906,,2018_Jun_12_1225,59.9512139634,MP-Perception Experiment,xx18w25,
61,training(12).mov,False,right,0,vgpdm_dyn(20)-lvm(5)_final(4).mov,0,60,60,156,,,,,,,,12:31:44:685,12:31:45:407,12:31:48:408,left,12:31:48:808,,2018_Jun_12_1225,59.9512139634,MP-Perception Experiment,xx18w25,
62,vgpdm_dyn(25)-lvm(5)_final(7).mov,False,left,0,training(33).mov,0,61,61,99,,,,,,,,12:31:49:752,12:31:50:309,12:31:53:312,left,12:31:53:712,,2018_Jun_12_1225,59.9512139634,MP-Perception Experiment,xx18w25,
63,vcgpdm_dyn(25)-lvm(25)_final(4).mov,True,left,0,training(38).mov,0,62,62,76,,,,,,,,12:31:54:482,12:31:55:213,12:31:58:217,left,12:31:58:667,,2018_Jun_12_1225,59.9512139634,MP-Perception Experiment,xx18w25,
64,training(10).mov,True,right,0,tmp_numprim(2)_final(0).mov,0,63,63,40,,,,,,,,12:31:59:478,12:32:00:168,12:32:03:156,right,12:32:03:606,,2018_Jun_12_1225,59.9512139634,MP-Perception Experiment,xx18w25,
65,vgpdm_dyn(5)-lvm(20)_final(2).mov,True,left,0,training(35).mov,0,64,64,117,,,,,,,,12:32:04:384,12:32:05:107,12:32:08:110,left,12:32:08:827,,2018_Jun_12_1225,59.9512139634,MP-Perception Experiment,xx18w25,
66,vcgpdm_dyn(25)-lvm(35)_final(0).mov,True,left,0,training(17).mov,0,65,65,3,,,,,,,,12:32:09:604,12:32:10:328,12:32:13:332,right,12:32:13:799,,2018_Jun_12_1225,59.9512139634,MP-Perception Experiment,xx18w25,
67,training(9).mov,True,right,0,vgpdm_dyn(30)-lvm(10)_final(5).mov,0,66,66,89,,,,,,,,12:32:14:577,12:32:15:300,12:32:18:302,right,12:32:18:786,,2018_Jun_12_1225,59.9512139634,MP-Perception Experiment,xx18w25,
68,training(38).mov,True,right,0,vcgpdm_dyn(20)-lvm(10)_final(5).mov,0,67,67,134,,,,,,,,12:32:19:574,12:32:20:287,12:32:23:290,right,12:32:23:640,,2018_Jun_12_1225,59.9512139634,MP-Perception Experiment,xx18w25,
69,training(37).mov,False,right,0,dmp_npsi(45)_final(7).mov,0,68,68,20,,,,,,,,12:32:24:417,12:32:25:141,12:32:28:144,right,12:32:28:377,,2018_Jun_12_1225,59.9512139634,MP-Perception Experiment,xx18w25,
70,training(5).mov,True,right,0,vgpdm_dyn(20)-lvm(25)_final(2).mov,0,69,69,75,,,,,,,,12:32:29:148,12:32:29:878,12:32:32:882,left,12:32:33:115,,2018_Jun_12_1225,59.9512139634,MP-Perception Experiment,xx18w25,
71,vcgpdm_dyn(10)-lvm(20)_final(5).mov,True,left,0,training(41).mov,0,70,70,9,,,,,,,,12:32:33:889,12:32:34:616,12:32:37:619,right,12:32:38:019,,2018_Jun_12_1225,59.9512139634,MP-Perception Experiment,xx18w25,
72,training(8).mov,False,right,0,vgpdm_dyn(20)-lvm(35)_final(6).mov,0,71,71,130,,,,,,,,12:32:38:898,12:32:39:535,12:32:42:538,right,12:32:42:921,,2018_Jun_12_1225,59.9512139634,MP-Perception Experiment,xx18w25,
73,vcgpdm_dyn(10)-lvm(35)_final(7).mov,True,left,0,training(32).mov,0,72,72,1,,,,,,,,12:32:43:695,12:32:44:423,12:32:47:425,left,12:32:47:809,,2018_Jun_12_1225,59.9512139634,MP-Perception Experiment,xx18w25,
74,training(17).mov,True,right,0,vgpdm_dyn(5)-lvm(20)_final(0).mov,0,73,73,86,,,,,,,,12:32:48:587,12:32:49:311,12:32:52:298,right,12:32:53:166,,2018_Jun_12_1225,59.9512139634,MP-Perception Experiment,xx18w25,
75,training(22).mov,True,right,0,map_cgpdm_final(7).mov,0,74,74,120,,,,,,,,12:32:53:944,12:32:54:667,12:32:57:670,right,12:32:58:120,,2018_Jun_12_1225,59.9512139634,MP-Perception Experiment,xx18w25,
76,training(25).mov,True,right,0,vgpdm_dyn(10)-lvm(5)_final(3).mov,0,75,75,79,,,,,,,,12:32:59:071,12:32:59:621,12:33:02:624,right,12:33:03:040,,2018_Jun_12_1225,59.9512139634,MP-Perception Experiment,xx18w25,
77,training(35).mov,True,right,0,vgpdm_dyn(10)-lvm(30)_final(0).mov,0,76,76,94,,,,,,,,12:33:03:838,12:33:04:542,12:33:07:545,right,12:33:08:079,,2018_Jun_12_1225,59.9512139634,MP-Perception Experiment,xx18w25,
78,training(48).mov,True,right,0,vgpdm_dyn(25)-lvm(30)_final(5).mov,0,77,77,68,,,,,,,,12:33:08:860,12:33:09:580,12:33:12:583,right,12:33:12:949,,2018_Jun_12_1225,59.9512139634,MP-Perception Experiment,xx18w25,
79,training(0).mov,True,right,0,vcgpdm_dyn(25)-lvm(10)_final(2).mov,0,78,78,78,,,,,,,,12:33:13:740,12:33:14:451,12:33:17:453,right,12:33:17:803,,2018_Jun_12_1225,59.9512139634,MP-Perception Experiment,xx18w25,
80,training(3).mov,False,right,0,vgpdm_dyn(20)-lvm(35)_final(3).mov,0,79,79,81,,,,,,,,12:33:18:599,12:33:19:304,12:33:22:307,right,12:33:22:707,,2018_Jun_12_1225,59.9512139634,MP-Perception Experiment,xx18w25,
81,vgpdm_dyn(30)-lvm(5)_final(6).mov,False,left,0,training(35).mov,0,80,80,146,,,,,,,,12:33:23:492,12:33:24:209,12:33:27:212,left,12:33:27:796,,2018_Jun_12_1225,59.9512139634,MP-Perception Experiment,xx18w25,
82,training(15).mov,True,right,0,vcgpdm_dyn(10)-lvm(30)_final(8).mov,0,81,81,12,,,,,,,,12:33:28:760,12:33:29:312,12:33:32:314,left,12:33:32:731,,2018_Jun_12_1225,59.9512139634,MP-Perception Experiment,xx18w25,
83,vgpdm_dyn(30)-lvm(10)_final(1).mov,False,left,0,training(31).mov,0,82,82,131,,,,,,,,12:33:33:503,12:33:34:232,12:33:37:235,left,12:33:37:986,,2018_Jun_12_1225,59.9512139634,MP-Perception Experiment,xx18w25,
84,training(28).mov,False,right,0,vcgpdm_dyn(5)-lvm(5)_final(5).mov,0,83,83,62,,,,,,,,12:33:38:764,12:33:39:487,12:33:42:475,left,12:33:42:759,,2018_Jun_12_1225,59.9512139634,MP-Perception Experiment,xx18w25,
85,vgpdm_dyn(15)-lvm(15)_final(0).mov,True,left,0,training(13).mov,0,84,84,144,,,,,,,,12:33:43:541,12:33:44:260,12:33:47:263,left,12:33:47:813,,2018_Jun_12_1225,59.9512139634,MP-Perception Experiment,xx18w25,
86,vgpdm_dyn(35)-lvm(5)_final(1).mov,True,left,0,training(40).mov,0,85,85,80,,,,,,,,12:33:48:769,12:33:49:314,12:33:52:317,right,12:33:52:684,,2018_Jun_12_1225,59.9512139634,MP-Perception Experiment,xx18w25,
87,training(6).mov,False,right,0,vcgpdm_dyn(15)-lvm(30)_final(0).mov,0,86,86,109,,,,,,,,12:33:53:470,12:33:54:185,12:33:57:187,right,12:33:57:237,,2018_Jun_12_1225,59.9512139634,MP-Perception Experiment,xx18w25,
88,training(39).mov,True,right,0,vgpdm_dyn(35)-lvm(25)_final(3).mov,0,87,87,55,,,,,,,,12:33:58:199,12:33:58:739,12:34:01:742,right,12:34:02:192,,2018_Jun_12_1225,59.9512139634,MP-Perception Experiment,xx18w25,
89,vgpdm_dyn(35)-lvm(10)_final(1).mov,True,left,0,training(20).mov,0,88,88,114,,,,,,,,12:34:02:969,12:34:03:693,12:34:06:696,left,12:34:07:080,,2018_Jun_12_1225,59.9512139634,MP-Perception Experiment,xx18w25,
90,training(11).mov,True,right,0,vgpdm_dyn(15)-lvm(35)_final(9).mov,0,89,89,67,,,,,,,,12:34:07:883,12:34:08:581,12:34:11:583,right,12:34:11:984,,2018_Jun_12_1225,59.9512139634,MP-Perception Experiment,xx18w25,
91,vcgpdm_dyn(5)-lvm(10)_final(6).mov,True,left,0,training(41).mov,0,90,90,143,,,,,,,,12:34:12:757,12:34:13:485,12:34:16:488,left,12:34:16:989,,2018_Jun_12_1225,59.9512139634,MP-Perception Experiment,xx18w25,
92,vgpdm_dyn(25)-lvm(35)_final(3).mov,True,left,0,training(38).mov,0,91,91,69,,,,,,,,12:34:17:760,12:34:18:504,12:34:21:490,left,12:34:21:824,,2018_Jun_12_1225,59.9512139634,MP-Perception Experiment,xx18w25,
93,training(13).mov,True,right,0,vcgpdm_dyn(15)-lvm(20)_final(7).mov,0,92,92,145,,,,,,,,12:34:22:606,12:34:23:325,12:34:26:328,right,12:34:26:745,,2018_Jun_12_1225,59.9512139634,MP-Perception Experiment,xx18w25,
94,training(17).mov,False,right,0,vcgpdm_dyn(30)-lvm(5)_final(5).mov,0,93,93,14,,,,,,,,12:34:27:518,12:34:28:246,12:34:31:233,right,12:34:31:717,,2018_Jun_12_1225,59.9512139634,MP-Perception Experiment,xx18w25,
95,training(37).mov,True,right,0,vgpdm_dyn(30)-lvm(10)_final(8).mov,0,94,94,60,,,,,,,,12:34:32:492,12:34:33:219,12:34:36:222,right,12:34:36:639,,2018_Jun_12_1225,59.9512139634,MP-Perception Experiment,xx18w25,
96,vgpdm_dyn(25)-lvm(20)_final(2).mov,True,left,0,training(40).mov,0,95,95,4,,,,,,,,12:34:37:417,12:34:38:140,12:34:41:142,right,12:34:41:543,,2018_Jun_12_1225,59.9512139634,MP-Perception Experiment,xx18w25,
97,training(30).mov,True,right,0,dmp_npsi(35)_final(1).mov,0,96,96,129,,,,,,,,12:34:42:318,12:34:43:044,12:34:46:046,right,12:34:46:330,,2018_Jun_12_1225,59.9512139634,MP-Perception Experiment,xx18w25,
98,training(14).mov,False,right,0,vcgpdm_dyn(5)-lvm(15)_final(2).mov,0,97,97,30,,,,,,,,12:34:47:299,12:34:47:831,12:34:50:835,right,12:34:51:402,,2018_Jun_12_1225,59.9512139634,MP-Perception Experiment,xx18w25,
99,vcgpdm_dyn(15)-lvm(5)_final(2).mov,True,left,0,training(37).mov,0,98,98,157,,,,,,,,12:34:52:353,12:34:52:903,12:34:55:905,right,12:34:56:389,,2018_Jun_12_1225,59.9512139634,MP-Perception Experiment,xx18w25,
100,map_cgpdm_final(9).mov,True,left,0,training(19).mov,0,99,99,101,,,,,,,,12:34:57:345,12:34:57:890,12:35:00:893,left,12:35:01:326,,2018_Jun_12_1225,59.9512139634,MP-Perception Experiment,xx18w25,
101,vcgpdm_dyn(30)-lvm(25)_final(0).mov,False,left,0,training(16).mov,0,100,100,18,,,,,,,,12:35:02:282,12:35:02:827,12:35:05:830,left,12:35:06:247,,2018_Jun_12_1225,59.9512139634,MP-Perception Experiment,xx18w25,
102,tmp_numprim(4)_final(2).mov,False,left,0,training(38).mov,0,101,101,34,,,,,,,,12:35:07:199,12:35:07:748,12:35:10:750,left,12:35:11:083,,2018_Jun_12_1225,59.9512139634,MP-Perception Experiment,xx18w25,
103,vcgpdm_dyn(5)-lvm(10)_final(2).mov,True,left,0,training(32).mov,0,102,102,45,,,,,,,,12:35:12:475,12:35:12:985,12:35:15:587,left,12:35:16:238,,2018_Jun_12_1225,59.9512139634,MP-Perception Experiment,xx18w25,
104,training(6).mov,False,right,0,vcgpdm_dyn(25)-lvm(5)_final(7).mov,0,103,103,48,,,,,,,,12:35:17:202,12:35:17:739,12:35:20:741,left,12:35:21:192,,2018_Jun_12_1225,59.9512139634,MP-Perception Experiment,xx18w25,
105,training(10).mov,False,right,0,vcgpdm_dyn(35)-lvm(20)_final(2).mov,0,104,104,119,,,,,,,,12:35:22:137,12:35:22:694,12:35:25:681,left,12:35:26:082,,2018_Jun_12_1225,59.9512139634,MP-Perception Experiment,xx18w25,
106,vcgpdm_dyn(30)-lvm(20)_final(9).mov,False,left,0,training(27).mov,0,105,105,31,,,,,,,,12:35:27:039,12:35:27:583,12:35:30:585,left,12:35:30:952,,2018_Jun_12_1225,59.9512139634,MP-Perception Experiment,xx18w25,
107,vgpdm_dyn(5)-lvm(15)_final(8).mov,True,left,0,training(7).mov,0,106,106,128,,,,,,,,12:35:31:911,12:35:32:453,12:35:35:456,left,12:35:35:839,,2018_Jun_12_1225,59.9512139634,MP-Perception Experiment,xx18w25,
108,vgpdm_dyn(35)-lvm(25)_final(4).mov,False,left,0,training(28).mov,0,107,107,73,,,,,,,,12:35:36:789,12:35:37:341,12:35:40:343,right,12:35:40:643,,2018_Jun_12_1225,59.9512139634,MP-Perception Experiment,xx18w25,
109,training(5).mov,False,right,0,vcgpdm_dyn(35)-lvm(5)_final(1).mov,0,108,108,96,,,,,,,,12:35:41:594,12:35:42:144,12:35:45:148,right,12:35:45:215,,2018_Jun_12_1225,59.9512139634,MP-Perception Experiment,xx18w25,
110,training(5).mov,False,right,0,vcgpdm_dyn(10)-lvm(25)_final(7).mov,0,109,109,112,,,,,,,,12:35:45:990,12:35:46:716,12:35:49:718,right,12:35:50:135,,2018_Jun_12_1225,59.9512139634,MP-Perception Experiment,xx18w25,
111,training(35).mov,False,right,0,vcgpdm_dyn(30)-lvm(10)_final(9).mov,0,110,110,84,,,,,,,,12:35:51:090,12:35:51:636,12:35:54:639,right,12:35:55:089,,2018_Jun_12_1225,59.9512139634,MP-Perception Experiment,xx18w25,
112,vgpdm_dyn(15)-lvm(35)_final(3).mov,False,left,0,training(21).mov,0,111,111,155,,,,,,,,12:35:55:867,12:35:56:590,12:35:59:591,left,12:36:00:343,,2018_Jun_12_1225,59.9512139634,MP-Perception Experiment,xx18w25,
113,training(13).mov,False,right,0,vgpdm_dyn(10)-lvm(35)_final(6).mov,0,112,112,39,,,,,,,,12:36:01:313,12:36:01:844,12:36:04:846,right,12:36:05:447,,2018_Jun_12_1225,59.9512139634,MP-Perception Experiment,xx18w25,
114,training(1).mov,False,right,0,vgpdm_dyn(30)-lvm(35)_final(4).mov,0,113,113,102,,,,,,,,12:36:06:244,12:36:06:948,12:36:09:951,left,12:36:10:267,,2018_Jun_12_1225,59.9512139634,MP-Perception Experiment,xx18w25,
115,training(13).mov,False,right,0,vgpdm_dyn(25)-lvm(5)_final(9).mov,0,114,114,57,,,,,,,,12:36:11:038,12:36:11:769,12:36:14:756,right,12:36:15:123,,2018_Jun_12_1225,59.9512139634,MP-Perception Experiment,xx18w25,
116,training(32).mov,False,right,0,vgpdm_dyn(10)-lvm(15)_final(4).mov,0,115,115,136,,,,,,,,12:36:15:919,12:36:16:624,12:36:19:628,right,12:36:20:045,,2018_Jun_12_1225,59.9512139634,MP-Perception Experiment,xx18w25,
117,training(4).mov,False,right,0,vgpdm_dyn(25)-lvm(30)_final(7).mov,0,116,116,158,,,,,,,,12:36:20:827,12:36:21:546,12:36:24:549,right,12:36:25:082,,2018_Jun_12_1225,59.9512139634,MP-Perception Experiment,xx18w25,
118,training(36).mov,False,right,0,vcgpdm_dyn(15)-lvm(30)_final(5).mov,0,117,117,140,,,,,,,,12:36:25:857,12:36:26:583,12:36:29:586,right,12:36:30:170,,2018_Jun_12_1225,59.9512139634,MP-Perception Experiment,xx18w25,
119,vcgpdm_dyn(30)-lvm(25)_final(4).mov,True,left,0,training(8).mov,0,118,118,108,,,,,,,,12:36:30:939,12:36:31:671,12:36:34:673,left,12:36:35:207,,2018_Jun_12_1225,59.9512139634,MP-Perception Experiment,xx18w25,
120,vgpdm_dyn(25)-lvm(35)_final(6).mov,True,left,0,training(41).mov,0,119,119,107,,,,,,,,12:36:35:978,12:36:36:709,12:36:39:712,left,12:36:40:179,,2018_Jun_12_1225,59.9512139634,MP-Perception Experiment,xx18w25,
121,vcgpdm_dyn(10)-lvm(10)_final(5).mov,False,left,0,training(13).mov,0,120,120,28,,,,,,,,12:36:40:956,12:36:41:680,12:36:44:682,left,12:36:44:999,,2018_Jun_12_1225,59.9512139634,MP-Perception Experiment,xx18w25,
122,vcgpdm_dyn(15)-lvm(10)_final(2).mov,True,left,0,training(13).mov,0,121,121,64,,,,,,,,12:36:45:778,12:36:46:500,12:36:49:501,left,12:36:49:835,,2018_Jun_12_1225,59.9512139634,MP-Perception Experiment,xx18w25,
123,vcgpdm_dyn(20)-lvm(5)_final(9).mov,False,left,0,training(25).mov,0,122,122,8,,,,,,,,12:36:50:681,12:36:51:336,12:36:54:339,left,12:36:54:773,,2018_Jun_12_1225,59.9512139634,MP-Perception Experiment,xx18w25,
124,vgpdm_dyn(10)-lvm(15)_final(4).mov,True,left,0,training(34).mov,0,123,123,13,,,,,,,,12:36:55:722,12:36:56:274,12:36:59:277,left,12:37:00:211,,2018_Jun_12_1225,59.9512139634,MP-Perception Experiment,xx18w25,
125,vcgpdm_dyn(15)-lvm(35)_final(2).mov,False,left,0,training(48).mov,0,124,124,97,,,,,,,,12:37:00:995,12:37:01:729,12:37:04:700,left,12:37:05:033,,2018_Jun_12_1225,59.9512139634,MP-Perception Experiment,xx18w25,
126,training(38).mov,True,right,0,map_gpdm_final(3).mov,0,125,125,53,,,,,,,,12:37:05:992,12:37:06:534,12:37:09:537,right,12:37:10:187,,2018_Jun_12_1225,59.9512139634,MP-Perception Experiment,xx18w25,
127,dmp_npsi(20)_final(1).mov,True,left,0,training(19).mov,0,126,126,10,,,,,,,,12:37:12:107,12:37:12:107,12:37:14:692,left,12:37:15:209,,2018_Jun_12_1225,59.9512139634,MP-Perception Experiment,xx18w25,
128,vcgpdm_dyn(10)-lvm(35)_final(6).mov,False,left,0,training(28).mov,0,127,127,70,,,,,,,,12:37:15:983,12:37:16:710,12:37:19:713,left,12:37:20:113,,2018_Jun_12_1225,59.9512139634,MP-Perception Experiment,xx18w25,
129,dmp_npsi(50)_final(2).mov,False,left,0,training(31).mov,0,128,128,22,,,,,,,,12:37:21:099,12:37:21:614,12:37:24:617,right,12:37:24:917,,2018_Jun_12_1225,59.9512139634,MP-Perception Experiment,xx18w25,
130,vgpdm_dyn(30)-lvm(35)_final(1).mov,True,left,0,training(18).mov,0,129,129,58,,,,,,,,12:37:25:700,12:37:26:418,12:37:29:422,left,12:37:29:939,,2018_Jun_12_1225,59.9512139634,MP-Perception Experiment,xx18w25,
131,vcgpdm_dyn(25)-lvm(35)_final(4).mov,False,left,0,training(34).mov,0,130,130,0,,,,,,,,12:37:30:732,12:37:31:440,12:37:34:442,left,12:37:34:742,,2018_Jun_12_1225,59.9512139634,MP-Perception Experiment,xx18w25,
132,vcgpdm_dyn(25)-lvm(15)_final(5).mov,False,left,0,training(7).mov,0,131,131,77,,,,,,,,12:37:35:527,12:37:36:244,12:37:39:244,left,12:37:39:611,,2018_Jun_12_1225,59.9512139634,MP-Perception Experiment,xx18w25,
133,training(24).mov,True,right,0,vgpdm_dyn(5)-lvm(10)_final(8).mov,0,132,132,11,,,,,,,,12:37:40:578,12:37:41:112,12:37:44:115,right,12:37:44:499,,2018_Jun_12_1225,59.9512139634,MP-Perception Experiment,xx18w25,
134,vgpdm_dyn(10)-lvm(20)_final(7).mov,True,left,0,training(26).mov,0,133,133,122,,,,,,,,12:37:45:480,12:37:46:001,12:37:49:003,right,12:37:49:387,,2018_Jun_12_1225,59.9512139634,MP-Perception Experiment,xx18w25,
135,training(30).mov,False,right,0,vcgpdm_dyn(15)-lvm(5)_final(5).mov,0,134,134,154,,,,,,,,12:37:50:355,12:37:50:888,12:37:53:876,right,12:37:54:376,,2018_Jun_12_1225,59.9512139634,MP-Perception Experiment,xx18w25,
136,training(29).mov,True,right,0,vcgpdm_dyn(5)-lvm(25)_final(1).mov,0,135,135,93,,,,,,,,12:37:55:355,12:37:55:877,12:37:58:880,right,12:37:59:463,,2018_Jun_12_1225,59.9512139634,MP-Perception Experiment,xx18w25,
137,vcgpdm_dyn(15)-lvm(35)_final(2).mov,False,left,0,training(30).mov,0,136,136,65,,,,,,,,12:38:00:241,12:38:00:965,12:38:03:968,left,12:38:04:385,,2018_Jun_12_1225,59.9512139634,MP-Perception Experiment,xx18w25,
138,training(24).mov,True,right,0,tmp_numprim(10)_final(7).mov,0,137,137,91,,,,,,,,12:38:05:350,12:38:05:886,12:38:08:889,right,12:38:09:322,,2018_Jun_12_1225,59.9512139634,MP-Perception Experiment,xx18w25,
139,vgpdm_dyn(5)-lvm(15)_final(9).mov,False,left,0,training(12).mov,0,138,138,54,,,,,,,,12:38:10:284,12:38:10:824,12:38:13:826,left,12:38:14:326,,2018_Jun_12_1225,59.9512139634,MP-Perception Experiment,xx18w25,
140,vcgpdm_dyn(15)-lvm(30)_final(7).mov,False,left,0,training(31).mov,0,139,139,133,,,,,,,,12:38:15:286,12:38:15:828,12:38:18:830,left,12:38:19:397,,2018_Jun_12_1225,59.9512139634,MP-Perception Experiment,xx18w25,
141,training(20).mov,True,right,0,vgpdm_dyn(30)-lvm(25)_final(2).mov,0,140,140,150,,,,,,,,12:38:20:348,12:38:20:899,12:38:23:902,right,12:38:24:336,,2018_Jun_12_1225,59.9512139634,MP-Perception Experiment,xx18w25,
142,dmp_npsi(15)_final(0).mov,True,left,0,training(0).mov,0,141,141,126,,,,,,,,12:38:25:310,12:38:25:837,12:38:28:837,left,12:38:29:254,,2018_Jun_12_1225,59.9512139634,MP-Perception Experiment,xx18w25,
143,vcgpdm_dyn(10)-lvm(10)_final(4).mov,True,left,0,training(6).mov,0,142,142,92,,,,,,,,12:38:30:215,12:38:30:755,12:38:33:758,left,12:38:34:308,,2018_Jun_12_1225,59.9512139634,MP-Perception Experiment,xx18w25,
144,training(17).mov,False,right,0,vgpdm_dyn(30)-lvm(30)_final(5).mov,0,143,143,127,,,,,,,,12:38:35:089,12:38:35:810,12:38:38:813,right,12:38:39:966,,2018_Jun_12_1225,59.9512139634,MP-Perception Experiment,xx18w25,
145,map_gpdm_final(9).mov,True,left,0,training(40).mov,0,144,144,46,,,,,,,,12:38:40:918,12:38:41:467,12:38:44:469,left,12:38:44:936,,2018_Jun_12_1225,59.9512139634,MP-Perception Experiment,xx18w25,
146,vgpdm_dyn(10)-lvm(20)_final(0).mov,False,left,0,training(4).mov,0,145,145,82,,,,,,,,12:38:45:885,12:38:46:438,12:38:49:440,left,12:38:49:807,,2018_Jun_12_1225,59.9512139634,MP-Perception Experiment,xx18w25,
147,training(38).mov,False,right,0,vcgpdm_dyn(15)-lvm(10)_final(5).mov,0,146,146,71,,,,,,,,12:38:50:756,12:38:51:308,12:38:54:311,left,12:38:54:578,,2018_Jun_12_1225,59.9512139634,MP-Perception Experiment,xx18w25,
148,vgpdm_dyn(5)-lvm(10)_final(9).mov,True,left,0,training(20).mov,0,147,147,106,,,,,,,,12:38:55:359,12:38:56:080,12:38:59:082,left,12:38:59:583,,2018_Jun_12_1225,59.9512139634,MP-Perception Experiment,xx18w25,
149,vgpdm_dyn(35)-lvm(35)_final(0).mov,True,left,0,training(29).mov,0,148,148,153,,,,,,,,12:39:00:365,12:39:01:084,12:39:04:086,left,12:39:04:520,,2018_Jun_12_1225,59.9512139634,MP-Perception Experiment,xx18w25,
150,training(32).mov,True,right,0,vcgpdm_dyn(25)-lvm(5)_final(1).mov,0,149,149,42,,,,,,,,12:39:05:296,12:39:06:021,12:39:09:024,right,12:39:09:391,,2018_Jun_12_1225,59.9512139634,MP-Perception Experiment,xx18w25,
151,vgpdm_dyn(35)-lvm(35)_final(0).mov,True,left,0,training(5).mov,0,150,150,56,,,,,,,,12:39:10:163,12:39:10:892,12:39:13:895,left,12:39:14:195,,2018_Jun_12_1225,59.9512139634,MP-Perception Experiment,xx18w25,
152,vgpdm_dyn(30)-lvm(35)_final(8).mov,False,left,0,training(33).mov,0,151,151,27,,,,,,,,12:39:15:163,12:39:15:697,12:39:18:697,left,12:39:18:981,,2018_Jun_12_1225,59.9512139634,MP-Perception Experiment,xx18w25,
153,training(34).mov,False,right,0,vcgpdm_dyn(10)-lvm(15)_final(6).mov,0,152,152,25,,,,,,,,12:39:19:957,12:39:20:482,12:39:23:484,right,12:39:23:952,,2018_Jun_12_1225,59.9512139634,MP-Perception Experiment,xx18w25,
154,training(41).mov,False,right,0,vcgpdm_dyn(30)-lvm(35)_final(8).mov,0,153,153,152,,,,,,,,12:39:24:915,12:39:25:453,12:39:28:455,right,12:39:28:839,,2018_Jun_12_1225,59.9512139634,MP-Perception Experiment,xx18w25,
155,training(29).mov,True,right,0,vcgpdm_dyn(15)-lvm(15)_final(4).mov,0,154,154,116,,,,,,,,12:39:29:818,12:39:30:341,12:39:33:329,left,12:39:33:729,,2018_Jun_12_1225,59.9512139634,MP-Perception Experiment,xx18w25,
156,vgpdm_dyn(30)-lvm(20)_final(7).mov,True,left,0,training(19).mov,0,155,155,139,,,,,,,,12:39:34:704,12:39:35:230,12:39:38:233,left,12:39:38:616,,2018_Jun_12_1225,59.9512139634,MP-Perception Experiment,xx18w25,
157,tmp_numprim(5)_final(6).mov,False,left,0,training(5).mov,0,156,156,87,,,,,,,,12:39:39:577,12:39:40:117,12:39:43:120,left,12:39:43:804,,2018_Jun_12_1225,59.9512139634,MP-Perception Experiment,xx18w25,
158,vcgpdm_dyn(15)-lvm(15)_final(2).mov,True,left,0,training(26).mov,0,157,157,6,,,,,,,,12:39:44:582,12:39:45:305,12:39:48:308,left,12:39:48:925,,2018_Jun_12_1225,59.9512139634,MP-Perception Experiment,xx18w25,
159,training(29).mov,False,right,0,vcgpdm_dyn(25)-lvm(10)_final(0).mov,0,158,158,16,,,,,,,,12:39:49:897,12:39:50:427,12:39:53:429,right,12:39:53:713,,2018_Jun_12_1225,59.9512139634,MP-Perception Experiment,xx18w25,
160,training(24).mov,True,right,1,vgpdm_dyn(35)-lvm(30)_final(6).mov,0,0,0,43,,,,,,,,12:41:24:698,12:41:25:408,12:41:28:394,left,12:41:28:844,,2018_Jun_12_1225,59.9512139634,MP-Perception Experiment,xx18w25,
161,training(39).mov,False,right,1,vgpdm_dyn(35)-lvm(15)_final(2)_out_of_screen.mov,0,1,1,128,,,,,,,,12:41:29:631,12:41:30:346,12:41:33:349,right,12:41:33:616,,2018_Jun_12_1225,59.9512139634,MP-Perception Experiment,xx18w25,
162,training(28).mov,False,right,1,vgpdm_dyn(35)-lvm(30)_final(3).mov,0,2,2,70,,,,,,,,12:41:34:399,12:41:35:117,12:41:38:120,left,12:41:38:420,,2018_Jun_12_1225,59.9512139634,MP-Perception Experiment,xx18w25,
163,dmp_npsi(30)_final(0).mov,False,left,1,training(25).mov,0,3,3,56,,,,,,,,12:41:39:200,12:41:39:921,12:41:42:924,left,12:41:43:224,,2018_Jun_12_1225,59.9512139634,MP-Perception Experiment,xx18w25,
164,training(16).mov,True,right,1,vgpdm_dyn(10)-lvm(35)_final(8).mov,0,4,4,7,,,,,,,,12:41:44:002,12:41:44:725,12:41:47:727,right,12:41:48:144,,2018_Jun_12_1225,59.9512139634,MP-Perception Experiment,xx18w25,
165,vgpdm_dyn(15)-lvm(5)_final(2).mov,False,left,1,training(21).mov,0,5,5,129,,,,,,,,12:41:48:931,12:41:49:660,12:41:52:664,left,12:41:52:931,,2018_Jun_12_1225,59.9512139634,MP-Perception Experiment,xx18w25,
166,training(30).mov,True,right,1,vcgpdm_dyn(35)-lvm(10)_final(1).mov,0,6,6,142,,,,,,,,12:41:53:712,12:41:54:432,12:41:57:434,left,12:41:57:501,,2018_Jun_12_1225,59.9512139634,MP-Perception Experiment,xx18w25,
167,training(1).mov,True,right,1,vgpdm_dyn(5)-lvm(10)_final(6).mov,0,7,7,88,,,,,,,,12:41:58:473,12:41:59:002,12:42:01:990,right,12:42:02:290,,2018_Jun_12_1225,59.9512139634,MP-Perception Experiment,xx18w25,
168,training(6).mov,False,right,1,vcgpdm_dyn(30)-lvm(20)_final(7).mov,0,8,8,95,,,,,,,,12:42:03:260,12:42:03:791,12:42:06:794,left,12:42:07:077,,2018_Jun_12_1225,59.9512139634,MP-Perception Experiment,xx18w25,
169,training(41).mov,True,right,1,vgpdm_dyn(10)-lvm(25)_final(5).mov,0,9,9,108,,,,,,,,12:42:08:028,12:42:08:579,12:42:11:582,right,12:42:11:866,,2018_Jun_12_1225,59.9512139634,MP-Perception Experiment,xx18w25,
170,training(34).mov,False,right,1,tmp_numprim(10)_final(2).mov,0,10,10,130,,,,,,,,12:42:12:649,12:42:13:367,12:42:16:369,right,12:42:16:503,,2018_Jun_12_1225,59.9512139634,MP-Perception Experiment,xx18w25,
171,training(3).mov,False,right,1,vgpdm_dyn(5)-lvm(30)_final(1).mov,0,11,11,71,,,,,,,,12:42:17:359,12:42:18:004,12:42:21:006,right,12:42:21:357,,2018_Jun_12_1225,59.9512139634,MP-Perception Experiment,xx18w25,
172,training(9).mov,True,right,1,vgpdm_dyn(35)-lvm(5)_final(3).mov,0,12,12,75,,,,,,,,12:42:22:319,12:42:22:858,12:42:25:861,right,12:42:26:195,,2018_Jun_12_1225,59.9512139634,MP-Perception Experiment,xx18w25,
173,vcgpdm_dyn(15)-lvm(25)_final(8).mov,True,left,1,training(37).mov,0,13,13,31,,,,,,,,12:42:27:172,12:42:27:696,12:42:30:698,left,12:42:31:282,,2018_Jun_12_1225,59.9512139634,MP-Perception Experiment,xx18w25,
174,vgpdm_dyn(20)-lvm(25)_final(0).mov,True,left,1,training(35).mov,0,14,14,5,,,,,,,,12:42:32:253,12:42:32:800,12:42:35:786,left,12:42:36:203,,2018_Jun_12_1225,59.9512139634,MP-Perception Experiment,xx18w25,
175,vgpdm_dyn(15)-lvm(15)_final(1).mov,False,left,1,training(5).mov,0,15,15,112,,,,,,,,12:42:36:993,12:42:37:704,12:42:40:705,left,12:42:41:272,,2018_Jun_12_1225,59.9512139634,MP-Perception Experiment,xx18w25,
176,training(10).mov,True,right,1,vcgpdm_dyn(30)-lvm(35)_final(2).mov,0,16,16,63,,,,,,,,12:42:42:053,12:42:42:774,12:42:45:776,right,12:42:46:110,,2018_Jun_12_1225,59.9512139634,MP-Perception Experiment,xx18w25,
177,training(17).mov,True,right,1,dmp_npsi(5)_final(2)_bad.mov,0,17,17,50,,,,,,,,12:42:46:892,12:42:47:611,12:42:50:614,right,12:42:50:947,,2018_Jun_12_1225,59.9512139634,MP-Perception Experiment,xx18w25,
178,tmp_numprim(3)_final(0).mov,True,left,1,training(7).mov,0,18,18,122,,,,,,,,12:42:51:728,12:42:52:448,12:42:55:436,left,12:42:55:870,,2018_Jun_12_1225,59.9512139634,MP-Perception Experiment,xx18w25,
179,vcgpdm_dyn(20)-lvm(20)_final(5).mov,False,left,1,training(48).mov,0,19,19,34,,,,,,,,12:42:56:651,12:42:57:371,12:43:00:374,right,12:43:00:708,,2018_Jun_12_1225,59.9512139634,MP-Perception Experiment,xx18w25,
180,training(0).mov,False,right,1,vcgpdm_dyn(35)-lvm(30)_final(0).mov,0,20,20,145,,,,,,,,12:43:01:490,12:43:02:209,12:43:05:212,right,12:43:05:595,,2018_Jun_12_1225,59.9512139634,MP-Perception Experiment,xx18w25,
181,training(2).mov,False,right,1,vgpdm_dyn(15)-lvm(35)_final(6).mov,0,21,21,29,,,,,,,,12:43:06:380,12:43:07:096,12:43:10:099,right,12:43:10:366,,2018_Jun_12_1225,59.9512139634,MP-Perception Experiment,xx18w25,
182,training(31).mov,True,right,1,vcgpdm_dyn(20)-lvm(30)_final(3).mov,0,22,22,152,,,,,,,,12:43:12:339,12:43:12:339,12:43:14:869,right,12:43:15:453,,2018_Jun_12_1225,59.9512139634,MP-Perception Experiment,xx18w25,
183,vcgpdm_dyn(35)-lvm(30)_final(4).mov,True,left,1,training(25).mov,0,23,23,151,,,,,,,,12:43:16:227,12:43:16:954,12:43:19:958,left,12:43:20:258,,2018_Jun_12_1225,59.9512139634,MP-Perception Experiment,xx18w25,
184,training(18).mov,True,right,1,vcgpdm_dyn(15)-lvm(15)_final(2).mov,0,24,24,82,,,,,,,,12:43:21:230,12:43:21:759,12:43:24:762,right,12:43:24:912,,2018_Jun_12_1225,59.9512139634,MP-Perception Experiment,xx18w25,
185,training(19).mov,False,right,1,vgpdm_dyn(35)-lvm(25)_final(0).mov,0,25,25,153,,,,,,,,12:43:25:876,12:43:26:413,12:43:29:414,right,12:43:29:747,,2018_Jun_12_1225,59.9512139634,MP-Perception Experiment,xx18w25,
186,vgpdm_dyn(35)-lvm(10)_final(7).mov,False,left,1,training(30).mov,0,26,26,143,,,,,,,,12:43:30:728,12:43:31:248,12:43:34:251,left,12:43:34:568,,2018_Jun_12_1225,59.9512139634,MP-Perception Experiment,xx18w25,
187,tmp_numprim(6)_final(4).mov,False,left,1,training(21).mov,0,27,27,91,,,,,,,,12:43:35:359,12:43:36:070,12:43:39:072,left,12:43:39:323,,2018_Jun_12_1225,59.9512139634,MP-Perception Experiment,xx18w25,
188,training(38).mov,False,right,1,vgpdm_dyn(20)-lvm(15)_final(0).mov,0,28,28,52,,,,,,,,12:43:40:291,12:43:40:826,12:43:43:811,right,12:43:44:128,,2018_Jun_12_1225,59.9512139634,MP-Perception Experiment,xx18w25,
189,training(5).mov,True,right,1,vcgpdm_dyn(35)-lvm(10)_final(4).mov,0,29,29,113,,,,,,,,12:43:44:920,12:43:45:629,12:43:48:632,left,12:43:48:849,,2018_Jun_12_1225,59.9512139634,MP-Perception Experiment,xx18w25,
190,vcgpdm_dyn(15)-lvm(10)_final(3).mov,True,left,1,training(18).mov,0,30,30,80,,,,,,,,12:43:49:821,12:43:50:350,12:43:53:354,left,12:43:53:620,,2018_Jun_12_1225,59.9512139634,MP-Perception Experiment,xx18w25,
191,training(48).mov,False,right,1,dmp_npsi(50)_final(1).mov,0,31,31,19,,,,,,,,12:43:54:405,12:43:55:121,12:43:58:124,right,12:43:58:274,,2018_Jun_12_1225,59.9512139634,MP-Perception Experiment,xx18w25,
192,vgpdm_dyn(30)-lvm(5)_final(0).mov,False,left,1,training(15).mov,0,32,32,132,,,,,,,,12:43:59:238,12:43:59:775,12:44:02:778,left,12:44:02:844,,2018_Jun_12_1225,59.9512139634,MP-Perception Experiment,xx18w25,
193,training(9).mov,True,right,1,map_cgpdm_final(2).mov,0,33,33,156,,,,,,,,12:44:03:626,12:44:04:346,12:44:07:348,right,12:44:07:632,,2018_Jun_12_1225,59.9512139634,MP-Perception Experiment,xx18w25,
194,training(7).mov,False,right,1,vgpdm_dyn(20)-lvm(15)_final(7).mov,0,34,34,84,,,,,,,,12:44:08:418,12:44:09:133,12:44:12:136,right,12:44:12:420,,2018_Jun_12_1225,59.9512139634,MP-Perception Experiment,xx18w25,
195,vcgpdm_dyn(35)-lvm(30)_final(1).mov,False,left,1,training(39).mov,0,35,35,69,,,,,,,,12:44:13:202,12:44:13:921,12:44:16:924,left,12:44:17:341,,2018_Jun_12_1225,59.9512139634,MP-Perception Experiment,xx18w25,
196,dmp_npsi(20)_final(7).mov,True,left,1,training(1).mov,0,36,36,121,,,,,,,,12:44:18:115,12:44:18:857,12:44:21:842,left,12:44:22:293,,2018_Jun_12_1225,59.9512139634,MP-Perception Experiment,xx18w25,
197,training(14).mov,False,right,1,vcgpdm_dyn(35)-lvm(10)_final(7).mov,0,37,37,45,,,,,,,,12:44:23:071,12:44:23:794,12:44:26:796,right,12:44:27:080,,2018_Jun_12_1225,59.9512139634,MP-Perception Experiment,xx18w25,
198,vcgpdm_dyn(5)-lvm(25)_final(1).mov,True,left,1,training(40).mov,0,38,38,109,,,,,,,,12:44:27:894,12:44:28:582,12:44:31:570,left,12:44:31:820,,2018_Jun_12_1225,59.9512139634,MP-Perception Experiment,xx18w25,
199,training(30).mov,False,right,1,vcgpdm_dyn(35)-lvm(5)_final(3).mov,0,39,39,102,,,,,,,,12:44:32:801,12:44:33:321,12:44:36:324,right,12:44:37:091,,2018_Jun_12_1225,59.9512139634,MP-Perception Experiment,xx18w25,
200,tmp_numprim(8)_final(5).mov,True,left,1,training(21).mov,0,40,40,140,,,,,,,,12:44:38:053,12:44:38:592,12:44:41:595,left,12:44:41:845,,2018_Jun_12_1225,59.9512139634,MP-Perception Experiment,xx18w25,
201,vcgpdm_dyn(20)-lvm(5)_final(5).mov,True,left,1,training(12).mov,0,41,41,124,,,,,,,,12:44:42:808,12:44:43:346,12:44:46:349,left,12:44:46:633,,2018_Jun_12_1225,59.9512139634,MP-Perception Experiment,xx18w25,
202,training(8).mov,True,right,1,tmp_numprim(7)_final(8).mov,0,42,42,22,,,,,,,,12:44:47:412,12:44:48:134,12:44:51:137,left,12:44:51:186,,2018_Jun_12_1225,59.9512139634,MP-Perception Experiment,xx18w25,
203,training(24).mov,True,right,1,vcgpdm_dyn(30)-lvm(30)_final(6).mov,0,43,43,157,,,,,,,,12:44:52:149,12:44:52:688,12:44:55:690,right,12:44:56:291,,2018_Jun_12_1225,59.9512139634,MP-Perception Experiment,xx18w25,
204,tmp_numprim(8)_final(9).mov,True,left,1,training(20).mov,0,44,44,15,,,,,,,,12:44:57:259,12:44:57:792,12:45:00:794,left,12:45:01:128,,2018_Jun_12_1225,59.9512139634,MP-Perception Experiment,xx18w25,
205,vcgpdm_dyn(35)-lvm(30)_final(8).mov,True,left,1,training(0).mov,0,45,45,9,,,,,,,,12:45:02:098,12:45:02:630,12:45:05:633,left,12:45:05:899,,2018_Jun_12_1225,59.9512139634,MP-Perception Experiment,xx18w25,
206,training(5).mov,False,right,1,vgpdm_dyn(20)-lvm(15)_final(7).mov,0,46,46,35,,,,,,,,12:45:06:866,12:45:07:401,12:45:10:401,right,12:45:11:035,,2018_Jun_12_1225,59.9512139634,MP-Perception Experiment,xx18w25,
207,training(15).mov,True,right,1,vgpdm_dyn(15)-lvm(35)_final(8).mov,0,47,47,13,,,,,,,,12:45:12:472,12:45:12:987,12:45:15:539,right,12:45:15:989,,2018_Jun_12_1225,59.9512139634,MP-Perception Experiment,xx18w25,
208,vgpdm_dyn(20)-lvm(20)_final(6).mov,True,left,1,training(2).mov,0,48,48,68,,,,,,,,12:45:16:951,12:45:17:490,12:45:20:494,left,12:45:20:794,,2018_Jun_12_1225,59.9512139634,MP-Perception Experiment,xx18w25,
209,dmp_npsi(15)_final(0).mov,False,left,1,training(35).mov,0,49,49,44,,,,,,,,12:45:21:737,12:45:22:295,12:45:25:283,left,12:45:25:616,,2018_Jun_12_1225,59.9512139634,MP-Perception Experiment,xx18w25,
210,vgpdm_dyn(30)-lvm(25)_final(8).mov,False,left,1,training(4).mov,0,50,50,33,,,,,,,,12:45:26:401,12:45:27:117,12:45:30:120,left,12:45:30:670,,2018_Jun_12_1225,59.9512139634,MP-Perception Experiment,xx18w25,
211,vgpdm_dyn(10)-lvm(10)_final(9).mov,True,left,1,training(10).mov,0,51,51,20,,,,,,,,12:45:31:632,12:45:32:172,12:45:35:174,left,12:45:35:307,,2018_Jun_12_1225,59.9512139634,MP-Perception Experiment,xx18w25,
212,dmp_npsi(15)_final(7).mov,False,left,1,training(22).mov,0,52,52,99,,,,,,,,12:45:36:114,12:45:36:809,12:45:39:812,left,12:45:40:196,,2018_Jun_12_1225,59.9512139634,MP-Perception Experiment,xx18w25,
213,vcgpdm_dyn(20)-lvm(15)_final(0).mov,True,left,1,training(22).mov,0,53,53,24,,,,,,,,12:45:40:976,12:45:41:697,12:45:44:699,left,12:45:45:717,,2018_Jun_12_1225,59.9512139634,MP-Perception Experiment,xx18w25,
214,vgpdm_dyn(15)-lvm(30)_final(3).mov,False,left,1,training(11).mov,0,54,54,0,,,,,,,,12:45:46:508,12:45:47:218,12:45:50:221,left,12:45:50:604,,2018_Jun_12_1225,59.9512139634,MP-Perception Experiment,xx18w25,
215,vgpdm_dyn(5)-lvm(15)_final(7).mov,True,left,1,training(4).mov,0,55,55,126,,,,,,,,12:45:51:385,12:45:52:105,12:45:55:109,left,12:45:55:359,,2018_Jun_12_1225,59.9512139634,MP-Perception Experiment,xx18w25,
216,vgpdm_dyn(10)-lvm(25)_final(9).mov,True,left,1,training(36).mov,0,56,56,94,,,,,,,,12:45:56:141,12:45:56:860,12:45:59:861,left,12:46:00:278,,2018_Jun_12_1225,59.9512139634,MP-Perception Experiment,xx18w25,
217,vcgpdm_dyn(10)-lvm(5)_final(5).mov,True,left,1,training(36).mov,0,57,57,100,,,,,,,,12:46:01:056,12:46:01:779,12:46:04:781,left,12:46:05:315,,2018_Jun_12_1225,59.9512139634,MP-Perception Experiment,xx18w25,
218,vgpdm_dyn(25)-lvm(30)_final(6).mov,False,left,1,training(17).mov,0,58,58,86,,,,,,,,12:46:06:124,12:46:06:816,12:46:09:819,left,12:46:10:253,,2018_Jun_12_1225,59.9512139634,MP-Perception Experiment,xx18w25,
219,vcgpdm_dyn(30)-lvm(25)_final(6).mov,True,left,1,training(15).mov,0,59,59,17,,,,,,,,12:46:12:215,12:46:12:215,12:46:14:742,left,12:46:15:193,,2018_Jun_12_1225,59.9512139634,MP-Perception Experiment,xx18w25,
220,training(4).mov,True,right,1,vgpdm_dyn(20)-lvm(20)_final(3).mov,0,60,60,131,,,,,,,,12:46:15:977,12:46:16:694,12:46:19:696,right,12:46:19:713,,2018_Jun_12_1225,59.9512139634,MP-Perception Experiment,xx18w25,
221,training(15).mov,True,right,1,map_cgpdm_final(4).mov,0,61,61,58,,,,,,,,12:46:20:490,12:46:21:214,12:46:24:217,right,12:46:24:517,,2018_Jun_12_1225,59.9512139634,MP-Perception Experiment,xx18w25,
222,training(24).mov,True,right,1,tmp_numprim(3)_final(1).mov,0,62,62,111,,,,,,,,12:46:25:297,12:46:26:018,12:46:29:021,right,12:46:29:304,,2018_Jun_12_1225,59.9512139634,MP-Perception Experiment,xx18w25,
223,tmp_numprim(7)_final(2).mov,True,left,1,training(23).mov,0,63,63,81,,,,,,,,12:46:30:092,12:46:30:806,12:46:33:809,left,12:46:34:009,,2018_Jun_12_1225,59.9512139634,MP-Perception Experiment,xx18w25,
224,vcgpdm_dyn(20)-lvm(15)_final(2).mov,False,left,1,training(19).mov,0,64,64,93,,,,,,,,12:46:34:790,12:46:35:510,12:46:38:513,right,12:46:38:813,,2018_Jun_12_1225,59.9512139634,MP-Perception Experiment,xx18w25,
225,training(9).mov,False,right,1,tmp_numprim(2)_final(8).mov,0,65,65,137,,,,,,,,12:46:39:800,12:46:40:314,12:46:43:316,right,12:46:43:383,,2018_Jun_12_1225,59.9512139634,MP-Perception Experiment,xx18w25,
226,dmp_npsi(40)_final(9).mov,True,left,1,training(17).mov,0,66,66,62,,,,,,,,12:46:44:168,12:46:44:884,12:46:47:888,left,12:46:48:188,,2018_Jun_12_1225,59.9512139634,MP-Perception Experiment,xx18w25,
227,vcgpdm_dyn(30)-lvm(20)_final(9).mov,True,left,1,training(8).mov,0,67,67,138,,,,,,,,12:46:49:152,12:46:49:704,12:46:52:707,left,12:46:52:990,,2018_Jun_12_1225,59.9512139634,MP-Perception Experiment,xx18w25,
228,dmp_npsi(15)_final(7).mov,False,left,1,training(22).mov,0,68,68,61,,,,,,,,12:46:53:941,12:46:54:491,12:46:57:494,left,12:46:57:827,,2018_Jun_12_1225,59.9512139634,MP-Perception Experiment,xx18w25,
229,tmp_numprim(5)_final(4).mov,True,left,1,training(7).mov,0,69,69,72,,,,,,,,12:46:58:780,12:46:59:328,12:47:02:316,left,12:47:02:950,,2018_Jun_12_1225,59.9512139634,MP-Perception Experiment,xx18w25,
230,vcgpdm_dyn(10)-lvm(25)_final(9).mov,True,left,1,training(37).mov,0,70,70,110,,,,,,,,12:47:03:733,12:47:04:451,12:47:07:455,left,12:47:07:771,,2018_Jun_12_1225,59.9512139634,MP-Perception Experiment,xx18w25,
231,training(15).mov,False,right,1,tmp_numprim(4)_final(0).mov,0,71,71,127,,,,,,,,12:47:08:552,12:47:09:273,12:47:12:275,right,12:47:12:725,,2018_Jun_12_1225,59.9512139634,MP-Perception Experiment,xx18w25,
232,training(9).mov,False,right,1,vgpdm_dyn(25)-lvm(20)_final(0).mov,0,72,72,98,,,,,,,,12:47:13:509,12:47:14:227,12:47:17:229,right,12:47:17:513,,2018_Jun_12_1225,59.9512139634,MP-Perception Experiment,xx18w25,
233,vcgpdm_dyn(20)-lvm(25)_final(8).mov,False,left,1,training(7).mov,0,73,73,42,,,,,,,,12:47:18:293,12:47:19:014,12:47:22:016,left,12:47:22:116,,2018_Jun_12_1225,59.9512139634,MP-Perception Experiment,xx18w25,
234,vcgpdm_dyn(25)-lvm(35)_final(3).mov,False,left,1,training(31).mov,0,74,74,36,,,,,,,,12:47:22:896,12:47:23:618,12:47:26:621,left,12:47:26:855,,2018_Jun_12_1225,59.9512139634,MP-Perception Experiment,xx18w25,
235,vgpdm_dyn(30)-lvm(20)_final(7).mov,False,left,1,training(36).mov,0,75,75,154,,,,,,,,12:47:27:630,12:47:28:356,12:47:31:358,left,12:47:31:458,,2018_Jun_12_1225,59.9512139634,MP-Perception Experiment,xx18w25,
236,vcgpdm_dyn(5)-lvm(20)_final(6).mov,True,left,1,training(3).mov,0,76,76,55,,,,,,,,12:47:32:421,12:47:32:959,12:47:35:962,left,12:47:36:062,,2018_Jun_12_1225,59.9512139634,MP-Perception Experiment,xx18w25,
237,training(17).mov,False,right,1,vcgpdm_dyn(15)-lvm(35)_final(8).mov,0,77,77,96,,,,,,,,12:47:37:026,12:47:37:563,12:47:40:565,right,12:47:40:882,,2018_Jun_12_1225,59.9512139634,MP-Perception Experiment,xx18w25,
238,vcgpdm_dyn(5)-lvm(20)_final(5).mov,True,left,1,training(32).mov,0,78,78,90,,,,,,,,12:47:41:680,12:47:42:383,12:47:45:385,left,12:47:45:519,,2018_Jun_12_1225,59.9512139634,MP-Perception Experiment,xx18w25,
239,training(10).mov,True,right,1,vgpdm_dyn(5)-lvm(10)_final(3).mov,0,79,79,141,,,,,,,,12:47:46:300,12:47:47:020,12:47:50:022,right,12:47:50:323,,2018_Jun_12_1225,59.9512139634,MP-Perception Experiment,xx18w25,
240,vgpdm_dyn(30)-lvm(20)_final(9).mov,True,left,1,training(36).mov,0,80,80,105,,,,,,,,12:47:51:318,12:47:51:824,12:47:54:811,left,12:47:54:978,,2018_Jun_12_1225,59.9512139634,MP-Perception Experiment,xx18w25,
241,tmp_numprim(2)_final(2).mov,False,left,1,training(4).mov,0,81,81,66,,,,,,,,12:47:55:762,12:47:56:479,12:47:59:483,left,12:47:59:900,,2018_Jun_12_1225,59.9512139634,MP-Perception Experiment,xx18w25,
242,vgpdm_dyn(30)-lvm(5)_final(3).mov,True,left,1,training(10).mov,0,82,82,21,,,,,,,,12:48:00:861,12:48:01:401,12:48:04:404,left,12:48:04:520,,2018_Jun_12_1225,59.9512139634,MP-Perception Experiment,xx18w25,
243,training(29).mov,True,right,1,vcgpdm_dyn(25)-lvm(20)_final(9).mov,0,83,83,115,,,,,,,,12:48:05:304,12:48:06:021,12:48:09:024,right,12:48:09:424,,2018_Jun_12_1225,59.9512139634,MP-Perception Experiment,xx18w25,
244,map_cgpdm_final(5).mov,True,left,1,training(5).mov,0,84,84,158,,,,,,,,12:48:10:211,12:48:10:925,12:48:13:928,left,12:48:14:362,,2018_Jun_12_1225,59.9512139634,MP-Perception Experiment,xx18w25,
245,training(14).mov,False,right,1,vcgpdm_dyn(10)-lvm(20)_final(1).mov,0,85,85,48,,,,,,,,12:48:15:137,12:48:15:864,12:48:18:866,right,12:48:19:283,,2018_Jun_12_1225,59.9512139634,MP-Perception Experiment,xx18w25,
246,training(27).mov,True,right,1,vgpdm_dyn(10)-lvm(15)_final(2).mov,0,86,86,11,,,,,,,,12:48:20:078,12:48:20:784,12:48:23:787,left,12:48:23:887,,2018_Jun_12_1225,59.9512139634,MP-Perception Experiment,xx18w25,
247,training(25).mov,False,right,1,vgpdm_dyn(5)-lvm(20)_final(1).mov,0,87,87,39,,,,,,,,12:48:24:668,12:48:25:388,12:48:28:391,right,12:48:28:739,,2018_Jun_12_1225,59.9512139634,MP-Perception Experiment,xx18w25,
248,training(5).mov,True,right,1,vcgpdm_dyn(35)-lvm(25)_final(9).mov,0,88,88,123,,,,,,,,12:48:29:520,12:48:30:240,12:48:33:244,right,12:48:33:727,,2018_Jun_12_1225,59.9512139634,MP-Perception Experiment,xx18w25,
249,vcgpdm_dyn(20)-lvm(5)_final(1).mov,False,left,1,training(40).mov,0,89,89,10,,,,,,,,12:48:34:510,12:48:35:229,12:48:38:231,left,12:48:38:431,,2018_Jun_12_1225,59.9512139634,MP-Perception Experiment,xx18w25,
250,training(29).mov,False,right,1,vcgpdm_dyn(35)-lvm(20)_final(3).mov,0,90,90,27,,,,,,,,12:48:39:212,12:48:39:934,12:48:42:920,right,12:48:43:120,,2018_Jun_12_1225,59.9512139634,MP-Perception Experiment,xx18w25,
251,training(13).mov,False,right,1,vcgpdm_dyn(10)-lvm(10)_final(4).mov,0,91,91,89,,,,,,,,12:48:44:069,12:48:44:621,12:48:47:624,right,12:48:47:974,,2018_Jun_12_1225,59.9512139634,MP-Perception Experiment,xx18w25,
252,vcgpdm_dyn(10)-lvm(35)_final(2).mov,True,left,1,training(12).mov,0,92,92,46,,,,,,,,12:48:48:956,12:48:49:475,12:48:52:479,left,12:48:52:529,,2018_Jun_12_1225,59.9512139634,MP-Perception Experiment,xx18w25,
253,vcgpdm_dyn(30)-lvm(25)_final(4).mov,False,left,1,training(39).mov,0,93,93,150,,,,,,,,12:48:53:483,12:48:54:030,12:48:57:032,right,12:48:57:333,,2018_Jun_12_1225,59.9512139634,MP-Perception Experiment,xx18w25,
254,dmp_npsi(25)_final(4).mov,False,left,1,training(41).mov,0,94,94,133,,,,,,,,12:48:58:122,12:48:58:834,12:49:01:836,left,12:49:01:970,,2018_Jun_12_1225,59.9512139634,MP-Perception Experiment,xx18w25,
255,vgpdm_dyn(10)-lvm(35)_final(7).mov,True,left,1,training(30).mov,0,95,95,101,,,,,,,,12:49:02:751,12:49:03:471,12:49:06:473,left,12:49:06:774,,2018_Jun_12_1225,59.9512139634,MP-Perception Experiment,xx18w25,
256,vcgpdm_dyn(5)-lvm(15)_final(0).mov,True,left,1,training(48).mov,0,96,96,92,,,,,,,,12:49:07:731,12:49:08:276,12:49:11:278,left,12:49:11:545,,2018_Jun_12_1225,59.9512139634,MP-Perception Experiment,xx18w25,
257,vcgpdm_dyn(20)-lvm(20)_final(0).mov,False,left,1,training(11).mov,0,97,97,107,,,,,,,,12:49:12:329,12:49:13:046,12:49:16:049,left,12:49:16:215,,2018_Jun_12_1225,59.9512139634,MP-Perception Experiment,xx18w25,
258,vgpdm_dyn(20)-lvm(15)_final(0).mov,True,left,1,training(29).mov,0,98,98,4,,,,,,,,12:49:16:993,12:49:17:717,12:49:20:717,left,12:49:21:535,,2018_Jun_12_1225,59.9512139634,MP-Perception Experiment,xx18w25,
259,training(24).mov,True,right,1,vcgpdm_dyn(35)-lvm(20)_final(0).mov,0,99,99,64,,,,,,,,12:49:22:315,12:49:23:036,12:49:26:039,left,12:49:26:523,,2018_Jun_12_1225,59.9512139634,MP-Perception Experiment,xx18w25,
260,training(30).mov,False,right,1,vcgpdm_dyn(35)-lvm(25)_final(2).mov,0,100,100,30,,,,,,,,12:49:27:307,12:49:28:024,12:49:31:027,right,12:49:31:360,,2018_Jun_12_1225,59.9512139634,MP-Perception Experiment,xx18w25,
261,vcgpdm_dyn(5)-lvm(25)_final(6).mov,True,left,1,training(38).mov,0,101,101,60,,,,,,,,12:49:32:142,12:49:32:863,12:49:35:849,left,12:49:36:099,,2018_Jun_12_1225,59.9512139634,MP-Perception Experiment,xx18w25,
262,vcgpdm_dyn(15)-lvm(25)_final(7).mov,True,left,1,training(40).mov,0,102,102,114,,,,,,,,12:49:36:869,12:49:37:600,12:49:40:603,left,12:49:40:853,,2018_Jun_12_1225,59.9512139634,MP-Perception Experiment,xx18w25,
263,vgpdm_dyn(20)-lvm(5)_final(9).mov,False,left,1,training(23).mov,0,103,103,1,,,,,,,,12:49:41:636,12:49:42:355,12:49:45:358,left,12:49:46:275,,2018_Jun_12_1225,59.9512139634,MP-Perception Experiment,xx18w25,
264,vcgpdm_dyn(30)-lvm(15)_final(0).mov,False,left,1,training(30).mov,0,104,104,116,,,,,,,,12:49:47:054,12:49:47:776,12:49:50:779,left,12:49:51:012,,2018_Jun_12_1225,59.9512139634,MP-Perception Experiment,xx18w25,
265,vgpdm_dyn(25)-lvm(15)_final(7)_out_of_screen.mov,True,left,1,training(17).mov,0,105,105,76,,,,,,,,12:49:51:821,12:49:52:513,12:49:55:516,left,12:49:55:816,,2018_Jun_12_1225,59.9512139634,MP-Perception Experiment,xx18w25,
266,training(34).mov,False,right,1,tmp_numprim(9)_final(7).mov,0,106,106,6,,,,,,,,12:49:56:588,12:49:57:317,12:50:00:321,left,12:50:01:372,,2018_Jun_12_1225,59.9512139634,MP-Perception Experiment,xx18w25,
267,training(7).mov,False,right,1,vcgpdm_dyn(5)-lvm(5)_final(7).mov,0,107,107,117,,,,,,,,12:50:02:146,12:50:02:873,12:50:05:875,right,12:50:06:242,,2018_Jun_12_1225,59.9512139634,MP-Perception Experiment,xx18w25,
268,training(21).mov,False,right,1,map_cgpdm_final(1).mov,0,108,108,2,,,,,,,,12:50:07:019,12:50:07:743,12:50:10:744,right,12:50:11:044,,2018_Jun_12_1225,59.9512139634,MP-Perception Experiment,xx18w25,
269,vgpdm_dyn(35)-lvm(25)_final(1).mov,True,left,1,training(17).mov,0,109,109,54,,,,,,,,12:50:12:291,12:50:12:796,12:50:15:548,left,12:50:15:815,,2018_Jun_12_1225,59.9512139634,MP-Perception Experiment,xx18w25,
270,vcgpdm_dyn(30)-lvm(20)_final(1).mov,True,left,1,training(23).mov,0,110,110,40,,,,,,,,12:50:16:592,12:50:17:317,12:50:20:319,left,12:50:20:620,,2018_Jun_12_1225,59.9512139634,MP-Perception Experiment,xx18w25,
271,vgpdm_dyn(10)-lvm(30)_final(2).mov,False,left,1,training(9).mov,0,111,111,38,,,,,,,,12:50:21:571,12:50:22:121,12:50:25:108,left,12:50:25:375,,2018_Jun_12_1225,59.9512139634,MP-Perception Experiment,xx18w25,
272,training(19).mov,True,right,1,vcgpdm_dyn(25)-lvm(10)_final(6).mov,0,112,112,14,,,,,,,,12:50:26:158,12:50:26:876,12:50:29:879,left,12:50:30:046,,2018_Jun_12_1225,59.9512139634,MP-Perception Experiment,xx18w25,
273,training(11).mov,True,right,1,vgpdm_dyn(30)-lvm(30)_final(6).mov,0,113,113,77,,,,,,,,12:50:31:014,12:50:31:564,12:50:34:550,right,12:50:34:934,,2018_Jun_12_1225,59.9512139634,MP-Perception Experiment,xx18w25,
274,training(33).mov,False,right,1,vcgpdm_dyn(25)-lvm(5)_final(2).mov,0,114,114,134,,,,,,,,12:50:35:720,12:50:36:435,12:50:39:438,right,12:50:39:988,,2018_Jun_12_1225,59.9512139634,MP-Perception Experiment,xx18w25,
275,training(28).mov,False,right,1,vgpdm_dyn(35)-lvm(5)_final(1).mov,0,115,115,25,,,,,,,,12:50:40:942,12:50:41:489,12:50:44:492,right,12:50:44:592,,2018_Jun_12_1225,59.9512139634,MP-Perception Experiment,xx18w25,
276,training(17).mov,True,right,1,vgpdm_dyn(20)-lvm(20)_final(1).mov,0,116,116,57,,,,,,,,12:50:45:545,12:50:46:093,12:50:49:096,left,12:50:49:112,,2018_Jun_12_1225,59.9512139634,MP-Perception Experiment,xx18w25,
277,training(0).mov,True,right,1,vgpdm_dyn(30)-lvm(5)_final(3).mov,0,117,117,32,,,,,,,,12:50:50:064,12:50:50:613,12:50:53:617,left,12:50:53:950,,2018_Jun_12_1225,59.9512139634,MP-Perception Experiment,xx18w25,
278,vgpdm_dyn(5)-lvm(35)_final(7)_bad.mov,False,left,1,training(7).mov,0,118,118,136,,,,,,,,12:50:54:755,12:50:55:452,12:50:58:454,left,12:50:58:719,,2018_Jun_12_1225,59.9512139634,MP-Perception Experiment,xx18w25,
279,vcgpdm_dyn(25)-lvm(35)_final(6).mov,False,left,1,training(15).mov,0,119,119,16,,,,,,,,12:50:59:505,12:51:00:220,12:51:03:223,left,12:51:03:523,,2018_Jun_12_1225,59.9512139634,MP-Perception Experiment,xx18w25,
280,training(34).mov,True,right,1,vcgpdm_dyn(20)-lvm(15)_final(6).mov,0,120,120,87,,,,,,,,12:51:04:308,12:51:05:024,12:51:08:027,right,12:51:08:093,,2018_Jun_12_1225,59.9512139634,MP-Perception Experiment,xx18w25,
281,training(13).mov,False,right,1,vgpdm_dyn(5)-lvm(10)_final(6).mov,0,121,121,147,,,,,,,,12:51:08:876,12:51:09:596,12:51:12:583,right,12:51:12:883,,2018_Jun_12_1225,59.9512139634,MP-Perception Experiment,xx18w25,
282,vcgpdm_dyn(30)-lvm(5)_final(7).mov,True,left,1,training(16).mov,0,122,122,97,,,,,,,,12:51:13:652,12:51:14:384,12:51:17:387,left,12:51:17:821,,2018_Jun_12_1225,59.9512139634,MP-Perception Experiment,xx18w25,
283,vcgpdm_dyn(15)-lvm(5)_final(7).mov,True,left,1,training(22).mov,0,123,123,28,,,,,,,,12:51:18:601,12:51:19:322,12:51:22:324,left,12:51:23:092,,2018_Jun_12_1225,59.9512139634,MP-Perception Experiment,xx18w25,
284,vgpdm_dyn(30)-lvm(35)_final(6).mov,False,left,1,training(15).mov,0,124,124,65,,,,,,,,12:51:23:870,12:51:24:593,12:51:27:596,left,12:51:27:880,,2018_Jun_12_1225,59.9512139634,MP-Perception Experiment,xx18w25,
285,vcgpdm_dyn(10)-lvm(20)_final(0).mov,True,left,1,training(22).mov,0,125,125,41,,,,,,,,12:51:28:838,12:51:29:381,12:51:32:384,left,12:51:32:667,,2018_Jun_12_1225,59.9512139634,MP-Perception Experiment,xx18w25,
286,vcgpdm_dyn(5)-lvm(5)_final(4).mov,False,left,1,training(35).mov,0,126,126,103,,,,,,,,12:51:33:629,12:51:34:168,12:51:37:171,left,12:51:37:404,,2018_Jun_12_1225,59.9512139634,MP-Perception Experiment,xx18w25,
287,training(28).mov,False,right,1,tmp_numprim(4)_final(6).mov,0,127,127,26,,,,,,,,12:51:38:181,12:51:38:905,12:51:41:908,right,12:51:42:108,,2018_Jun_12_1225,59.9512139634,MP-Perception Experiment,xx18w25,
288,training(0).mov,True,right,1,vcgpdm_dyn(10)-lvm(35)_final(0).mov,0,128,128,120,,,,,,,,12:51:43:054,12:51:43:609,12:51:46:613,right,12:51:47:013,,2018_Jun_12_1225,59.9512139634,MP-Perception Experiment,xx18w25,
289,training(2).mov,False,right,1,vgpdm_dyn(5)-lvm(20)_final(5).mov,0,129,129,104,,,,,,,,12:51:47:970,12:51:48:514,12:51:51:515,right,12:51:51:531,,2018_Jun_12_1225,59.9512139634,MP-Perception Experiment,xx18w25,
290,tmp_numprim(7)_final(3).mov,False,left,1,training(19).mov,0,130,130,155,,,,,,,,12:51:52:491,12:51:53:033,12:51:56:035,right,12:51:56:052,,2018_Jun_12_1225,59.9512139634,MP-Perception Experiment,xx18w25,
291,training(35).mov,False,right,1,vcgpdm_dyn(15)-lvm(25)_final(4).mov,0,131,131,18,,,,,,,,12:51:56:863,12:51:57:553,12:52:00:541,right,12:52:00:857,,2018_Jun_12_1225,59.9512139634,MP-Perception Experiment,xx18w25,
292,training(13).mov,True,right,1,vgpdm_dyn(20)-lvm(25)_final(0).mov,0,132,132,12,,,,,,,,12:52:01:812,12:52:02:360,12:52:05:362,left,12:52:06:113,,2018_Jun_12_1225,59.9512139634,MP-Perception Experiment,xx18w25,
293,vgpdm_dyn(5)-lvm(15)_final(9).mov,True,left,1,training(10).mov,0,133,133,51,,,,,,,,12:52:06:891,12:52:07:614,12:52:10:616,left,12:52:10:900,,2018_Jun_12_1225,59.9512139634,MP-Perception Experiment,xx18w25,
294,training(4).mov,False,right,1,tmp_numprim(6)_final(1).mov,0,134,134,79,,,,,,,,12:52:12:264,12:52:12:768,12:52:15:404,left,12:52:15:871,,2018_Jun_12_1225,59.9512139634,MP-Perception Experiment,xx18w25,
295,dmp_npsi(25)_final(1).mov,False,left,1,training(17).mov,0,135,135,37,,,,,,,,12:52:16:648,12:52:17:372,12:52:20:375,left,12:52:20:659,,2018_Jun_12_1225,59.9512139634,MP-Perception Experiment,xx18w25,
296,vgpdm_dyn(15)-lvm(35)_final(9).mov,True,left,1,training(12).mov,0,136,136,23,,,,,,,,12:52:21:437,12:52:22:160,12:52:25:162,left,12:52:25:446,,2018_Jun_12_1225,59.9512139634,MP-Perception Experiment,xx18w25,
297,training(0).mov,False,right,1,vcgpdm_dyn(5)-lvm(20)_final(0).mov,0,137,137,148,,,,,,,,12:52:26:229,12:52:26:947,12:52:29:950,right,12:52:29:983,,2018_Jun_12_1225,59.9512139634,MP-Perception Experiment,xx18w25,
298,training(16).mov,True,right,1,dmp_npsi(40)_final(3).mov,0,138,138,74,,,,,,,,12:52:30:907,12:52:31:484,12:52:34:487,right,12:52:34:770,,2018_Jun_12_1225,59.9512139634,MP-Perception Experiment,xx18w25,
299,map_gpdm_final(1).mov,True,left,1,training(37).mov,0,139,139,73,,,,,,,,12:52:35:551,12:52:36:271,12:52:39:273,left,12:52:39:557,,2018_Jun_12_1225,59.9512139634,MP-Perception Experiment,xx18w25,
300,vgpdm_dyn(10)-lvm(15)_final(3).mov,True,left,1,training(21).mov,0,140,140,59,,,,,,,,12:52:40:507,12:52:41:058,12:52:44:060,left,12:52:44:310,,2018_Jun_12_1225,59.9512139634,MP-Perception Experiment,xx18w25,
301,dmp_npsi(15)_final(8).mov,True,left,1,training(2).mov,0,141,141,139,,,,,,,,12:52:45:267,12:52:45:812,12:52:48:814,left,12:52:48:931,,2018_Jun_12_1225,59.9512139634,MP-Perception Experiment,xx18w25,
302,vgpdm_dyn(5)-lvm(30)_final(2).mov,False,left,1,training(9).mov,0,142,142,47,,,,,,,,12:52:49:710,12:52:50:432,12:52:53:420,left,12:52:53:803,,2018_Jun_12_1225,59.9512139634,MP-Perception Experiment,xx18w25,
303,training(5).mov,True,right,1,vcgpdm_dyn(20)-lvm(30)_final(5).mov,0,143,143,146,,,,,,,,12:52:54:581,12:52:55:305,12:52:58:308,right,12:52:58:525,,2018_Jun_12_1225,59.9512139634,MP-Perception Experiment,xx18w25,
304,tmp_numprim(7)_final(4).mov,False,left,1,training(3).mov,0,144,144,53,,,,,,,,12:52:59:496,12:53:00:026,12:53:03:028,right,12:53:03:228,,2018_Jun_12_1225,59.9512139634,MP-Perception Experiment,xx18w25,
305,training(21).mov,False,right,1,vgpdm_dyn(30)-lvm(15)_final(7).mov,0,145,145,144,,,,,,,,12:53:04:180,12:53:04:730,12:53:07:732,left,12:53:07:982,,2018_Jun_12_1225,59.9512139634,MP-Perception Experiment,xx18w25,
306,training(19).mov,False,right,1,vgpdm_dyn(10)-lvm(25)_final(3).mov,0,146,146,135,,,,,,,,12:53:08:968,12:53:09:483,12:53:12:487,right,12:53:12:654,,2018_Jun_12_1225,59.9512139634,MP-Perception Experiment,xx18w25,
307,training(9).mov,True,right,1,vgpdm_dyn(10)-lvm(20)_final(2).mov,0,147,147,106,,,,,,,,12:53:13:438,12:53:14:155,12:53:17:157,left,12:53:17:491,,2018_Jun_12_1225,59.9512139634,MP-Perception Experiment,xx18w25,
308,training(37).mov,True,right,1,vcgpdm_dyn(35)-lvm(10)_final(0).mov,0,148,148,49,,,,,,,,12:53:18:280,12:53:18:992,12:53:21:995,right,12:53:22:445,,2018_Jun_12_1225,59.9512139634,MP-Perception Experiment,xx18w25,
309,training(4).mov,False,right,1,vcgpdm_dyn(20)-lvm(10)_final(3).mov,0,149,149,118,,,,,,,,12:53:23:226,12:53:23:946,12:53:26:949,right,12:53:27:016,,2018_Jun_12_1225,59.9512139634,MP-Perception Experiment,xx18w25,
310,training(33).mov,True,right,1,vcgpdm_dyn(20)-lvm(30)_final(1).mov,0,150,150,85,,,,,,,,12:53:27:801,12:53:28:516,12:53:31:518,right,12:53:31:785,,2018_Jun_12_1225,59.9512139634,MP-Perception Experiment,xx18w25,
311,vcgpdm_dyn(10)-lvm(25)_final(8).mov,True,left,1,training(33).mov,0,151,151,83,,,,,,,,12:53:32:559,12:53:33:286,12:53:36:289,left,12:53:36:639,,2018_Jun_12_1225,59.9512139634,MP-Perception Experiment,xx18w25,
312,tmp_numprim(10)_final(6).mov,True,left,1,training(2).mov,0,152,152,67,,,,,,,,12:53:37:418,12:53:38:140,12:53:41:128,left,12:53:41:278,,2018_Jun_12_1225,59.9512139634,MP-Perception Experiment,xx18w25,
313,vgpdm_dyn(20)-lvm(30)_final(5).mov,True,left,1,training(40).mov,0,153,153,125,,,,,,,,12:53:42:242,12:53:42:779,12:53:45:782,left,12:53:46:282,,2018_Jun_12_1225,59.9512139634,MP-Perception Experiment,xx18w25,
314,vgpdm_dyn(30)-lvm(15)_final(2).mov,True,left,1,training(20).mov,0,154,154,149,,,,,,,,12:53:47:061,12:53:47:784,12:53:50:787,left,12:53:51:170,,2018_Jun_12_1225,59.9512139634,MP-Perception Experiment,xx18w25,
315,training(7).mov,True,right,1,vcgpdm_dyn(5)-lvm(25)_final(0).mov,0,155,155,119,,,,,,,,12:53:52:140,12:53:52:671,12:53:55:674,right,12:53:56:208,,2018_Jun_12_1225,59.9512139634,MP-Perception Experiment,xx18w25,
316,vcgpdm_dyn(20)-lvm(10)_final(4).mov,True,left,1,training(29).mov,0,156,156,78,,,,,,,,12:53:56:992,12:53:57:709,12:54:00:711,left,12:54:00:811,,2018_Jun_12_1225,59.9512139634,MP-Perception Experiment,xx18w25,
317,training(26).mov,False,right,1,dmp_npsi(50)_final(0).mov,0,157,157,8,,,,,,,,12:54:01:790,12:54:02:312,12:54:05:316,right,12:54:05:666,,2018_Jun_12_1225,59.9512139634,MP-Perception Experiment,xx18w25,
318,vcgpdm_dyn(30)-lvm(35)_final(3).mov,False,left,1,training(17).mov,0,158,158,3,,,,,,,,12:54:06:449,12:54:07:167,12:54:10:170,left,12:54:10:637,,2018_Jun_12_1225,59.9512139634,MP-Perception Experiment,xx18w25,
319,training(4).mov,False,right,2,vgpdm_dyn(20)-lvm(25)_final(8).mov,0,0,0,129,,,,,,,,12:55:26:246,12:55:26:969,12:55:29:955,right,12:55:30:355,,2018_Jun_12_1225,59.9512139634,MP-Perception Experiment,xx18w25,
320,training(35).mov,False,right,2,vgpdm_dyn(15)-lvm(30)_final(7).mov,0,1,1,142,,,,,,,,12:55:31:326,12:55:31:857,12:55:34:860,right,12:55:34:927,,2018_Jun_12_1225,59.9512139634,MP-Perception Experiment,xx18w25,
321,vcgpdm_dyn(30)-lvm(35)_final(1).mov,False,left,2,training(37).mov,0,2,2,21,,,,,,,,12:55:35:709,12:55:36:428,12:55:39:430,right,12:55:39:714,,2018_Jun_12_1225,59.9512139634,MP-Perception Experiment,xx18w25,
322,vgpdm_dyn(10)-lvm(30)_final(9).mov,True,left,2,training(23).mov,0,3,3,24,,,,,,,,12:55:40:659,12:55:41:215,12:55:44:218,left,12:55:44:785,,2018_Jun_12_1225,59.9512139634,MP-Perception Experiment,xx18w25,
323,training(22).mov,False,right,2,vgpdm_dyn(15)-lvm(25)_final(2).mov,0,4,4,127,,,,,,,,12:55:45:646,12:55:46:286,12:55:49:306,right,12:55:49:639,,2018_Jun_12_1225,59.9512139634,MP-Perception Experiment,xx18w25,
324,vcgpdm_dyn(25)-lvm(25)_final(4).mov,True,left,2,training(14).mov,0,5,5,40,,,,,,,,12:55:50:604,12:55:51:141,12:55:54:143,left,12:55:54:493,,2018_Jun_12_1225,59.9512139634,MP-Perception Experiment,xx18w25,
325,training(15).mov,False,right,2,vcgpdm_dyn(10)-lvm(15)_final(7).mov,0,6,6,7,,,,,,,,12:55:55:464,12:55:55:995,12:55:58:995,right,12:55:59:029,,2018_Jun_12_1225,59.9512139634,MP-Perception Experiment,xx18w25,
326,training(17).mov,False,right,2,vcgpdm_dyn(35)-lvm(20)_final(8).mov,0,7,7,114,,,,,,,,12:56:00:001,12:56:00:530,12:56:03:532,right,12:56:03:816,,2018_Jun_12_1225,59.9512139634,MP-Perception Experiment,xx18w25,
327,training(28).mov,False,right,2,vcgpdm_dyn(35)-lvm(30)_final(6).mov,0,8,8,64,,,,,,,,12:56:04:771,12:56:05:317,12:56:08:320,right,12:56:08:337,,2018_Jun_12_1225,59.9512139634,MP-Perception Experiment,xx18w25,
328,training(4).mov,False,right,2,dmp_npsi(45)_final(3).mov,0,9,9,144,,,,,,,,12:56:09:123,12:56:09:838,12:56:12:826,left,12:56:13:059,,2018_Jun_12_1225,59.9512139634,MP-Perception Experiment,xx18w25,
329,vgpdm_dyn(30)-lvm(15)_final(0).mov,True,left,2,training(6).mov,0,10,10,34,,,,,,,,12:56:13:840,12:56:14:561,12:56:17:563,left,12:56:17:747,,2018_Jun_12_1225,59.9512139634,MP-Perception Experiment,xx18w25,
330,training(13).mov,False,right,2,vcgpdm_dyn(10)-lvm(25)_final(3).mov,0,11,11,156,,,,,,,,12:56:18:533,12:56:19:248,12:56:22:250,right,12:56:22:584,,2018_Jun_12_1225,59.9512139634,MP-Perception Experiment,xx18w25,
331,vcgpdm_dyn(10)-lvm(15)_final(2).mov,True,left,2,training(34).mov,0,12,12,123,,,,,,,,12:56:23:361,12:56:24:085,12:56:27:088,left,12:56:27:289,,2018_Jun_12_1225,59.9512139634,MP-Perception Experiment,xx18w25,
332,training(9).mov,True,right,2,vgpdm_dyn(20)-lvm(35)_final(8).mov,0,13,13,67,,,,,,,,12:56:28:089,12:56:28:790,12:56:31:792,left,12:56:31:909,,2018_Jun_12_1225,59.9512139634,MP-Perception Experiment,xx18w25,
333,tmp_numprim(8)_final(8).mov,False,left,2,training(34).mov,0,14,14,73,,,,,,,,12:56:32:874,12:56:33:410,12:56:36:413,left,12:56:36:529,,2018_Jun_12_1225,59.9512139634,MP-Perception Experiment,xx18w25,
334,training(9).mov,True,right,2,vgpdm_dyn(10)-lvm(25)_final(7).mov,0,15,15,92,,,,,,,,12:56:37:320,12:56:38:030,12:56:41:033,left,12:56:41:216,,2018_Jun_12_1225,59.9512139634,MP-Perception Experiment,xx18w25,
335,training(19).mov,True,right,2,vgpdm_dyn(10)-lvm(15)_final(3).mov,0,16,16,152,,,,,,,,12:56:42:184,12:56:42:719,12:56:45:721,left,12:56:46:021,,2018_Jun_12_1225,59.9512139634,MP-Perception Experiment,xx18w25,
336,training(3).mov,True,right,2,vcgpdm_dyn(5)-lvm(15)_final(6).mov,0,17,17,138,,,,,,,,12:56:46:809,12:56:47:522,12:56:50:523,left,12:56:50:707,,2018_Jun_12_1225,59.9512139634,MP-Perception Experiment,xx18w25,
337,training(17).mov,False,right,2,map_gpdm_final(6).mov,0,18,18,31,,,,,,,,12:56:51:672,12:56:52:208,12:56:55:210,right,12:56:55:694,,2018_Jun_12_1225,59.9512139634,MP-Perception Experiment,xx18w25,
338,vcgpdm_dyn(25)-lvm(20)_final(8).mov,True,left,2,training(31).mov,0,19,19,84,,,,,,,,12:56:56:469,12:56:57:195,12:57:00:184,left,12:57:00:484,,2018_Jun_12_1225,59.9512139634,MP-Perception Experiment,xx18w25,
339,vcgpdm_dyn(15)-lvm(25)_final(1).mov,False,left,2,training(14).mov,0,20,20,2,,,,,,,,12:57:01:271,12:57:01:985,12:57:04:988,left,12:57:05:755,,2018_Jun_12_1225,59.9512139634,MP-Perception Experiment,xx18w25,
340,vgpdm_dyn(20)-lvm(5)_final(5).mov,True,left,2,training(41).mov,0,21,21,32,,,,,,,,12:57:06:533,12:57:07:256,12:57:10:259,left,12:57:10:692,,2018_Jun_12_1225,59.9512139634,MP-Perception Experiment,xx18w25,
341,training(16).mov,True,right,2,vcgpdm_dyn(35)-lvm(5)_final(5).mov,0,22,22,69,,,,,,,,12:57:12:442,12:57:12:442,12:57:15:196,right,12:57:15:963,,2018_Jun_12_1225,59.9512139634,MP-Perception Experiment,xx18w25,
342,vcgpdm_dyn(25)-lvm(15)_final(5).mov,True,left,2,training(22).mov,0,23,23,83,,,,,,,,12:57:16:743,12:57:17:465,12:57:20:468,left,12:57:20:801,,2018_Jun_12_1225,59.9512139634,MP-Perception Experiment,xx18w25,
343,training(23).mov,False,right,2,dmp_npsi(25)_final(9).mov,0,24,24,145,,,,,,,,12:57:21:757,12:57:22:303,12:57:25:305,right,12:57:25:589,,2018_Jun_12_1225,59.9512139634,MP-Perception Experiment,xx18w25,
344,dmp_npsi(20)_final(5).mov,False,left,2,training(40).mov,0,25,25,93,,,,,,,,12:57:26:367,12:57:27:090,12:57:30:092,left,12:57:30:893,,2018_Jun_12_1225,59.9512139634,MP-Perception Experiment,xx18w25,
345,training(18).mov,True,right,2,dmp_npsi(40)_final(9).mov,0,26,26,5,,,,,,,,12:57:31:850,12:57:32:394,12:57:35:398,left,12:57:35:648,,2018_Jun_12_1225,59.9512139634,MP-Perception Experiment,xx18w25,
346,vcgpdm_dyn(20)-lvm(5)_final(3).mov,True,left,2,training(22).mov,0,27,27,126,,,,,,,,12:57:36:452,12:57:37:149,12:57:40:150,left,12:57:40:433,,2018_Jun_12_1225,59.9512139634,MP-Perception Experiment,xx18w25,
347,training(16).mov,True,right,2,dmp_npsi(25)_final(1).mov,0,28,28,65,,,,,,,,12:57:41:208,12:57:41:934,12:57:44:937,right,12:57:45:237,,2018_Jun_12_1225,59.9512139634,MP-Perception Experiment,xx18w25,
348,vcgpdm_dyn(35)-lvm(35)_final(6)_bad.mov,False,left,2,training(30).mov,0,29,29,22,,,,,,,,12:57:46:012,12:57:46:738,12:57:49:741,left,12:57:50:291,,2018_Jun_12_1225,59.9512139634,MP-Perception Experiment,xx18w25,
349,training(13).mov,False,right,2,vcgpdm_dyn(25)-lvm(25)_final(3).mov,0,30,30,128,,,,,,,,12:57:51:073,12:57:51:793,12:57:54:781,left,12:57:54:964,,2018_Jun_12_1225,59.9512139634,MP-Perception Experiment,xx18w25,
350,vcgpdm_dyn(20)-lvm(35)_final(9).mov,True,left,2,training(36).mov,0,31,31,72,,,,,,,,12:57:55:738,12:57:56:465,12:57:59:468,left,12:57:59:935,,2018_Jun_12_1225,59.9512139634,MP-Perception Experiment,xx18w25,
351,training(15).mov,True,right,2,vgpdm_dyn(10)-lvm(30)_final(6).mov,0,32,32,148,,,,,,,,12:58:00:712,12:58:01:436,12:58:04:439,right,12:58:05:273,,2018_Jun_12_1225,59.9512139634,MP-Perception Experiment,xx18w25,
352,vgpdm_dyn(15)-lvm(30)_final(6).mov,False,left,2,training(19).mov,0,33,33,36,,,,,,,,12:58:06:083,12:58:06:774,12:58:09:777,left,12:58:10:078,,2018_Jun_12_1225,59.9512139634,MP-Perception Experiment,xx18w25,
353,tmp_numprim(5)_final(2).mov,False,left,2,training(35).mov,0,34,34,122,,,,,,,,12:58:10:863,12:58:11:579,12:58:14:581,left,12:58:14:665,,2018_Jun_12_1225,59.9512139634,MP-Perception Experiment,xx18w25,
354,training(41).mov,True,right,2,vgpdm_dyn(30)-lvm(10)_final(3).mov,0,35,35,82,,,,,,,,12:58:15:655,12:58:16:166,12:58:19:168,right,12:58:19:535,,2018_Jun_12_1225,59.9512139634,MP-Perception Experiment,xx18w25,
355,training(1).mov,True,right,2,tmp_numprim(8)_final(0).mov,0,36,36,116,,,,,,,,12:58:20:509,12:58:21:036,12:58:24:039,left,12:58:24:523,,2018_Jun_12_1225,59.9512139634,MP-Perception Experiment,xx18w25,
356,vgpdm_dyn(35)-lvm(5)_final(4).mov,True,left,2,training(26).mov,0,37,37,88,,,,,,,,12:58:25:496,12:58:26:024,12:58:29:025,left,12:58:29:259,,2018_Jun_12_1225,59.9512139634,MP-Perception Experiment,xx18w25,
357,vcgpdm_dyn(20)-lvm(30)_final(6).mov,False,left,2,training(30).mov,0,38,38,59,,,,,,,,12:58:30:226,12:58:30:760,12:58:33:763,left,12:58:33:996,,2018_Jun_12_1225,59.9512139634,MP-Perception Experiment,xx18w25,
358,training(28).mov,False,right,2,vcgpdm_dyn(10)-lvm(15)_final(5).mov,0,39,39,108,,,,,,,,12:58:34:944,12:58:35:497,12:58:38:500,right,12:58:38:700,,2018_Jun_12_1225,59.9512139634,MP-Perception Experiment,xx18w25,
359,vgpdm_dyn(10)-lvm(35)_final(0).mov,True,left,2,training(34).mov,0,40,40,105,,,,,,,,12:58:39:689,12:58:40:203,12:58:43:189,left,12:58:43:389,,2018_Jun_12_1225,59.9512139634,MP-Perception Experiment,xx18w25,
360,training(23).mov,True,right,2,vgpdm_dyn(25)-lvm(20)_final(7).mov,0,41,41,131,,,,,,,,12:58:44:363,12:58:44:891,12:58:47:894,left,12:58:48:227,,2018_Jun_12_1225,59.9512139634,MP-Perception Experiment,xx18w25,
361,tmp_numprim(8)_final(6).mov,False,left,2,training(17).mov,0,42,42,33,,,,,,,,12:58:49:193,12:58:49:728,12:58:52:731,left,12:58:52:981,,2018_Jun_12_1225,59.9512139634,MP-Perception Experiment,xx18w25,
362,training(48).mov,True,right,2,vgpdm_dyn(35)-lvm(10)_final(3).mov,0,43,43,157,,,,,,,,12:58:53:951,12:58:54:482,12:58:57:485,left,12:58:57:568,,2018_Jun_12_1225,59.9512139634,MP-Perception Experiment,xx18w25,
363,training(39).mov,False,right,2,vgpdm_dyn(30)-lvm(5)_final(1).mov,0,44,44,113,,,,,,,,12:58:58:346,12:58:59:069,12:59:02:073,right,12:59:02:556,,2018_Jun_12_1225,59.9512139634,MP-Perception Experiment,xx18w25,
364,vgpdm_dyn(35)-lvm(30)_final(0).mov,True,left,2,training(23).mov,0,45,45,45,,,,,,,,12:59:03:344,12:59:04:057,12:59:07:060,left,12:59:07:477,,2018_Jun_12_1225,59.9512139634,MP-Perception Experiment,xx18w25,
365,vgpdm_dyn(15)-lvm(20)_final(3)_out_of_screen.mov,False,left,2,training(40).mov,0,46,46,106,,,,,,,,12:59:08:314,12:59:08:978,12:59:11:981,left,12:59:12:314,,2018_Jun_12_1225,59.9512139634,MP-Perception Experiment,xx18w25,
366,training(33).mov,True,right,2,vgpdm_dyn(20)-lvm(25)_final(0).mov,0,47,47,137,,,,,,,,12:59:13:090,12:59:13:815,12:59:16:818,left,12:59:17:051,,2018_Jun_12_1225,59.9512139634,MP-Perception Experiment,xx18w25,
367,vcgpdm_dyn(30)-lvm(15)_final(9).mov,False,left,2,training(4).mov,0,48,48,98,,,,,,,,12:59:17:833,12:59:18:552,12:59:21:554,left,12:59:21:738,,2018_Jun_12_1225,59.9512139634,MP-Perception Experiment,xx18w25,
368,dmp_npsi(50)_final(4).mov,True,left,2,training(22).mov,0,49,49,100,,,,,,,,12:59:22:522,12:59:23:239,12:59:26:241,left,12:59:26:658,,2018_Jun_12_1225,59.9512139634,MP-Perception Experiment,xx18w25,
369,training(19).mov,False,right,2,vcgpdm_dyn(10)-lvm(5)_final(5).mov,0,50,50,54,,,,,,,,12:59:27:432,12:59:28:159,12:59:31:162,right,12:59:31:379,,2018_Jun_12_1225,59.9512139634,MP-Perception Experiment,xx18w25,
370,vcgpdm_dyn(10)-lvm(30)_final(5).mov,True,left,2,training(29).mov,0,51,51,28,,,,,,,,12:59:32:331,12:59:32:882,12:59:35:867,left,12:59:36:251,,2018_Jun_12_1225,59.9512139634,MP-Perception Experiment,xx18w25,
371,training(48).mov,True,right,2,vgpdm_dyn(15)-lvm(5)_final(7).mov,0,52,52,150,,,,,,,,12:59:37:035,12:59:37:753,12:59:40:756,left,12:59:40:873,,2018_Jun_12_1225,59.9512139634,MP-Perception Experiment,xx18w25,
372,vcgpdm_dyn(35)-lvm(10)_final(2).mov,True,left,2,training(15).mov,0,53,53,76,,,,,,,,12:59:41:857,12:59:42:374,12:59:45:376,left,12:59:45:626,,2018_Jun_12_1225,59.9512139634,MP-Perception Experiment,xx18w25,
373,vcgpdm_dyn(15)-lvm(10)_final(2).mov,True,left,2,training(20).mov,0,54,54,18,,,,,,,,12:59:46:412,12:59:47:128,12:59:50:130,left,12:59:50:313,,2018_Jun_12_1225,59.9512139634,MP-Perception Experiment,xx18w25,
374,training(35).mov,True,right,2,tmp_numprim(4)_final(5).mov,0,55,55,74,,,,,,,,12:59:51:262,12:59:51:815,12:59:54:818,right,12:59:55:285,,2018_Jun_12_1225,59.9512139634,MP-Perception Experiment,xx18w25,
375,vcgpdm_dyn(15)-lvm(20)_final(4).mov,True,left,2,training(16).mov,0,56,56,85,,,,,,,,12:59:56:064,12:59:56:786,12:59:59:789,left,13:00:00:706,,2018_Jun_12_1225,59.9512139634,MP-Perception Experiment,xx18w25,
376,vcgpdm_dyn(25)-lvm(30)_final(9).mov,True,left,2,training(7).mov,0,57,57,97,,,,,,,,13:00:01:473,13:00:02:207,13:00:05:210,left,13:00:05:410,,2018_Jun_12_1225,59.9512139634,MP-Perception Experiment,xx18w25,
377,training(15).mov,False,right,2,vgpdm_dyn(20)-lvm(30)_final(4).mov,0,58,58,130,,,,,,,,13:00:06:190,13:00:06:911,13:00:09:912,right,13:00:10:446,,2018_Jun_12_1225,59.9512139634,MP-Perception Experiment,xx18w25,
378,training(37).mov,False,right,2,vgpdm_dyn(10)-lvm(30)_final(6).mov,0,59,59,53,,,,,,,,13:00:12:254,13:00:12:254,13:00:14:950,right,13:00:15:417,,2018_Jun_12_1225,59.9512139634,MP-Perception Experiment,xx18w25,
379,vcgpdm_dyn(10)-lvm(20)_final(5).mov,False,left,2,training(25).mov,0,60,60,16,,,,,,,,13:00:16:358,13:00:16:918,13:00:19:921,left,13:00:20:171,,2018_Jun_12_1225,59.9512139634,MP-Perception Experiment,xx18w25,
380,vcgpdm_dyn(15)-lvm(5)_final(7).mov,False,left,2,training(22).mov,0,61,61,140,,,,,,,,13:00:21:135,13:00:21:674,13:00:24:660,right,13:00:25:027,,2018_Jun_12_1225,59.9512139634,MP-Perception Experiment,xx18w25,
381,training(3).mov,True,right,2,vcgpdm_dyn(20)-lvm(10)_final(9).mov,0,62,62,15,,,,,,,,13:00:25:810,13:00:26:528,13:00:29:532,right,13:00:30:015,,2018_Jun_12_1225,59.9512139634,MP-Perception Experiment,xx18w25,
382,training(38).mov,False,right,2,vgpdm_dyn(30)-lvm(15)_final(7).mov,0,63,63,43,,,,,,,,13:00:30:790,13:00:31:516,13:00:34:519,right,13:00:34:652,,2018_Jun_12_1225,59.9512139634,MP-Perception Experiment,xx18w25,
383,tmp_numprim(2)_final(6).mov,True,left,2,training(34).mov,0,64,64,95,,,,,,,,13:00:35:440,13:00:36:153,13:00:39:156,left,13:00:39:556,,2018_Jun_12_1225,59.9512139634,MP-Perception Experiment,xx18w25,
384,training(27).mov,True,right,2,vcgpdm_dyn(15)-lvm(30)_final(9).mov,0,65,65,81,,,,,,,,13:00:40:341,13:00:41:057,13:00:44:060,right,13:00:45:328,,2018_Jun_12_1225,59.9512139634,MP-Perception Experiment,xx18w25,
385,training(16).mov,False,right,2,vcgpdm_dyn(10)-lvm(20)_final(3).mov,0,66,66,47,,,,,,,,13:00:46:131,13:00:46:830,13:00:49:832,right,13:00:50:132,,2018_Jun_12_1225,59.9512139634,MP-Perception Experiment,xx18w25,
386,training(35).mov,False,right,2,vcgpdm_dyn(30)-lvm(10)_final(7).mov,0,67,67,80,,,,,,,,13:00:50:915,13:00:51:634,13:00:54:636,right,13:00:54:986,,2018_Jun_12_1225,59.9512139634,MP-Perception Experiment,xx18w25,
387,vgpdm_dyn(15)-lvm(35)_final(1).mov,True,left,2,training(33).mov,0,68,68,91,,,,,,,,13:00:55:770,13:00:56:488,13:00:59:488,left,13:00:59:788,,2018_Jun_12_1225,59.9512139634,MP-Perception Experiment,xx18w25,
388,vgpdm_dyn(30)-lvm(25)_final(0).mov,True,left,2,training(40).mov,0,69,69,87,,,,,,,,13:01:00:582,13:01:01:290,13:01:04:293,left,13:01:04:660,,2018_Jun_12_1225,59.9512139634,MP-Perception Experiment,xx18w25,
389,vcgpdm_dyn(30)-lvm(5)_final(0).mov,False,left,2,training(30).mov,0,70,70,29,,,,,,,,13:01:05:442,13:01:06:161,13:01:09:164,left,13:01:09:481,,2018_Jun_12_1225,59.9512139634,MP-Perception Experiment,xx18w25,
390,training(23).mov,False,right,2,vcgpdm_dyn(25)-lvm(20)_final(7).mov,0,71,71,3,,,,,,,,13:01:10:267,13:01:10:982,13:01:13:969,right,13:01:14:320,,2018_Jun_12_1225,59.9512139634,MP-Perception Experiment,xx18w25,
391,vgpdm_dyn(35)-lvm(10)_final(1).mov,False,left,2,training(0).mov,0,72,72,37,,,,,,,,13:01:15:264,13:01:15:821,13:01:18:823,right,13:01:19:140,,2018_Jun_12_1225,59.9512139634,MP-Perception Experiment,xx18w25,
392,vgpdm_dyn(30)-lvm(30)_final(5).mov,False,left,2,training(11).mov,0,73,73,71,,,,,,,,13:01:20:103,13:01:20:641,13:01:23:645,right,13:01:24:012,,2018_Jun_12_1225,59.9512139634,MP-Perception Experiment,xx18w25,
393,training(0).mov,False,right,2,dmp_npsi(30)_final(8).mov,0,74,74,146,,,,,,,,13:01:24:981,13:01:25:513,13:01:28:516,left,13:01:29:149,,2018_Jun_12_1225,59.9512139634,MP-Perception Experiment,xx18w25,
394,training(3).mov,False,right,2,vcgpdm_dyn(10)-lvm(25)_final(0).mov,0,75,75,109,,,,,,,,13:01:30:111,13:01:30:650,13:01:33:653,right,13:01:33:970,,2018_Jun_12_1225,59.9512139634,MP-Perception Experiment,xx18w25,
395,vcgpdm_dyn(10)-lvm(30)_final(8).mov,False,left,2,training(28).mov,0,76,76,38,,,,,,,,13:01:34:918,13:01:35:471,13:01:38:474,left,13:01:38:690,,2018_Jun_12_1225,59.9512139634,MP-Perception Experiment,xx18w25,
396,training(37).mov,False,right,2,vgpdm_dyn(10)-lvm(10)_final(9).mov,0,77,77,4,,,,,,,,13:01:39:645,13:01:40:192,13:01:43:195,right,13:01:43:562,,2018_Jun_12_1225,59.9512139634,MP-Perception Experiment,xx18w25,
397,dmp_npsi(25)_final(7).mov,False,left,2,training(10).mov,0,78,78,147,,,,,,,,13:01:44:514,13:01:45:063,13:01:48:066,left,13:01:48:449,,2018_Jun_12_1225,59.9512139634,MP-Perception Experiment,xx18w25,
398,training(24).mov,True,right,2,vcgpdm_dyn(20)-lvm(15)_final(1).mov,0,79,79,90,,,,,,,,13:01:49:468,13:01:49:982,13:01:52:968,left,13:01:53:101,,2018_Jun_12_1225,59.9512139634,MP-Perception Experiment,xx18w25,
399,training(1).mov,True,right,2,vgpdm_dyn(10)-lvm(5)_final(3).mov,0,80,80,135,,,,,,,,13:01:54:069,13:01:54:602,13:01:57:606,right,13:01:58:173,,2018_Jun_12_1225,59.9512139634,MP-Perception Experiment,xx18w25,
400,training(2).mov,True,right,2,vcgpdm_dyn(25)-lvm(20)_final(5).mov,0,81,81,155,,,,,,,,13:01:58:954,13:01:59:674,13:02:02:662,right,13:02:03:162,,2018_Jun_12_1225,59.9512139634,MP-Perception Experiment,xx18w25,
401,training(36).mov,True,right,2,map_gpdm_final(4).mov,0,82,82,55,,,,,,,,13:02:04:124,13:02:04:663,13:02:07:666,right,13:02:07:983,,2018_Jun_12_1225,59.9512139634,MP-Perception Experiment,xx18w25,
402,training(22).mov,False,right,2,vgpdm_dyn(35)-lvm(30)_final(3).mov,0,83,83,46,,,,,,,,13:02:08:948,13:02:09:484,13:02:12:486,right,13:02:13:420,,2018_Jun_12_1225,59.9512139634,MP-Perception Experiment,xx18w25,
403,training(40).mov,True,right,2,vgpdm_dyn(10)-lvm(5)_final(6).mov,0,84,84,11,,,,,,,,13:02:14:200,13:02:14:923,13:02:17:925,right,13:02:18:275,,2018_Jun_12_1225,59.9512139634,MP-Perception Experiment,xx18w25,
404,map_gpdm_final(2).mov,False,left,2,training(33).mov,0,85,85,19,,,,,,,,13:02:19:058,13:02:19:776,13:02:22:779,left,13:02:22:862,,2018_Jun_12_1225,59.9512139634,MP-Perception Experiment,xx18w25,
405,training(18).mov,False,right,2,vcgpdm_dyn(10)-lvm(10)_final(3).mov,0,86,86,94,,,,,,,,13:02:23:680,13:02:24:363,13:02:27:366,right,13:02:27:716,,2018_Jun_12_1225,59.9512139634,MP-Perception Experiment,xx18w25,
406,vcgpdm_dyn(25)-lvm(30)_final(7).mov,True,left,2,training(14).mov,0,87,87,132,,,,,,,,13:02:28:502,13:02:29:217,13:02:32:221,left,13:02:32:588,,2018_Jun_12_1225,59.9512139634,MP-Perception Experiment,xx18w25,
407,vcgpdm_dyn(35)-lvm(25)_final(2).mov,True,left,2,training(5).mov,0,88,88,63,,,,,,,,13:02:33:366,13:02:34:089,13:02:37:092,left,13:02:37:392,,2018_Jun_12_1225,59.9512139634,MP-Perception Experiment,xx18w25,
408,vgpdm_dyn(10)-lvm(5)_final(1).mov,True,left,2,training(24).mov,0,89,89,27,,,,,,,,13:02:38:171,13:02:38:908,13:02:41:894,left,13:02:42:244,,2018_Jun_12_1225,59.9512139634,MP-Perception Experiment,xx18w25,
409,training(36).mov,False,right,2,vcgpdm_dyn(25)-lvm(5)_final(0).mov,0,90,90,112,,,,,,,,13:02:43:039,13:02:43:745,13:02:46:748,right,13:02:46:981,,2018_Jun_12_1225,59.9512139634,MP-Perception Experiment,xx18w25,
410,training(11).mov,True,right,2,vgpdm_dyn(15)-lvm(25)_final(5).mov,0,91,91,78,,,,,,,,13:02:47:765,13:02:48:482,13:02:51:471,right,13:02:51:971,,2018_Jun_12_1225,59.9512139634,MP-Perception Experiment,xx18w25,
411,map_cgpdm_final(3).mov,True,left,2,training(19).mov,0,92,92,13,,,,,,,,13:02:52:768,13:02:53:472,13:02:56:475,left,13:02:56:725,,2018_Jun_12_1225,59.9512139634,MP-Perception Experiment,xx18w25,
412,training(12).mov,True,right,2,vgpdm_dyn(35)-lvm(30)_final(4).mov,0,93,93,14,,,,,,,,13:02:57:471,13:02:58:226,13:03:01:229,left,13:03:01:262,,2018_Jun_12_1225,59.9512139634,MP-Perception Experiment,xx18w25,
413,training(5).mov,False,right,2,tmp_numprim(3)_final(7).mov,0,94,94,52,,,,,,,,13:03:02:221,13:03:02:763,13:03:05:766,right,13:03:06:133,,2018_Jun_12_1225,59.9512139634,MP-Perception Experiment,xx18w25,
414,vgpdm_dyn(10)-lvm(5)_final(3).mov,True,left,2,training(30).mov,0,95,95,101,,,,,,,,13:03:06:919,13:03:07:635,13:03:10:637,left,13:03:10:654,,2018_Jun_12_1225,59.9512139634,MP-Perception Experiment,xx18w25,
415,vcgpdm_dyn(5)-lvm(20)_final(7).mov,True,left,2,training(13).mov,0,96,96,58,,,,,,,,13:03:12:608,13:03:12:608,13:03:15:158,left,13:03:15:591,,2018_Jun_12_1225,59.9512139634,MP-Perception Experiment,xx18w25,
416,map_cgpdm_final(6).mov,False,left,2,training(39).mov,0,97,97,25,,,,,,,,13:03:16:370,13:03:17:092,13:03:20:095,right,13:03:20:712,,2018_Jun_12_1225,59.9512139634,MP-Perception Experiment,xx18w25,
417,map_gpdm_final(5).mov,False,left,2,training(32).mov,0,98,98,96,,,,,,,,13:03:21:500,13:03:22:213,13:03:25:217,left,13:03:25:567,,2018_Jun_12_1225,59.9512139634,MP-Perception Experiment,xx18w25,
418,vcgpdm_dyn(20)-lvm(20)_final(2).mov,True,left,2,training(31).mov,0,99,99,70,,,,,,,,13:03:26:351,13:03:27:068,13:03:30:069,left,13:03:30:519,,2018_Jun_12_1225,59.9512139634,MP-Perception Experiment,xx18w25,
419,vcgpdm_dyn(30)-lvm(35)_final(5).mov,True,left,2,training(8).mov,0,100,100,125,,,,,,,,13:03:31:304,13:03:32:020,13:03:35:023,left,13:03:35:390,,2018_Jun_12_1225,59.9512139634,MP-Perception Experiment,xx18w25,
420,training(30).mov,False,right,2,vgpdm_dyn(15)-lvm(15)_final(9).mov,0,101,101,20,,,,,,,,13:03:36:172,13:03:36:891,13:03:39:893,right,13:03:41:429,,2018_Jun_12_1225,59.9512139634,MP-Perception Experiment,xx18w25,
421,vcgpdm_dyn(30)-lvm(20)_final(5).mov,False,left,2,training(22).mov,0,102,102,107,,,,,,,,13:03:42:397,13:03:42:930,13:03:45:918,left,13:03:46:201,,2018_Jun_12_1225,59.9512139634,MP-Perception Experiment,xx18w25,
422,training(14).mov,False,right,2,tmp_numprim(6)_final(8).mov,0,103,103,143,,,,,,,,13:03:46:980,13:03:47:702,13:03:50:705,right,13:03:50:972,,2018_Jun_12_1225,59.9512139634,MP-Perception Experiment,xx18w25,
423,vcgpdm_dyn(25)-lvm(20)_final(3).mov,False,left,2,training(40).mov,0,104,104,77,,,,,,,,13:03:51:923,13:03:52:473,13:03:55:476,right,13:03:55:859,,2018_Jun_12_1225,59.9512139634,MP-Perception Experiment,xx18w25,
424,training(33).mov,False,right,2,tmp_numprim(9)_final(8).mov,0,105,105,134,,,,,,,,13:03:56:670,13:03:57:360,13:04:00:364,right,13:04:01:181,,2018_Jun_12_1225,59.9512139634,MP-Perception Experiment,xx18w25,
425,training(22).mov,False,right,2,vgpdm_dyn(30)-lvm(15)_final(2).mov,0,106,106,41,,,,,,,,13:04:01:961,13:04:02:682,13:04:05:685,left,13:04:06:002,,2018_Jun_12_1225,59.9512139634,MP-Perception Experiment,xx18w25,
426,training(9).mov,False,right,2,vgpdm_dyn(35)-lvm(10)_final(2).mov,0,107,107,48,,,,,,,,13:04:06:781,13:04:07:503,13:04:10:505,right,13:04:10:772,,2018_Jun_12_1225,59.9512139634,MP-Perception Experiment,xx18w25,
427,vgpdm_dyn(20)-lvm(30)_final(4).mov,True,left,2,training(28).mov,0,108,108,30,,,,,,,,13:04:12:251,13:04:12:757,13:04:15:276,left,13:04:16:143,,2018_Jun_12_1225,59.9512139634,MP-Perception Experiment,xx18w25,
428,vcgpdm_dyn(15)-lvm(30)_final(7).mov,True,left,2,training(17).mov,0,109,109,60,,,,,,,,13:04:16:921,13:04:17:645,13:04:20:646,left,13:04:20:946,,2018_Jun_12_1225,59.9512139634,MP-Perception Experiment,xx18w25,
429,vgpdm_dyn(25)-lvm(10)_final(3)_out_of_screen.mov,True,left,2,training(32).mov,0,110,110,50,,,,,,,,13:04:21:722,13:04:22:447,13:04:25:450,left,13:04:25:683,,2018_Jun_12_1225,59.9512139634,MP-Perception Experiment,xx18w25,
430,training(30).mov,False,right,2,dmp_npsi(45)_final(3).mov,0,111,111,0,,,,,,,,13:04:26:461,13:04:27:185,13:04:30:187,right,13:04:30:487,,2018_Jun_12_1225,59.9512139634,MP-Perception Experiment,xx18w25,
431,training(6).mov,True,right,2,vcgpdm_dyn(30)-lvm(10)_final(8).mov,0,112,112,6,,,,,,,,13:04:31:266,13:04:31:988,13:04:34:977,left,13:04:35:244,,2018_Jun_12_1225,59.9512139634,MP-Perception Experiment,xx18w25,
432,vcgpdm_dyn(30)-lvm(20)_final(4).mov,False,left,2,training(33).mov,0,113,113,154,,,,,,,,13:04:36:023,13:04:36:745,13:04:39:748,left,13:04:40:081,,2018_Jun_12_1225,59.9512139634,MP-Perception Experiment,xx18w25,
433,training(37).mov,True,right,2,vcgpdm_dyn(20)-lvm(5)_final(0).mov,0,114,114,104,,,,,,,,13:04:40:860,13:04:41:582,13:04:44:585,right,13:04:44:869,,2018_Jun_12_1225,59.9512139634,MP-Perception Experiment,xx18w25,
434,training(32).mov,True,right,2,vgpdm_dyn(20)-lvm(30)_final(7).mov,0,115,115,151,,,,,,,,13:04:45:646,13:04:46:369,13:04:49:372,left,13:04:49:589,,2018_Jun_12_1225,59.9512139634,MP-Perception Experiment,xx18w25,
435,vcgpdm_dyn(25)-lvm(15)_final(1).mov,True,left,2,training(28).mov,0,116,116,26,,,,,,,,13:04:50:548,13:04:51:090,13:04:54:094,left,13:04:54:377,,2018_Jun_12_1225,59.9512139634,MP-Perception Experiment,xx18w25,
436,vcgpdm_dyn(10)-lvm(10)_final(2).mov,False,left,2,training(15).mov,0,117,117,141,,,,,,,,13:04:55:345,13:04:55:878,13:04:58:881,left,13:04:59:231,,2018_Jun_12_1225,59.9512139634,MP-Perception Experiment,xx18w25,
437,training(25).mov,False,right,2,vgpdm_dyn(35)-lvm(35)_final(2).mov,0,118,118,153,,,,,,,,13:05:00:205,13:05:00:732,13:05:03:735,right,13:05:04:168,,2018_Jun_12_1225,59.9512139634,MP-Perception Experiment,xx18w25,
438,vcgpdm_dyn(30)-lvm(5)_final(7).mov,True,left,2,training(3).mov,0,119,119,89,,,,,,,,13:05:05:112,13:05:05:669,13:05:08:672,left,13:05:08:823,,2018_Jun_12_1225,59.9512139634,MP-Perception Experiment,xx18w25,
439,vgpdm_dyn(15)-lvm(15)_final(0).mov,False,left,2,training(0).mov,0,120,120,1,,,,,,,,13:05:09:822,13:05:10:339,13:05:13:342,left,13:05:13:725,,2018_Jun_12_1225,59.9512139634,MP-Perception Experiment,xx18w25,
440,vcgpdm_dyn(20)-lvm(10)_final(0).mov,True,left,2,training(25).mov,0,121,121,102,,,,,,,,13:05:14:683,13:05:15:226,13:05:18:229,left,13:05:18:713,,2018_Jun_12_1225,59.9512139634,MP-Perception Experiment,xx18w25,
441,training(29).mov,True,right,2,vgpdm_dyn(10)-lvm(10)_final(8).mov,0,122,122,120,,,,,,,,13:05:19:671,13:05:20:214,13:05:23:201,left,13:05:23:518,,2018_Jun_12_1225,59.9512139634,MP-Perception Experiment,xx18w25,
442,dmp_npsi(45)_final(3).mov,False,left,2,training(31).mov,0,123,123,119,,,,,,,,13:05:24:464,13:05:25:019,13:05:28:023,left,13:05:28:406,,2018_Jun_12_1225,59.9512139634,MP-Perception Experiment,xx18w25,
443,vcgpdm_dyn(25)-lvm(25)_final(3).mov,True,left,2,training(16).mov,0,124,124,121,,,,,,,,13:05:29:362,13:05:29:908,13:05:32:910,left,13:05:33:210,,2018_Jun_12_1225,59.9512139634,MP-Perception Experiment,xx18w25,
444,vgpdm_dyn(15)-lvm(25)_final(3).mov,True,left,2,training(0).mov,0,125,125,149,,,,,,,,13:05:34:171,13:05:34:711,13:05:37:714,left,13:05:37:998,,2018_Jun_12_1225,59.9512139634,MP-Perception Experiment,xx18w25,
445,vgpdm_dyn(15)-lvm(25)_final(5).mov,True,left,2,training(40).mov,0,126,126,86,,,,,,,,13:05:38:780,13:05:39:499,13:05:42:501,left,13:05:43:002,,2018_Jun_12_1225,59.9512139634,MP-Perception Experiment,xx18w25,
446,training(18).mov,True,right,2,vcgpdm_dyn(10)-lvm(15)_final(4).mov,0,127,127,111,,,,,,,,13:05:43:784,13:05:44:504,13:05:47:506,right,13:05:47:840,,2018_Jun_12_1225,59.9512139634,MP-Perception Experiment,xx18w25,
447,training(7).mov,False,right,2,vcgpdm_dyn(35)-lvm(5)_final(9).mov,0,128,128,117,,,,,,,,13:05:48:632,13:05:49:341,13:05:52:344,right,13:05:52:610,,2018_Jun_12_1225,59.9512139634,MP-Perception Experiment,xx18w25,
448,vgpdm_dyn(35)-lvm(35)_final(2).mov,True,left,2,training(31).mov,0,129,129,35,,,,,,,,13:05:53:389,13:05:54:111,13:05:57:114,right,13:05:57:381,,2018_Jun_12_1225,59.9512139634,MP-Perception Experiment,xx18w25,
449,training(41).mov,False,right,2,tmp_numprim(3)_final(3).mov,0,130,130,57,,,,,,,,13:05:58:162,13:05:58:882,13:06:01:884,right,13:06:02:167,,2018_Jun_12_1225,59.9512139634,MP-Perception Experiment,xx18w25,
450,vgpdm_dyn(15)-lvm(15)_final(7).mov,False,left,2,training(36).mov,0,131,131,66,,,,,,,,13:06:02:970,13:06:03:668,13:06:06:671,right,13:06:07:088,,2018_Jun_12_1225,59.9512139634,MP-Perception Experiment,xx18w25,
451,training(19).mov,True,right,2,dmp_npsi(40)_final(3).mov,0,132,132,99,,,,,,,,13:06:07:895,13:06:08:589,13:06:11:577,right,13:06:11:927,,2018_Jun_12_1225,59.9512139634,MP-Perception Experiment,xx18w25,
452,vcgpdm_dyn(30)-lvm(15)_final(5).mov,False,left,2,training(32).mov,0,133,133,139,,,,,,,,13:06:12:851,13:06:13:428,13:06:16:431,right,13:06:16:664,,2018_Jun_12_1225,59.9512139634,MP-Perception Experiment,xx18w25,
453,vcgpdm_dyn(35)-lvm(20)_final(3).mov,True,left,2,training(33).mov,0,134,134,158,,,,,,,,13:06:17:432,13:06:18:165,13:06:21:169,left,13:06:21:519,,2018_Jun_12_1225,59.9512139634,MP-Perception Experiment,xx18w25,
454,training(31).mov,True,right,2,vcgpdm_dyn(20)-lvm(35)_final(9).mov,0,135,135,103,,,,,,,,13:06:22:470,13:06:23:020,13:06:26:023,left,13:06:26:373,,2018_Jun_12_1225,59.9512139634,MP-Perception Experiment,xx18w25,
455,training(41).mov,True,right,2,vcgpdm_dyn(5)-lvm(10)_final(5).mov,0,136,136,44,,,,,,,,13:06:27:147,13:06:27:874,13:06:30:877,left,13:06:31:210,,2018_Jun_12_1225,59.9512139634,MP-Perception Experiment,xx18w25,
456,training(7).mov,False,right,2,dmp_npsi(35)_final(4).mov,0,137,137,79,,,,,,,,13:06:32:174,13:06:32:711,13:06:35:714,right,13:06:36:048,,2018_Jun_12_1225,59.9512139634,MP-Perception Experiment,xx18w25,
457,training(19).mov,True,right,2,vcgpdm_dyn(25)-lvm(30)_final(1).mov,0,138,138,42,,,,,,,,13:06:36:836,13:06:37:550,13:06:40:569,left,13:06:40:852,,2018_Jun_12_1225,59.9512139634,MP-Perception Experiment,xx18w25,
458,vgpdm_dyn(35)-lvm(25)_final(6).mov,False,left,2,training(14).mov,0,139,139,136,,,,,,,,13:06:41:629,13:06:42:353,13:06:45:356,left,13:06:45:640,,2018_Jun_12_1225,59.9512139634,MP-Perception Experiment,xx18w25,
459,training(33).mov,True,right,2,vcgpdm_dyn(15)-lvm(30)_final(4).mov,0,140,140,133,,,,,,,,13:06:46:429,13:06:47:141,13:06:50:141,right,13:06:50:458,,2018_Jun_12_1225,59.9512139634,MP-Perception Experiment,xx18w25,
460,vgpdm_dyn(30)-lvm(35)_final(8).mov,True,left,2,training(41).mov,0,141,141,118,,,,,,,,13:06:51:234,13:06:51:959,13:06:54:963,left,13:06:55:180,,2018_Jun_12_1225,59.9512139634,MP-Perception Experiment,xx18w25,
461,training(2).mov,False,right,2,vgpdm_dyn(5)-lvm(15)_final(8).mov,0,142,142,56,,,,,,,,13:06:55:959,13:06:56:681,13:06:59:683,right,13:06:59:967,,2018_Jun_12_1225,59.9512139634,MP-Perception Experiment,xx18w25,
462,vgpdm_dyn(10)-lvm(20)_final(0).mov,True,left,2,training(15).mov,0,143,143,110,,,,,,,,13:07:00:745,13:07:01:468,13:07:04:456,left,13:07:04:756,,2018_Jun_12_1225,59.9512139634,MP-Perception Experiment,xx18w25,
463,training(35).mov,False,right,2,vcgpdm_dyn(5)-lvm(30)_final(9)_bad.mov,0,144,144,17,,,,,,,,13:07:05:558,13:07:06:257,13:07:09:260,right,13:07:09:476,,2018_Jun_12_1225,59.9512139634,MP-Perception Experiment,xx18w25,
464,vcgpdm_dyn(35)-lvm(20)_final(2).mov,False,left,2,training(12).mov,0,145,145,12,,,,,,,,13:07:10:256,13:07:10:978,13:07:13:981,left,13:07:14:298,,2018_Jun_12_1225,59.9512139634,MP-Perception Experiment,xx18w25,
465,training(11).mov,True,right,2,vgpdm_dyn(15)-lvm(30)_final(9).mov,0,146,146,62,,,,,,,,13:07:15:153,13:07:15:799,13:07:18:802,right,13:07:19:102,,2018_Jun_12_1225,59.9512139634,MP-Perception Experiment,xx18w25,
466,training(0).mov,False,right,2,vgpdm_dyn(10)-lvm(35)_final(4).mov,0,147,147,124,,,,,,,,13:07:20:063,13:07:20:603,13:07:23:606,right,13:07:23:722,,2018_Jun_12_1225,59.9512139634,MP-Perception Experiment,xx18w25,
467,training(41).mov,False,right,2,vgpdm_dyn(10)-lvm(30)_final(4).mov,0,148,148,51,,,,,,,,13:07:24:691,13:07:25:223,13:07:28:226,right,13:07:28:343,,2018_Jun_12_1225,59.9512139634,MP-Perception Experiment,xx18w25,
468,vgpdm_dyn(35)-lvm(10)_final(5).mov,False,left,2,training(34).mov,0,149,149,75,,,,,,,,13:07:29:129,13:07:29:845,13:07:32:847,right,13:07:33:064,,2018_Jun_12_1225,59.9512139634,MP-Perception Experiment,xx18w25,
469,vgpdm_dyn(10)-lvm(10)_final(4).mov,False,left,2,training(29).mov,0,150,150,115,,,,,,,,13:07:34:030,13:07:34:565,13:07:37:568,right,13:07:37:885,,2018_Jun_12_1225,59.9512139634,MP-Perception Experiment,xx18w25,
470,map_gpdm_final(7).mov,True,left,2,training(2).mov,0,151,151,49,,,,,,,,13:07:38:850,13:07:39:401,13:07:42:387,left,13:07:42:904,,2018_Jun_12_1225,59.9512139634,MP-Perception Experiment,xx18w25,
471,training(37).mov,True,right,2,vcgpdm_dyn(25)-lvm(10)_final(4).mov,0,152,152,23,,,,,,,,13:07:43:878,13:07:44:405,13:07:47:408,right,13:07:47:759,,2018_Jun_12_1225,59.9512139634,MP-Perception Experiment,xx18w25,
472,vcgpdm_dyn(30)-lvm(15)_final(5).mov,False,left,2,training(1).mov,0,153,153,9,,,,,,,,13:07:48:724,13:07:49:260,13:07:52:247,left,13:07:52:447,,2018_Jun_12_1225,59.9512139634,MP-Perception Experiment,xx18w25,
473,training(8).mov,False,right,2,vcgpdm_dyn(5)-lvm(25)_final(4).mov,0,154,154,68,,,,,,,,13:07:53:409,13:07:53:949,13:07:56:951,right,13:07:57:201,,2018_Jun_12_1225,59.9512139634,MP-Perception Experiment,xx18w25,
