trial_number,right,flipped,correct,block,left,trials.thisRepN,trials.thisTrialN,trials.thisN,trials.thisIndex,flipwelcome.keys,flipwelcome.corr,flipwelcome.rt,flippreparations.keys,flippreparations.rt,flipInstructions.keys,flipInstructions.rt,time_at_fixation_cross_onset,time_at_videoonset,time_at_videoend,participant_key_response,time_at_key_response,key_resp_4.keys,key_resp_4.rt,date,frameRate,expName,participant,
,,,,,,,,,,space,0,139.103224318,,,,,,,,,,,,2018_Jun_13_0942,59.9545514461,MP-Perception Experiment,xx19w24,
,,,,,,,,,,,,,space,13.3764967123,,,,,,,,,,2018_Jun_13_0942,59.9545514461,MP-Perception Experiment,xx19w24,
,,,,,,,,,,,,,,,space,9.00958811406,,,,,,,,2018_Jun_13_0942,59.9545514461,MP-Perception Experiment,xx19w24,
1,vcgpdm_dyn(25)-lvm(20)_final(5).mov,False,left,0,training(29).mov,0,0,0,105,,,,,,,,09:45:00:336,09:45:00:336,09:45:03:289,right,09:45:06:109,,,2018_Jun_13_0942,59.9545514461,MP-Perception Experiment,xx19w24,
2,training(24).mov,False,right,0,vgpdm_dyn(25)-lvm(5)_final(0).mov,0,1,1,102,,,,,,,,09:45:07:061,09:45:07:610,09:45:10:612,left,09:45:12:264,,,2018_Jun_13_0942,59.9545514461,MP-Perception Experiment,xx19w24,
3,training(6).mov,True,right,0,vcgpdm_dyn(20)-lvm(25)_final(0).mov,0,2,2,153,,,,,,,,09:45:13:037,09:45:13:765,09:45:16:767,right,09:45:17:935,,,2018_Jun_13_0942,59.9545514461,MP-Perception Experiment,xx19w24,
4,training(26).mov,True,right,0,vcgpdm_dyn(30)-lvm(30)_final(0).mov,0,3,3,99,,,,,,,,09:45:18:883,09:45:19:436,09:45:22:440,right,09:45:23:157,,,2018_Jun_13_0942,59.9545514461,MP-Perception Experiment,xx19w24,
5,vcgpdm_dyn(30)-lvm(15)_final(6).mov,True,left,0,training(20).mov,0,4,4,61,,,,,,,,09:45:24:115,09:45:24:658,09:45:27:660,right,09:45:29:612,,,2018_Jun_13_0942,59.9545514461,MP-Perception Experiment,xx19w24,
6,vgpdm_dyn(35)-lvm(35)_final(2).mov,True,left,0,training(10).mov,0,5,5,90,,,,,,,,09:45:30:387,09:45:31:113,09:45:34:116,left,09:45:34:616,,,2018_Jun_13_0942,59.9545514461,MP-Perception Experiment,xx19w24,
7,training(16).mov,True,right,0,vgpdm_dyn(10)-lvm(10)_final(9).mov,0,6,6,141,,,,,,,,09:45:35:397,09:45:36:117,09:45:39:118,right,09:45:41:321,,,2018_Jun_13_0942,59.9545514461,MP-Perception Experiment,xx19w24,
8,training(9).mov,False,right,0,vcgpdm_dyn(25)-lvm(35)_final(9).mov,0,7,7,89,,,,,,,,09:45:42:092,09:45:42:822,09:45:45:824,right,09:45:46:675,,,2018_Jun_13_0942,59.9545514461,MP-Perception Experiment,xx19w24,
9,training(3).mov,True,right,0,vcgpdm_dyn(30)-lvm(10)_final(1).mov,0,8,8,15,,,,,,,,09:45:47:448,09:45:48:176,09:45:51:164,left,09:45:51:964,,,2018_Jun_13_0942,59.9545514461,MP-Perception Experiment,xx19w24,
10,vcgpdm_dyn(15)-lvm(20)_final(3).mov,False,left,0,training(14).mov,0,9,9,119,,,,,,,,09:45:52:739,09:45:53:465,09:45:56:468,right,09:45:57:353,,,2018_Jun_13_0942,59.9545514461,MP-Perception Experiment,xx19w24,
11,vcgpdm_dyn(20)-lvm(20)_final(3).mov,True,left,0,training(48).mov,0,10,10,43,,,,,,,,09:45:58:308,09:45:58:854,09:46:01:857,right,09:46:03:425,,,2018_Jun_13_0942,59.9545514461,MP-Perception Experiment,xx19w24,
12,training(0).mov,True,right,0,vcgpdm_dyn(5)-lvm(15)_final(5).mov,0,11,11,76,,,,,,,,09:46:04:402,09:46:04:926,09:46:07:928,right,09:46:09:846,,,2018_Jun_13_0942,59.9545514461,MP-Perception Experiment,xx19w24,
13,training(3).mov,True,right,0,vcgpdm_dyn(20)-lvm(10)_final(6).mov,0,12,12,152,,,,,,,,09:46:10:628,09:46:11:348,09:46:14:351,right,09:46:14:918,,,2018_Jun_13_0942,59.9545514461,MP-Perception Experiment,xx19w24,
14,vcgpdm_dyn(10)-lvm(25)_final(4).mov,True,left,0,training(20).mov,0,13,13,59,,,,,,,,09:46:15:694,09:46:16:419,09:46:19:422,left,09:46:19:989,,,2018_Jun_13_0942,59.9545514461,MP-Perception Experiment,xx19w24,
15,training(1).mov,False,right,0,vgpdm_dyn(25)-lvm(20)_final(2).mov,0,14,14,0,,,,,,,,09:46:20:766,09:46:21:490,09:46:24:493,right,09:46:27:176,,,2018_Jun_13_0942,59.9545514461,MP-Perception Experiment,xx19w24,
16,vcgpdm_dyn(15)-lvm(20)_final(2).mov,True,left,0,training(18).mov,0,15,15,11,,,,,,,,09:46:27:941,09:46:28:677,09:46:31:680,right,09:46:32:231,,,2018_Jun_13_0942,59.9545514461,MP-Perception Experiment,xx19w24,
17,training(33).mov,True,right,0,vcgpdm_dyn(10)-lvm(30)_final(7).mov,0,16,16,36,,,,,,,,09:46:33:009,09:46:33:733,09:46:36:735,right,09:46:37:469,,,2018_Jun_13_0942,59.9545514461,MP-Perception Experiment,xx19w24,
18,training(33).mov,False,right,0,vcgpdm_dyn(35)-lvm(10)_final(5).mov,0,17,17,130,,,,,,,,09:46:38:229,09:46:38:972,09:46:41:974,right,09:46:43:009,,,2018_Jun_13_0942,59.9545514461,MP-Perception Experiment,xx19w24,
19,vgpdm_dyn(35)-lvm(10)_final(3).mov,False,left,0,training(15).mov,0,18,18,55,,,,,,,,09:46:43:754,09:46:44:526,09:46:47:512,right,09:46:48:563,,,2018_Jun_13_0942,59.9545514461,MP-Perception Experiment,xx19w24,
20,training(18).mov,True,right,0,vcgpdm_dyn(20)-lvm(15)_final(8).mov,0,19,19,34,,,,,,,,09:46:49:311,09:46:50:065,09:46:53:068,left,09:46:54:469,,,2018_Jun_13_0942,59.9545514461,MP-Perception Experiment,xx19w24,
21,vgpdm_dyn(20)-lvm(30)_final(7).mov,False,left,0,training(23).mov,0,20,20,39,,,,,,,,09:46:55:251,09:46:55:970,09:46:58:989,right,09:46:59:673,,,2018_Jun_13_0942,59.9545514461,MP-Perception Experiment,xx19w24,
22,training(9).mov,False,right,0,vcgpdm_dyn(25)-lvm(15)_final(8).mov,0,21,21,87,,,,,,,,09:47:00:441,09:47:01:191,09:47:04:177,right,09:47:04:577,,,2018_Jun_13_0942,59.9545514461,MP-Perception Experiment,xx19w24,
23,training(35).mov,False,right,0,vgpdm_dyn(5)-lvm(5)_final(2)_out_of_screen.mov,0,22,22,5,,,,,,,,09:47:05:380,09:47:06:078,09:47:09:082,right,09:47:09:782,,,2018_Jun_13_0942,59.9545514461,MP-Perception Experiment,xx19w24,
24,training(37).mov,True,right,0,vcgpdm_dyn(5)-lvm(10)_final(6).mov,0,23,23,2,,,,,,,,09:47:10:541,09:47:11:283,09:47:14:303,right,09:47:14:786,,,2018_Jun_13_0942,59.9545514461,MP-Perception Experiment,xx19w24,
25,training(18).mov,True,right,0,vcgpdm_dyn(15)-lvm(30)_final(6).mov,0,24,24,73,,,,,,,,09:47:15:535,09:47:16:304,09:47:19:288,right,09:47:19:688,,,2018_Jun_13_0942,59.9545514461,MP-Perception Experiment,xx19w24,
26,training(48).mov,True,right,0,vcgpdm_dyn(5)-lvm(25)_final(8).mov,0,25,25,83,,,,,,,,09:47:20:436,09:47:21:190,09:47:24:193,right,09:47:24:243,,,2018_Jun_13_0942,59.9545514461,MP-Perception Experiment,xx19w24,
27,training(24).mov,True,right,0,vcgpdm_dyn(10)-lvm(35)_final(6).mov,0,26,26,112,,,,,,,,09:47:25:012,09:47:25:744,09:47:28:749,right,09:47:29:266,,,2018_Jun_13_0942,59.9545514461,MP-Perception Experiment,xx19w24,
28,training(41).mov,True,right,0,vcgpdm_dyn(30)-lvm(35)_final(1).mov,0,27,27,127,,,,,,,,09:47:30:015,09:47:30:767,09:47:33:769,right,09:47:36:188,,,2018_Jun_13_0942,59.9545514461,MP-Perception Experiment,xx19w24,
29,vcgpdm_dyn(10)-lvm(10)_final(1).mov,True,left,0,training(20).mov,0,28,28,98,,,,,,,,09:47:36:962,09:47:37:689,09:47:40:691,right,09:47:41:943,,,2018_Jun_13_0942,59.9545514461,MP-Perception Experiment,xx19w24,
30,training(34).mov,True,right,0,vgpdm_dyn(20)-lvm(35)_final(0).mov,0,29,29,124,,,,,,,,09:47:42:753,09:47:43:461,09:47:46:447,left,09:47:48:182,,,2018_Jun_13_0942,59.9545514461,MP-Perception Experiment,xx19w24,
31,vgpdm_dyn(5)-lvm(15)_final(8).mov,True,left,0,training(37).mov,0,30,30,26,,,,,,,,09:47:48:928,09:47:49:683,09:47:52:685,left,09:47:53:169,,,2018_Jun_13_0942,59.9545514461,MP-Perception Experiment,xx19w24,
32,vcgpdm_dyn(20)-lvm(35)_final(9).mov,True,left,0,training(22).mov,0,31,31,137,,,,,,,,09:47:53:949,09:47:54:670,09:47:57:673,right,09:47:57:956,,,2018_Jun_13_0942,59.9545514461,MP-Perception Experiment,xx19w24,
33,training(13).mov,False,right,0,vgpdm_dyn(25)-lvm(25)_final(0)_bad.mov,0,32,32,69,,,,,,,,09:47:58:928,09:47:59:458,09:48:02:461,right,09:48:02:945,,,2018_Jun_13_0942,59.9545514461,MP-Perception Experiment,xx19w24,
34,vcgpdm_dyn(15)-lvm(25)_final(4).mov,False,left,0,training(21).mov,0,33,33,16,,,,,,,,09:48:03:727,09:48:04:446,09:48:07:446,right,09:48:08:597,,,2018_Jun_13_0942,59.9545514461,MP-Perception Experiment,xx19w24,
35,dmp_npsi(50)_final(8).mov,False,left,0,training(35).mov,0,34,34,78,,,,,,,,09:48:09:394,09:48:10:099,09:48:13:101,left,09:48:13:835,,,2018_Jun_13_0942,59.9545514461,MP-Perception Experiment,xx19w24,
36,vgpdm_dyn(15)-lvm(35)_final(2).mov,False,left,0,training(3).mov,0,35,35,74,,,,,,,,09:48:14:612,09:48:15:336,09:48:18:340,left,09:48:18:890,,,2018_Jun_13_0942,59.9545514461,MP-Perception Experiment,xx19w24,
37,tmp_numprim(3)_final(7).mov,True,left,0,training(32).mov,0,36,36,66,,,,,,,,09:48:19:680,09:48:20:391,09:48:23:379,left,09:48:23:979,,,2018_Jun_13_0942,59.9545514461,MP-Perception Experiment,xx19w24,
38,training(0).mov,False,right,0,vgpdm_dyn(15)-lvm(35)_final(1).mov,0,37,37,37,,,,,,,,09:48:24:743,09:48:25:481,09:48:28:483,right,09:48:28:900,,,2018_Jun_13_0942,59.9545514461,MP-Perception Experiment,xx19w24,
39,training(0).mov,False,right,0,vgpdm_dyn(35)-lvm(30)_final(4).mov,0,38,38,51,,,,,,,,09:48:29:649,09:48:30:418,09:48:33:404,right,09:48:33:787,,,2018_Jun_13_0942,59.9545514461,MP-Perception Experiment,xx19w24,
40,training(5).mov,True,right,0,map_gpdm_final(5).mov,0,39,39,14,,,,,,,,09:48:34:545,09:48:35:306,09:48:38:292,right,09:48:38:909,,,2018_Jun_13_0942,59.9545514461,MP-Perception Experiment,xx19w24,
41,training(13).mov,True,right,0,dmp_npsi(20)_final(6).mov,0,40,40,120,,,,,,,,09:48:39:674,09:48:40:410,09:48:43:413,right,09:48:44:063,,,2018_Jun_13_0942,59.9545514461,MP-Perception Experiment,xx19w24,
42,vgpdm_dyn(15)-lvm(15)_final(2).mov,False,left,0,training(12).mov,0,41,41,28,,,,,,,,09:48:44:841,09:48:45:564,09:48:48:584,right,09:48:49:484,,,2018_Jun_13_0942,59.9545514461,MP-Perception Experiment,xx19w24,
43,map_gpdm_final(7).mov,False,left,0,training(24).mov,0,42,42,46,,,,,,,,09:48:50:262,09:48:50:985,09:48:53:989,left,09:48:54:540,,,2018_Jun_13_0942,59.9545514461,MP-Perception Experiment,xx19w24,
44,training(25).mov,True,right,0,vgpdm_dyn(35)-lvm(10)_final(1).mov,0,43,43,63,,,,,,,,09:48:55:288,09:48:56:040,09:48:59:041,left,09:48:59:458,,,2018_Jun_13_0942,59.9545514461,MP-Perception Experiment,xx19w24,
45,vcgpdm_dyn(5)-lvm(5)_final(9).mov,True,left,0,training(41).mov,0,44,44,134,,,,,,,,09:49:00:226,09:49:00:959,09:49:03:962,left,09:49:04:429,,,2018_Jun_13_0942,59.9545514461,MP-Perception Experiment,xx19w24,
46,dmp_npsi(30)_final(6).mov,True,left,0,training(16).mov,0,45,45,10,,,,,,,,09:49:05:184,09:49:05:930,09:49:08:934,left,09:49:11:004,,,2018_Jun_13_0942,59.9545514461,MP-Perception Experiment,xx19w24,
47,training(27).mov,False,right,0,vcgpdm_dyn(35)-lvm(30)_final(6).mov,0,46,46,128,,,,,,,,09:49:11:765,09:49:12:505,09:49:15:524,right,09:49:16:358,,,2018_Jun_13_0942,59.9545514461,MP-Perception Experiment,xx19w24,
48,vgpdm_dyn(20)-lvm(20)_final(8).mov,False,left,0,training(38).mov,0,47,47,42,,,,,,,,09:49:17:140,09:49:17:859,09:49:20:862,right,09:49:22:480,,,2018_Jun_13_0942,59.9545514461,MP-Perception Experiment,xx19w24,
49,vgpdm_dyn(35)-lvm(35)_final(2).mov,False,left,0,training(41).mov,0,48,48,77,,,,,,,,09:49:23:207,09:49:23:981,09:49:27:001,right,09:49:28:285,,,2018_Jun_13_0942,59.9545514461,MP-Perception Experiment,xx19w24,
50,training(2).mov,True,right,0,vcgpdm_dyn(10)-lvm(20)_final(6).mov,0,49,49,111,,,,,,,,09:49:29:026,09:49:29:786,09:49:32:789,right,09:49:33:189,,,2018_Jun_13_0942,59.9545514461,MP-Perception Experiment,xx19w24,
51,vgpdm_dyn(25)-lvm(20)_final(1).mov,True,left,0,training(48).mov,0,50,50,32,,,,,,,,09:49:33:949,09:49:34:690,09:49:37:710,left,09:49:38:343,,,2018_Jun_13_0942,59.9545514461,MP-Perception Experiment,xx19w24,
52,tmp_numprim(9)_final(3).mov,False,left,0,training(41).mov,0,51,51,68,,,,,,,,09:49:39:121,09:49:39:844,09:49:42:864,right,09:49:44:449,,,2018_Jun_13_0942,59.9545514461,MP-Perception Experiment,xx19w24,
53,vcgpdm_dyn(10)-lvm(10)_final(7).mov,False,left,0,training(21).mov,0,52,52,158,,,,,,,,09:49:45:211,09:49:45:950,09:49:48:951,left,09:49:49:468,,,2018_Jun_13_0942,59.9545514461,MP-Perception Experiment,xx19w24,
54,training(24).mov,False,right,0,vgpdm_dyn(20)-lvm(25)_final(8).mov,0,53,53,118,,,,,,,,09:49:50:239,09:49:50:969,09:49:53:972,right,09:49:54:489,,,2018_Jun_13_0942,59.9545514461,MP-Perception Experiment,xx19w24,
55,training(3).mov,True,right,0,vgpdm_dyn(30)-lvm(30)_final(8).mov,0,54,54,1,,,,,,,,09:49:55:259,09:49:55:990,09:49:58:977,right,09:49:59:528,,,2018_Jun_13_0942,59.9545514461,MP-Perception Experiment,xx19w24,
56,vgpdm_dyn(15)-lvm(5)_final(9).mov,False,left,0,training(39).mov,0,55,55,151,,,,,,,,09:50:00:296,09:50:01:029,09:50:04:050,left,09:50:04:633,,,2018_Jun_13_0942,59.9545514461,MP-Perception Experiment,xx19w24,
57,training(27).mov,False,right,0,vcgpdm_dyn(20)-lvm(15)_final(0).mov,0,56,56,25,,,,,,,,09:50:05:432,09:50:06:151,09:50:09:137,right,09:50:10:071,,,2018_Jun_13_0942,59.9545514461,MP-Perception Experiment,xx19w24,
58,training(33).mov,False,right,0,vgpdm_dyn(25)-lvm(20)_final(2).mov,0,57,57,70,,,,,,,,09:50:10:875,09:50:11:572,09:50:14:591,right,09:50:15:242,,,2018_Jun_13_0942,59.9545514461,MP-Perception Experiment,xx19w24,
59,training(19).mov,True,right,0,vgpdm_dyn(20)-lvm(25)_final(9).mov,0,58,58,41,,,,,,,,09:50:16:063,09:50:16:743,09:50:19:747,right,09:50:21:665,,,2018_Jun_13_0942,59.9545514461,MP-Perception Experiment,xx19w24,
60,vcgpdm_dyn(5)-lvm(25)_final(4).mov,True,left,0,training(28).mov,0,59,59,4,,,,,,,,09:50:22:459,09:50:23:166,09:50:26:168,left,09:50:26:752,,,2018_Jun_13_0942,59.9545514461,MP-Perception Experiment,xx19w24,
61,training(13).mov,False,right,0,vcgpdm_dyn(15)-lvm(25)_final(2).mov,0,60,60,149,,,,,,,,09:50:27:522,09:50:28:253,09:50:31:272,right,09:50:31:956,,,2018_Jun_13_0942,59.9545514461,MP-Perception Experiment,xx19w24,
62,training(9).mov,False,right,0,vcgpdm_dyn(15)-lvm(5)_final(8).mov,0,61,61,154,,,,,,,,09:50:32:739,09:50:33:457,09:50:36:460,right,09:50:37:060,,,2018_Jun_13_0942,59.9545514461,MP-Perception Experiment,xx19w24,
63,training(15).mov,True,right,0,vgpdm_dyn(25)-lvm(20)_final(5).mov,0,62,62,40,,,,,,,,09:50:37:847,09:50:38:561,09:50:41:563,right,09:50:41:980,,,2018_Jun_13_0942,59.9545514461,MP-Perception Experiment,xx19w24,
64,training(25).mov,False,right,0,vgpdm_dyn(35)-lvm(20)_final(7)_out_of_screen.mov,0,63,63,75,,,,,,,,09:50:42:760,09:50:43:481,09:50:46:484,right,09:50:46:984,,,2018_Jun_13_0942,59.9545514461,MP-Perception Experiment,xx19w24,
65,training(8).mov,True,right,0,vgpdm_dyn(20)-lvm(15)_final(0).mov,0,64,64,135,,,,,,,,09:50:47:773,09:50:48:487,09:50:51:490,right,09:50:52:090,,,2018_Jun_13_0942,59.9545514461,MP-Perception Experiment,xx19w24,
66,training(4).mov,True,right,0,map_gpdm_final(4).mov,0,65,65,18,,,,,,,,09:50:52:871,09:50:53:591,09:50:56:612,right,09:50:57:029,,,2018_Jun_13_0942,59.9545514461,MP-Perception Experiment,xx19w24,
67,training(41).mov,False,right,0,vgpdm_dyn(20)-lvm(20)_final(0).mov,0,66,66,7,,,,,,,,09:50:57:817,09:50:58:530,09:51:01:549,left,09:51:02:433,,,2018_Jun_13_0942,59.9545514461,MP-Perception Experiment,xx19w24,
68,training(25).mov,False,right,0,vgpdm_dyn(20)-lvm(5)_final(9).mov,0,67,67,6,,,,,,,,09:51:03:213,09:51:03:934,09:51:06:953,right,09:51:07:504,,,2018_Jun_13_0942,59.9545514461,MP-Perception Experiment,xx19w24,
69,training(14).mov,False,right,0,vcgpdm_dyn(10)-lvm(10)_final(5).mov,0,68,68,45,,,,,,,,09:51:08:309,09:51:09:005,09:51:12:008,right,09:51:17:046,,,2018_Jun_13_0942,59.9545514461,MP-Perception Experiment,xx19w24,
70,training(0).mov,True,right,0,dmp_npsi(35)_final(9).mov,0,69,69,44,,,,,,,,09:51:17:830,09:51:18:547,09:51:21:566,left,09:51:22:534,,,2018_Jun_13_0942,59.9545514461,MP-Perception Experiment,xx19w24,
71,vgpdm_dyn(5)-lvm(30)_final(1).mov,False,left,0,training(29).mov,0,70,70,125,,,,,,,,09:51:23:317,09:51:24:035,09:51:27:035,left,09:51:27:686,,,2018_Jun_13_0942,59.9545514461,MP-Perception Experiment,xx19w24,
72,vcgpdm_dyn(35)-lvm(30)_final(8).mov,False,left,0,training(48).mov,0,71,71,101,,,,,,,,09:51:28:473,09:51:29:188,09:51:32:190,left,09:51:32:607,,,2018_Jun_13_0942,59.9545514461,MP-Perception Experiment,xx19w24,
73,training(29).mov,True,right,0,vcgpdm_dyn(10)-lvm(10)_final(6).mov,0,72,72,81,,,,,,,,09:51:33:390,09:51:34:109,09:51:37:111,left,09:51:37:528,,,2018_Jun_13_0942,59.9545514461,MP-Perception Experiment,xx19w24,
74,vgpdm_dyn(20)-lvm(5)_final(4).mov,False,left,0,training(14).mov,0,73,73,27,,,,,,,,09:51:38:315,09:51:39:031,09:51:42:050,left,09:51:42:684,,,2018_Jun_13_0942,59.9545514461,MP-Perception Experiment,xx19w24,
75,training(35).mov,True,right,0,vgpdm_dyn(35)-lvm(30)_final(3).mov,0,74,74,62,,,,,,,,09:51:43:470,09:51:44:185,09:51:47:205,left,09:51:47:789,,,2018_Jun_13_0942,59.9545514461,MP-Perception Experiment,xx19w24,
76,training(37).mov,True,right,0,vcgpdm_dyn(25)-lvm(25)_final(2).mov,0,75,75,131,,,,,,,,09:51:48:571,09:51:49:290,09:51:52:293,left,09:51:52:893,,,2018_Jun_13_0942,59.9545514461,MP-Perception Experiment,xx19w24,
77,map_gpdm_final(6).mov,True,left,0,training(40).mov,0,76,76,30,,,,,,,,09:51:53:680,09:51:54:394,09:51:57:414,left,09:51:58:097,,,2018_Jun_13_0942,59.9545514461,MP-Perception Experiment,xx19w24,
78,training(37).mov,False,right,0,vcgpdm_dyn(30)-lvm(20)_final(4).mov,0,77,77,65,,,,,,,,09:51:58:878,09:51:59:599,09:52:02:601,left,09:52:03:085,,,2018_Jun_13_0942,59.9545514461,MP-Perception Experiment,xx19w24,
79,vgpdm_dyn(25)-lvm(10)_final(1)_out_of_screen.mov,True,left,0,training(28).mov,0,78,78,49,,,,,,,,09:52:03:876,09:52:04:587,09:52:07:606,left,09:52:08:223,,,2018_Jun_13_0942,59.9545514461,MP-Perception Experiment,xx19w24,
80,tmp_numprim(6)_final(5).mov,False,left,0,training(9).mov,0,79,79,64,,,,,,,,09:52:09:028,09:52:09:724,09:52:12:727,right,09:52:14:228,,,2018_Jun_13_0942,59.9545514461,MP-Perception Experiment,xx19w24,
81,dmp_npsi(25)_final(0).mov,True,left,0,training(1).mov,0,80,80,109,,,,,,,,09:52:15:005,09:52:15:729,09:52:18:730,left,09:52:19:264,,,2018_Jun_13_0942,59.9545514461,MP-Perception Experiment,xx19w24,
82,dmp_npsi(50)_final(4).mov,True,left,0,training(11).mov,0,81,81,47,,,,,,,,09:52:20:052,09:52:20:765,09:52:23:768,right,09:52:24:753,,,2018_Jun_13_0942,59.9545514461,MP-Perception Experiment,xx19w24,
83,vgpdm_dyn(5)-lvm(15)_final(2).mov,True,left,0,training(4).mov,0,82,82,93,,,,,,,,09:52:25:541,09:52:26:254,09:52:29:258,left,09:52:29:825,,,2018_Jun_13_0942,59.9545514461,MP-Perception Experiment,xx19w24,
84,vcgpdm_dyn(30)-lvm(20)_final(4).mov,False,left,0,training(38).mov,0,83,83,121,,,,,,,,09:52:30:635,09:52:31:326,09:52:34:345,left,09:52:35:029,,,2018_Jun_13_0942,59.9545514461,MP-Perception Experiment,xx19w24,
85,vgpdm_dyn(5)-lvm(10)_final(0).mov,False,left,0,training(20).mov,0,84,84,53,,,,,,,,09:52:35:812,09:52:36:530,09:52:39:534,left,09:52:40:168,,,2018_Jun_13_0942,59.9545514461,MP-Perception Experiment,xx19w24,
86,tmp_numprim(8)_final(5).mov,False,left,0,training(38).mov,0,85,85,140,,,,,,,,09:52:40:983,09:52:41:669,09:52:44:671,right,09:52:45:322,,,2018_Jun_13_0942,59.9545514461,MP-Perception Experiment,xx19w24,
87,tmp_numprim(7)_final(4).mov,False,left,0,training(1).mov,0,86,86,157,,,,,,,,09:52:46:108,09:52:46:823,09:52:49:826,right,09:52:50:893,,,2018_Jun_13_0942,59.9545514461,MP-Perception Experiment,xx19w24,
88,vgpdm_dyn(30)-lvm(5)_final(8).mov,False,left,0,training(2).mov,0,87,87,129,,,,,,,,09:52:51:670,09:52:52:394,09:52:55:397,left,09:52:56:364,,,2018_Jun_13_0942,59.9545514461,MP-Perception Experiment,xx19w24,
89,training(29).mov,False,right,0,vgpdm_dyn(30)-lvm(5)_final(6).mov,0,88,88,12,,,,,,,,09:52:57:146,09:52:57:866,09:53:00:869,right,09:53:01:369,,,2018_Jun_13_0942,59.9545514461,MP-Perception Experiment,xx19w24,
90,vgpdm_dyn(10)-lvm(15)_final(9).mov,False,left,0,training(23).mov,0,89,89,136,,,,,,,,09:53:02:149,09:53:02:870,09:53:05:873,right,09:53:06:357,,,2018_Jun_13_0942,59.9545514461,MP-Perception Experiment,xx19w24,
91,vgpdm_dyn(30)-lvm(5)_final(1).mov,False,left,0,training(2).mov,0,90,90,123,,,,,,,,09:53:07:161,09:53:07:873,09:53:10:875,left,09:53:11:275,,,2018_Jun_13_0942,59.9545514461,MP-Perception Experiment,xx19w24,
92,vcgpdm_dyn(30)-lvm(10)_final(7).mov,False,left,0,training(30).mov,0,91,91,110,,,,,,,,09:53:12:079,09:53:12:776,09:53:15:780,left,09:53:16:130,,,2018_Jun_13_0942,59.9545514461,MP-Perception Experiment,xx19w24,
93,training(1).mov,False,right,0,vcgpdm_dyn(30)-lvm(15)_final(3).mov,0,92,92,108,,,,,,,,09:53:16:910,09:53:17:631,09:53:20:619,right,09:53:22:387,,,2018_Jun_13_0942,59.9545514461,MP-Perception Experiment,xx19w24,
94,training(15).mov,True,right,0,vcgpdm_dyn(30)-lvm(5)_final(3).mov,0,93,93,38,,,,,,,,09:53:23:174,09:53:23:888,09:53:26:891,right,09:53:27:425,,,2018_Jun_13_0942,59.9545514461,MP-Perception Experiment,xx19w24,
95,vcgpdm_dyn(25)-lvm(5)_final(0).mov,False,left,0,training(35).mov,0,94,94,145,,,,,,,,09:53:28:210,09:53:28:926,09:53:31:929,right,09:53:32:763,,,2018_Jun_13_0942,59.9545514461,MP-Perception Experiment,xx19w24,
96,training(12).mov,True,right,0,vgpdm_dyn(30)-lvm(15)_final(0).mov,0,95,95,35,,,,,,,,09:53:33:544,09:53:34:264,09:53:37:284,right,09:53:38:801,,,2018_Jun_13_0942,59.9545514461,MP-Perception Experiment,xx19w24,
97,vcgpdm_dyn(35)-lvm(25)_final(0).mov,False,left,0,training(36).mov,0,96,96,107,,,,,,,,09:53:39:772,09:53:40:302,09:53:43:305,left,09:53:44:022,,,2018_Jun_13_0942,59.9545514461,MP-Perception Experiment,xx19w24,
98,dmp_npsi(15)_final(9).mov,False,left,0,training(40).mov,0,97,97,58,,,,,,,,09:53:44:810,09:53:45:523,09:53:48:526,left,09:53:49:061,,,2018_Jun_13_0942,59.9545514461,MP-Perception Experiment,xx19w24,
99,vcgpdm_dyn(20)-lvm(20)_final(3).mov,True,left,0,training(0).mov,0,98,98,148,,,,,,,,09:53:49:840,09:53:50:562,09:53:53:564,right,09:53:54:131,,,2018_Jun_13_0942,59.9545514461,MP-Perception Experiment,xx19w24,
100,training(39).mov,True,right,0,vcgpdm_dyn(15)-lvm(30)_final(8).mov,0,99,99,143,,,,,,,,09:53:54:925,09:53:55:633,09:53:58:633,left,09:53:59:100,,,2018_Jun_13_0942,59.9545514461,MP-Perception Experiment,xx19w24,
101,vgpdm_dyn(5)-lvm(20)_final(4).mov,False,left,0,training(24).mov,0,100,100,156,,,,,,,,09:54:00:066,09:54:00:601,09:54:03:604,left,09:54:04:054,,,2018_Jun_13_0942,59.9545514461,MP-Perception Experiment,xx19w24,
102,vgpdm_dyn(5)-lvm(10)_final(2).mov,False,left,0,training(12).mov,0,101,101,126,,,,,,,,09:54:04:846,09:54:05:555,09:54:08:561,left,09:54:09:145,,,2018_Jun_13_0942,59.9545514461,MP-Perception Experiment,xx19w24,
103,vcgpdm_dyn(20)-lvm(30)_final(4).mov,False,left,0,training(13).mov,0,102,102,60,,,,,,,,09:54:09:929,09:54:10:646,09:54:13:648,left,09:54:14:516,,,2018_Jun_13_0942,59.9545514461,MP-Perception Experiment,xx19w24,
104,training(24).mov,True,right,0,vgpdm_dyn(5)-lvm(15)_final(0).mov,0,103,103,115,,,,,,,,09:54:15:320,09:54:16:017,09:54:19:036,right,09:54:19:686,,,2018_Jun_13_0942,59.9545514461,MP-Perception Experiment,xx19w24,
105,training(25).mov,True,right,0,vgpdm_dyn(20)-lvm(20)_final(5).mov,0,104,104,138,,,,,,,,09:54:20:672,09:54:21:188,09:54:24:208,right,09:54:24:808,,,2018_Jun_13_0942,59.9545514461,MP-Perception Experiment,xx19w24,
106,training(48).mov,True,right,0,vcgpdm_dyn(30)-lvm(30)_final(0).mov,0,105,105,20,,,,,,,,09:54:25:599,09:54:26:309,09:54:29:329,left,09:54:31:197,,,2018_Jun_13_0942,59.9545514461,MP-Perception Experiment,xx19w24,
107,vgpdm_dyn(35)-lvm(25)_final(2).mov,False,left,0,training(0).mov,0,106,106,67,,,,,,,,09:54:32:165,09:54:32:698,09:54:35:717,left,09:54:36:317,,,2018_Jun_13_0942,59.9545514461,MP-Perception Experiment,xx19w24,
108,tmp_numprim(8)_final(5).mov,False,left,0,training(10).mov,0,107,107,9,,,,,,,,09:54:37:103,09:54:37:819,09:54:40:821,left,09:54:41:973,,,2018_Jun_13_0942,59.9545514461,MP-Perception Experiment,xx19w24,
109,training(26).mov,False,right,0,vcgpdm_dyn(30)-lvm(5)_final(7).mov,0,108,108,22,,,,,,,,09:54:42:757,09:54:43:474,09:54:46:477,right,09:54:47:109,,,2018_Jun_13_0942,59.9545514461,MP-Perception Experiment,xx19w24,
110,training(15).mov,True,right,0,vcgpdm_dyn(20)-lvm(5)_final(7).mov,0,109,109,97,,,,,,,,09:54:47:892,09:54:48:610,09:54:51:612,right,09:54:51:963,,,2018_Jun_13_0942,59.9545514461,MP-Perception Experiment,xx19w24,
111,training(18).mov,False,right,0,vgpdm_dyn(30)-lvm(20)_final(9).mov,0,110,110,23,,,,,,,,09:54:52:742,09:54:53:464,09:54:56:466,left,09:54:57:050,,,2018_Jun_13_0942,59.9545514461,MP-Perception Experiment,xx19w24,
112,vcgpdm_dyn(20)-lvm(10)_final(5).mov,True,left,0,training(9).mov,0,111,111,80,,,,,,,,09:54:57:831,09:54:58:553,09:55:01:540,right,09:55:03:408,,,2018_Jun_13_0942,59.9545514461,MP-Perception Experiment,xx19w24,
113,vgpdm_dyn(5)-lvm(30)_final(9).mov,False,left,0,training(40).mov,0,112,112,84,,,,,,,,09:55:04:191,09:55:04:909,09:55:07:928,left,09:55:08:495,,,2018_Jun_13_0942,59.9545514461,MP-Perception Experiment,xx19w24,
114,training(3).mov,True,right,0,vgpdm_dyn(10)-lvm(25)_final(4).mov,0,113,113,139,,,,,,,,09:55:09:281,09:55:09:997,09:55:13:016,left,09:55:13:550,,,2018_Jun_13_0942,59.9545514461,MP-Perception Experiment,xx19w24,
115,training(4).mov,True,right,0,vcgpdm_dyn(30)-lvm(20)_final(9).mov,0,114,114,52,,,,,,,,09:55:14:331,09:55:15:051,09:55:18:071,right,09:55:18:738,,,2018_Jun_13_0942,59.9545514461,MP-Perception Experiment,xx19w24,
116,training(15).mov,True,right,0,dmp_npsi(35)_final(3).mov,0,115,115,19,,,,,,,,09:55:19:548,09:55:20:239,09:55:23:242,right,09:55:24:376,,,2018_Jun_13_0942,59.9545514461,MP-Perception Experiment,xx19w24,
117,vgpdm_dyn(30)-lvm(5)_final(8).mov,False,left,0,training(15).mov,0,116,116,103,,,,,,,,09:55:25:154,09:55:25:877,09:55:28:896,left,09:55:30:548,,,2018_Jun_13_0942,59.9545514461,MP-Perception Experiment,xx19w24,
118,training(8).mov,True,right,0,vcgpdm_dyn(20)-lvm(30)_final(4).mov,0,117,117,104,,,,,,,,09:55:31:501,09:55:32:049,09:55:35:052,right,09:55:35:619,,,2018_Jun_13_0942,59.9545514461,MP-Perception Experiment,xx19w24,
119,training(9).mov,True,right,0,tmp_numprim(5)_final(3).mov,0,118,118,33,,,,,,,,09:55:36:408,09:55:37:135,09:55:40:121,right,09:55:40:588,,,2018_Jun_13_0942,59.9545514461,MP-Perception Experiment,xx19w24,
120,training(25).mov,False,right,0,map_cgpdm_final(1).mov,0,119,119,17,,,,,,,,09:55:42:359,09:55:42:359,09:55:45:092,right,09:55:45:559,,,2018_Jun_13_0942,59.9545514461,MP-Perception Experiment,xx19w24,
121,training(13).mov,False,right,0,map_gpdm_final(2).mov,0,120,120,24,,,,,,,,09:55:46:337,09:55:47:060,09:55:50:048,right,09:55:50:465,,,2018_Jun_13_0942,59.9545514461,MP-Perception Experiment,xx19w24,
122,vgpdm_dyn(10)-lvm(30)_final(2).mov,False,left,0,training(25).mov,0,121,121,92,,,,,,,,09:55:51:426,09:55:51:967,09:55:54:986,left,09:55:55:586,,,2018_Jun_13_0942,59.9545514461,MP-Perception Experiment,xx19w24,
123,vcgpdm_dyn(15)-lvm(30)_final(5).mov,True,left,0,training(1).mov,0,122,122,116,,,,,,,,09:55:56:370,09:55:57:088,09:56:00:107,left,09:56:02:242,,,2018_Jun_13_0942,59.9545514461,MP-Perception Experiment,xx19w24,
124,dmp_npsi(25)_final(0).mov,True,left,0,training(5).mov,0,123,123,57,,,,,,,,09:56:03:023,09:56:03:743,09:56:06:762,left,09:56:07:463,,,2018_Jun_13_0942,59.9545514461,MP-Perception Experiment,xx19w24,
125,vgpdm_dyn(10)-lvm(20)_final(0).mov,False,left,0,training(25).mov,0,124,124,95,,,,,,,,09:56:08:241,09:56:08:965,09:56:11:984,left,09:56:12:718,,,2018_Jun_13_0942,59.9545514461,MP-Perception Experiment,xx19w24,
126,training(9).mov,True,right,0,vcgpdm_dyn(15)-lvm(5)_final(5).mov,0,125,125,150,,,,,,,,09:56:13:513,09:56:14:219,09:56:17:238,right,09:56:17:739,,,2018_Jun_13_0942,59.9545514461,MP-Perception Experiment,xx19w24,
127,vgpdm_dyn(25)-lvm(30)_final(8).mov,True,left,0,training(16).mov,0,126,126,91,,,,,,,,09:56:18:520,09:56:19:240,09:56:22:259,left,09:56:22:743,,,2018_Jun_13_0942,59.9545514461,MP-Perception Experiment,xx19w24,
128,vcgpdm_dyn(20)-lvm(30)_final(9).mov,True,left,0,training(36).mov,0,127,127,86,,,,,,,,09:56:23:552,09:56:24:244,09:56:27:246,left,09:56:27:763,,,2018_Jun_13_0942,59.9545514461,MP-Perception Experiment,xx19w24,
129,training(14).mov,True,right,0,vcgpdm_dyn(35)-lvm(20)_final(9).mov,0,128,128,96,,,,,,,,09:56:28:546,09:56:29:264,09:56:32:266,left,09:56:32:750,,,2018_Jun_13_0942,59.9545514461,MP-Perception Experiment,xx19w24,
130,training(23).mov,False,right,0,dmp_npsi(25)_final(7).mov,0,129,129,21,,,,,,,,09:56:33:723,09:56:34:251,09:56:37:254,right,09:56:37:687,,,2018_Jun_13_0942,59.9545514461,MP-Perception Experiment,xx19w24,
131,vgpdm_dyn(5)-lvm(35)_final(6)_bad.mov,True,left,0,training(36).mov,0,130,130,29,,,,,,,,09:56:38:472,09:56:39:188,09:56:42:193,left,09:56:42:726,,,2018_Jun_13_0942,59.9545514461,MP-Perception Experiment,xx19w24,
132,training(14).mov,True,right,0,vgpdm_dyn(30)-lvm(15)_final(0).mov,0,131,131,142,,,,,,,,09:56:43:507,09:56:44:229,09:56:47:231,right,09:56:48:098,,,2018_Jun_13_0942,59.9545514461,MP-Perception Experiment,xx19w24,
133,training(2).mov,False,right,0,vcgpdm_dyn(25)-lvm(15)_final(5).mov,0,132,132,144,,,,,,,,09:56:49:068,09:56:49:600,09:56:52:619,right,09:56:53:253,,,2018_Jun_13_0942,59.9545514461,MP-Perception Experiment,xx19w24,
134,tmp_numprim(7)_final(1).mov,True,left,0,training(17).mov,0,133,133,147,,,,,,,,09:56:54:045,09:56:54:754,09:56:57:773,right,09:56:58:423,,,2018_Jun_13_0942,59.9545514461,MP-Perception Experiment,xx19w24,
135,training(9).mov,False,right,0,vgpdm_dyn(15)-lvm(15)_final(8).mov,0,134,134,54,,,,,,,,09:56:59:210,09:56:59:925,09:57:02:928,right,09:57:03:495,,,2018_Jun_13_0942,59.9545514461,MP-Perception Experiment,xx19w24,
136,vcgpdm_dyn(25)-lvm(30)_final(4).mov,False,left,0,training(6).mov,0,135,135,50,,,,,,,,09:57:04:281,09:57:04:996,09:57:07:999,left,09:57:09:000,,,2018_Jun_13_0942,59.9545514461,MP-Perception Experiment,xx19w24,
137,vcgpdm_dyn(25)-lvm(25)_final(2).mov,False,left,0,training(27).mov,0,136,136,132,,,,,,,,09:57:09:783,09:57:10:501,09:57:13:503,right,09:57:14:971,,,2018_Jun_13_0942,59.9545514461,MP-Perception Experiment,xx19w24,
138,training(5).mov,False,right,0,vgpdm_dyn(30)-lvm(20)_final(3).mov,0,137,137,100,,,,,,,,09:57:15:926,09:57:16:472,09:57:19:474,right,09:57:19:841,,,2018_Jun_13_0942,59.9545514461,MP-Perception Experiment,xx19w24,
139,training(7).mov,True,right,0,vcgpdm_dyn(25)-lvm(10)_final(3).mov,0,138,138,155,,,,,,,,09:57:20:811,09:57:21:342,09:57:24:345,right,09:57:24:695,,,2018_Jun_13_0942,59.9545514461,MP-Perception Experiment,xx19w24,
140,training(4).mov,False,right,0,vcgpdm_dyn(5)-lvm(20)_final(3).mov,0,139,139,113,,,,,,,,09:57:25:692,09:57:26:196,09:57:29:184,right,09:57:29:634,,,2018_Jun_13_0942,59.9545514461,MP-Perception Experiment,xx19w24,
141,vcgpdm_dyn(10)-lvm(25)_final(7).mov,True,left,0,training(31).mov,0,140,140,13,,,,,,,,09:57:30:605,09:57:31:135,09:57:34:154,left,09:57:34:738,,,2018_Jun_13_0942,59.9545514461,MP-Perception Experiment,xx19w24,
142,training(7).mov,False,right,0,map_cgpdm_final(7).mov,0,141,141,88,,,,,,,,09:57:35:519,09:57:36:240,09:57:39:260,right,09:57:39:810,,,2018_Jun_13_0942,59.9545514461,MP-Perception Experiment,xx19w24,
143,vgpdm_dyn(5)-lvm(20)_final(2).mov,False,left,0,training(41).mov,0,142,142,72,,,,,,,,09:57:40:623,09:57:41:311,09:57:44:314,right,09:57:45:064,,,2018_Jun_13_0942,59.9545514461,MP-Perception Experiment,xx19w24,
144,training(13).mov,False,right,0,dmp_npsi(20)_final(1).mov,0,143,143,94,,,,,,,,09:57:45:847,09:57:46:565,09:57:49:584,right,09:57:50:068,,,2018_Jun_13_0942,59.9545514461,MP-Perception Experiment,xx19w24,
145,vgpdm_dyn(5)-lvm(25)_final(8)_out_of_screen.mov,False,left,0,training(4).mov,0,144,144,82,,,,,,,,09:57:50:853,09:57:51:569,09:57:54:590,left,09:57:55:006,,,2018_Jun_13_0942,59.9545514461,MP-Perception Experiment,xx19w24,
146,tmp_numprim(2)_final(6).mov,False,left,0,training(33).mov,0,145,145,48,,,,,,,,09:57:55:791,09:57:56:508,09:57:59:510,left,09:58:00:094,,,2018_Jun_13_0942,59.9545514461,MP-Perception Experiment,xx19w24,
147,training(39).mov,True,right,0,vgpdm_dyn(30)-lvm(25)_final(7).mov,0,146,146,56,,,,,,,,09:58:00:874,09:58:01:595,09:58:04:614,right,09:58:05:248,,,2018_Jun_13_0942,59.9545514461,MP-Perception Experiment,xx19w24,
148,training(6).mov,False,right,0,vgpdm_dyn(25)-lvm(35)_final(8).mov,0,147,147,3,,,,,,,,09:58:06:028,09:58:06:749,09:58:09:750,right,09:58:10:067,,,2018_Jun_13_0942,59.9545514461,MP-Perception Experiment,xx19w24,
149,training(0).mov,True,right,0,vcgpdm_dyn(5)-lvm(30)_final(2)_bad.mov,0,148,148,117,,,,,,,,09:58:11:034,09:58:11:569,09:58:14:571,right,09:58:15:005,,,2018_Jun_13_0942,59.9545514461,MP-Perception Experiment,xx19w24,
150,vgpdm_dyn(5)-lvm(20)_final(3).mov,True,left,0,training(16).mov,0,149,149,122,,,,,,,,09:58:15:965,09:58:16:506,09:58:19:494,left,09:58:19:961,,,2018_Jun_13_0942,59.9545514461,MP-Perception Experiment,xx19w24,
151,training(17).mov,False,right,0,map_cgpdm_final(8).mov,0,150,150,133,,,,,,,,09:58:20:938,09:58:21:462,09:58:24:465,right,09:58:25:165,,,2018_Jun_13_0942,59.9545514461,MP-Perception Experiment,xx19w24,
152,tmp_numprim(10)_final(9).mov,True,left,0,training(1).mov,0,151,151,31,,,,,,,,09:58:26:161,09:58:26:666,09:58:29:687,right,09:58:30:220,,,2018_Jun_13_0942,59.9545514461,MP-Perception Experiment,xx19w24,
153,training(35).mov,True,right,0,vcgpdm_dyn(30)-lvm(30)_final(7).mov,0,152,152,106,,,,,,,,09:58:31:012,09:58:31:721,09:58:34:724,right,09:58:35:174,,,2018_Jun_13_0942,59.9545514461,MP-Perception Experiment,xx19w24,
154,training(30).mov,False,right,0,vgpdm_dyn(20)-lvm(15)_final(7).mov,0,153,153,114,,,,,,,,09:58:35:968,09:58:36:675,09:58:39:678,right,09:58:40:228,,,2018_Jun_13_0942,59.9545514461,MP-Perception Experiment,xx19w24,
155,vcgpdm_dyn(35)-lvm(5)_final(2).mov,False,left,0,training(35).mov,0,154,154,79,,,,,,,,09:58:41:013,09:58:41:729,09:58:44:732,right,09:58:45:483,,,2018_Jun_13_0942,59.9545514461,MP-Perception Experiment,xx19w24,
156,training(25).mov,True,right,0,vgpdm_dyn(25)-lvm(35)_final(5).mov,0,155,155,146,,,,,,,,09:58:46:262,09:58:46:985,09:58:49:987,left,09:58:50:488,,,2018_Jun_13_0942,59.9545514461,MP-Perception Experiment,xx19w24,
157,training(12).mov,True,right,0,vcgpdm_dyn(25)-lvm(30)_final(3).mov,0,156,156,85,,,,,,,,09:58:51:270,09:58:51:989,09:58:54:991,left,09:58:55:909,,,2018_Jun_13_0942,59.9545514461,MP-Perception Experiment,xx19w24,
158,dmp_npsi(25)_final(3).mov,False,left,0,training(1).mov,0,157,157,71,,,,,,,,09:58:56:703,09:58:57:425,09:59:00:410,left,09:59:00:861,,,2018_Jun_13_0942,59.9545514461,MP-Perception Experiment,xx19w24,
159,vcgpdm_dyn(20)-lvm(5)_final(8).mov,True,left,0,training(6).mov,0,158,158,8,,,,,,,,09:59:01:647,09:59:02:362,09:59:05:365,left,09:59:05:732,,,2018_Jun_13_0942,59.9545514461,MP-Perception Experiment,xx19w24,
160,map_cgpdm_final(3).mov,False,left,1,training(48).mov,0,0,0,66,,,,,,,,10:04:01:812,10:04:02:539,10:04:05:525,left,10:04:06:325,,,2018_Jun_13_0942,59.9545514461,MP-Perception Experiment,xx19w24,
161,vcgpdm_dyn(20)-lvm(20)_final(7).mov,False,left,1,training(21).mov,0,1,1,12,,,,,,,,10:04:07:105,10:04:07:827,10:04:10:814,right,10:04:11:231,,,2018_Jun_13_0942,59.9545514461,MP-Perception Experiment,xx19w24,
162,training(35).mov,True,right,1,vgpdm_dyn(30)-lvm(35)_final(2).mov,0,2,2,118,,,,,,,,10:04:12:010,10:04:12:732,10:04:15:752,left,10:04:16:219,,,2018_Jun_13_0942,59.9545514461,MP-Perception Experiment,xx19w24,
163,training(19).mov,True,right,1,vcgpdm_dyn(10)-lvm(5)_final(7).mov,0,3,3,7,,,,,,,,10:04:17:017,10:04:17:720,10:04:20:740,right,10:04:21:090,,,2018_Jun_13_0942,59.9545514461,MP-Perception Experiment,xx19w24,
164,vgpdm_dyn(35)-lvm(25)_final(1).mov,False,left,1,training(15).mov,0,4,4,27,,,,,,,,10:04:21:897,10:04:22:591,10:04:25:594,left,10:04:25:977,,,2018_Jun_13_0942,59.9545514461,MP-Perception Experiment,xx19w24,
165,vgpdm_dyn(35)-lvm(5)_final(5).mov,True,left,1,training(48).mov,0,5,5,99,,,,,,,,10:04:26:760,10:04:27:478,10:04:30:481,left,10:04:31:815,,,2018_Jun_13_0942,59.9545514461,MP-Perception Experiment,xx19w24,
166,vcgpdm_dyn(35)-lvm(5)_final(0).mov,False,left,1,training(2).mov,0,6,6,158,,,,,,,,10:04:32:754,10:04:33:317,10:04:36:320,right,10:04:36:770,,,2018_Jun_13_0942,59.9545514461,MP-Perception Experiment,xx19w24,
167,dmp_npsi(15)_final(6).mov,False,left,1,training(25).mov,0,7,7,60,,,,,,,,10:04:37:560,10:04:38:272,10:04:41:291,left,10:04:41:708,,,2018_Jun_13_0942,59.9545514461,MP-Perception Experiment,xx19w24,
168,training(37).mov,True,right,1,vcgpdm_dyn(25)-lvm(10)_final(0).mov,0,8,8,94,,,,,,,,10:04:42:485,10:04:43:209,10:04:46:228,right,10:04:46:828,,,2018_Jun_13_0942,59.9545514461,MP-Perception Experiment,xx19w24,
169,training(10).mov,True,right,1,vgpdm_dyn(15)-lvm(5)_final(4).mov,0,9,9,16,,,,,,,,10:04:47:612,10:04:48:345,10:04:51:330,right,10:04:51:731,,,2018_Jun_13_0942,59.9545514461,MP-Perception Experiment,xx19w24,
170,map_cgpdm_final(5).mov,True,left,1,training(17).mov,0,10,10,23,,,,,,,,10:04:52:685,10:04:53:233,10:04:56:235,left,10:04:56:619,,,2018_Jun_13_0942,59.9545514461,MP-Perception Experiment,xx19w24,
171,vgpdm_dyn(15)-lvm(20)_final(9)_out_of_screen.mov,True,left,1,training(5).mov,0,11,11,67,,,,,,,,10:04:57:584,10:04:58:120,10:05:01:125,left,10:05:01:558,,,2018_Jun_13_0942,59.9545514461,MP-Perception Experiment,xx19w24,
172,vcgpdm_dyn(25)-lvm(25)_final(1).mov,False,left,1,training(26).mov,0,12,12,19,,,,,,,,10:05:02:345,10:05:03:059,10:05:06:079,right,10:05:06:445,,,2018_Jun_13_0942,59.9545514461,MP-Perception Experiment,xx19w24,
173,vcgpdm_dyn(20)-lvm(15)_final(0).mov,False,left,1,training(19).mov,0,13,13,105,,,,,,,,10:05:07:220,10:05:07:946,10:05:10:950,right,10:05:11:367,,,2018_Jun_13_0942,59.9545514461,MP-Perception Experiment,xx19w24,
174,vcgpdm_dyn(30)-lvm(25)_final(9).mov,False,left,1,training(21).mov,0,14,14,84,,,,,,,,10:05:12:320,10:05:12:868,10:05:15:887,left,10:05:16:238,,,2018_Jun_13_0942,59.9545514461,MP-Perception Experiment,xx19w24,
175,vgpdm_dyn(5)-lvm(30)_final(1).mov,False,left,1,training(8).mov,0,15,15,15,,,,,,,,10:05:17:022,10:05:17:739,10:05:20:741,left,10:05:21:108,,,2018_Jun_13_0942,59.9545514461,MP-Perception Experiment,xx19w24,
176,training(9).mov,True,right,1,vgpdm_dyn(20)-lvm(30)_final(8).mov,0,16,16,3,,,,,,,,10:05:22:103,10:05:22:609,10:05:25:612,left,10:05:26:179,,,2018_Jun_13_0942,59.9545514461,MP-Perception Experiment,xx19w24,
177,training(10).mov,False,right,1,vgpdm_dyn(15)-lvm(5)_final(8).mov,0,17,17,115,,,,,,,,10:05:26:954,10:05:27:680,10:05:30:684,right,10:05:32:418,,,2018_Jun_13_0942,59.9545514461,MP-Perception Experiment,xx19w24,
178,training(48).mov,False,right,1,tmp_numprim(9)_final(4).mov,0,18,18,63,,,,,,,,10:05:33:385,10:05:33:919,10:05:36:939,right,10:05:39:656,,,2018_Jun_13_0942,59.9545514461,MP-Perception Experiment,xx19w24,
179,training(29).mov,False,right,1,vcgpdm_dyn(10)-lvm(30)_final(8).mov,0,19,19,78,,,,,,,,10:05:40:445,10:05:41:157,10:05:44:159,right,10:05:44:710,,,2018_Jun_13_0942,59.9545514461,MP-Perception Experiment,xx19w24,
180,vgpdm_dyn(5)-lvm(20)_final(8).mov,False,left,1,training(27).mov,0,20,20,148,,,,,,,,10:05:45:489,10:05:46:212,10:05:49:200,right,10:05:50:167,,,2018_Jun_13_0942,59.9545514461,MP-Perception Experiment,xx19w24,
181,vcgpdm_dyn(5)-lvm(20)_final(1).mov,True,left,1,training(15).mov,0,21,21,113,,,,,,,,10:05:50:953,10:05:51:668,10:05:54:671,left,10:05:55:521,,,2018_Jun_13_0942,59.9545514461,MP-Perception Experiment,xx19w24,
182,vcgpdm_dyn(30)-lvm(25)_final(0).mov,False,left,1,training(14).mov,0,22,22,55,,,,,,,,10:05:56:307,10:05:57:022,10:06:00:025,left,10:06:00:625,,,2018_Jun_13_0942,59.9545514461,MP-Perception Experiment,xx19w24,
183,training(2).mov,True,right,1,vgpdm_dyn(20)-lvm(35)_final(5).mov,0,23,23,43,,,,,,,,10:06:01:414,10:06:02:127,10:06:05:130,right,10:06:05:631,,,2018_Jun_13_0942,59.9545514461,MP-Perception Experiment,xx19w24,
184,vcgpdm_dyn(10)-lvm(35)_final(8).mov,False,left,1,training(25).mov,0,24,24,73,,,,,,,,10:06:06:415,10:06:07:132,10:06:10:134,left,10:06:12:236,,,2018_Jun_13_0942,59.9545514461,MP-Perception Experiment,xx19w24,
185,training(10).mov,True,right,1,vgpdm_dyn(30)-lvm(25)_final(0).mov,0,25,25,136,,,,,,,,10:06:13:018,10:06:13:737,10:06:16:756,right,10:06:17:257,,,2018_Jun_13_0942,59.9545514461,MP-Perception Experiment,xx19w24,
186,training(15).mov,True,right,1,vcgpdm_dyn(5)-lvm(10)_final(5).mov,0,26,26,46,,,,,,,,10:06:18:053,10:06:18:758,10:06:21:761,right,10:06:22:395,,,2018_Jun_13_0942,59.9545514461,MP-Perception Experiment,xx19w24,
187,training(27).mov,False,right,1,vgpdm_dyn(5)-lvm(10)_final(9).mov,0,27,27,131,,,,,,,,10:06:23:202,10:06:23:896,10:06:26:915,right,10:06:27:516,,,2018_Jun_13_0942,59.9545514461,MP-Perception Experiment,xx19w24,
188,training(25).mov,True,right,1,vgpdm_dyn(30)-lvm(30)_final(2).mov,0,28,28,6,,,,,,,,10:06:28:320,10:06:29:032,10:06:32:034,right,10:06:32:501,,,2018_Jun_13_0942,59.9545514461,MP-Perception Experiment,xx19w24,
189,training(32).mov,False,right,1,dmp_npsi(40)_final(8).mov,0,29,29,26,,,,,,,,10:06:33:468,10:06:34:003,10:06:37:005,right,10:06:37:656,,,2018_Jun_13_0942,59.9545514461,MP-Perception Experiment,xx19w24,
190,training(0).mov,False,right,1,vcgpdm_dyn(10)-lvm(30)_final(0).mov,0,30,30,129,,,,,,,,10:06:38:623,10:06:39:159,10:06:42:162,right,10:06:45:998,,,2018_Jun_13_0942,59.9545514461,MP-Perception Experiment,xx19w24,
191,training(30).mov,True,right,1,vcgpdm_dyn(15)-lvm(10)_final(1).mov,0,31,31,88,,,,,,,,10:06:46:783,10:06:47:500,10:06:50:502,right,10:06:52:287,,,2018_Jun_13_0942,59.9545514461,MP-Perception Experiment,xx19w24,
192,vcgpdm_dyn(20)-lvm(25)_final(6).mov,False,left,1,training(48).mov,0,32,32,114,,,,,,,,10:06:53:073,10:06:53:788,10:06:56:792,left,10:06:58:109,,,2018_Jun_13_0942,59.9545514461,MP-Perception Experiment,xx19w24,
193,training(35).mov,False,right,1,dmp_npsi(45)_final(9).mov,0,33,33,132,,,,,,,,10:06:58:896,10:06:59:610,10:07:02:630,right,10:07:03:030,,,2018_Jun_13_0942,59.9545514461,MP-Perception Experiment,xx19w24,
194,vcgpdm_dyn(35)-lvm(10)_final(0).mov,True,left,1,training(6).mov,0,34,34,107,,,,,,,,10:07:03:823,10:07:04:531,10:07:07:534,left,10:07:10:419,,,2018_Jun_13_0942,59.9545514461,MP-Perception Experiment,xx19w24,
195,training(4).mov,True,right,1,vgpdm_dyn(25)-lvm(5)_final(3).mov,0,35,35,117,,,,,,,,10:07:11:381,10:07:11:920,10:07:14:924,right,10:07:16:408,,,2018_Jun_13_0942,59.9545514461,MP-Perception Experiment,xx19w24,
196,training(14).mov,False,right,1,vgpdm_dyn(15)-lvm(25)_final(0).mov,0,36,36,104,,,,,,,,10:07:17:198,10:07:17:924,10:07:20:910,right,10:07:21:811,,,2018_Jun_13_0942,59.9545514461,MP-Perception Experiment,xx19w24,
197,training(27).mov,True,right,1,vgpdm_dyn(30)-lvm(25)_final(9).mov,0,37,37,28,,,,,,,,10:07:22:598,10:07:23:312,10:07:26:314,right,10:07:27:048,,,2018_Jun_13_0942,59.9545514461,MP-Perception Experiment,xx19w24,
198,vcgpdm_dyn(10)-lvm(15)_final(0).mov,False,left,1,training(37).mov,0,38,38,71,,,,,,,,10:07:27:857,10:07:28:550,10:07:31:538,right,10:07:32:422,,,2018_Jun_13_0942,59.9545514461,MP-Perception Experiment,xx19w24,
199,training(6).mov,False,right,1,vcgpdm_dyn(15)-lvm(20)_final(7).mov,0,39,39,80,,,,,,,,10:07:33:206,10:07:33:923,10:07:36:943,right,10:07:37:977,,,2018_Jun_13_0942,59.9545514461,MP-Perception Experiment,xx19w24,
200,training(33).mov,True,right,1,vcgpdm_dyn(20)-lvm(30)_final(9).mov,0,40,40,106,,,,,,,,10:07:38:783,10:07:39:478,10:07:42:497,right,10:07:42:931,,,2018_Jun_13_0942,59.9545514461,MP-Perception Experiment,xx19w24,
201,training(28).mov,False,right,1,vcgpdm_dyn(10)-lvm(30)_final(9).mov,0,41,41,126,,,,,,,,10:07:43:725,10:07:44:432,10:07:47:434,right,10:07:47:918,,,2018_Jun_13_0942,59.9545514461,MP-Perception Experiment,xx19w24,
202,training(18).mov,True,right,1,vcgpdm_dyn(15)-lvm(35)_final(7).mov,0,42,42,135,,,,,,,,10:07:48:704,10:07:49:420,10:07:52:423,right,10:07:54:074,,,2018_Jun_13_0942,59.9545514461,MP-Perception Experiment,xx19w24,
203,training(13).mov,False,right,1,tmp_numprim(4)_final(1).mov,0,43,43,54,,,,,,,,10:07:54:853,10:07:55:575,10:07:58:578,right,10:07:59:045,,,2018_Jun_13_0942,59.9545514461,MP-Perception Experiment,xx19w24,
204,training(34).mov,False,right,1,vcgpdm_dyn(20)-lvm(15)_final(2).mov,0,44,44,144,,,,,,,,10:07:59:832,10:08:00:546,10:08:03:548,right,10:08:03:982,,,2018_Jun_13_0942,59.9545514461,MP-Perception Experiment,xx19w24,
205,vcgpdm_dyn(20)-lvm(35)_final(3).mov,True,left,1,training(32).mov,0,45,45,1,,,,,,,,10:08:04:766,10:08:05:483,10:08:08:485,right,10:08:10:236,,,2018_Jun_13_0942,59.9545514461,MP-Perception Experiment,xx19w24,
206,dmp_npsi(30)_final(9).mov,True,left,1,training(1).mov,0,46,46,77,,,,,,,,10:08:11:190,10:08:11:737,10:08:14:740,left,10:08:15:240,,,2018_Jun_13_0942,59.9545514461,MP-Perception Experiment,xx19w24,
207,training(1).mov,True,right,1,vcgpdm_dyn(30)-lvm(15)_final(2).mov,0,47,47,125,,,,,,,,10:08:16:023,10:08:16:741,10:08:19:729,right,10:08:20:179,,,2018_Jun_13_0942,59.9545514461,MP-Perception Experiment,xx19w24,
208,vcgpdm_dyn(35)-lvm(20)_final(2).mov,False,left,1,training(40).mov,0,48,48,40,,,,,,,,10:08:21:136,10:08:21:681,10:08:24:684,right,10:08:25:251,,,2018_Jun_13_0942,59.9545514461,MP-Perception Experiment,xx19w24,
209,vgpdm_dyn(5)-lvm(15)_final(1).mov,False,left,1,training(12).mov,0,49,49,156,,,,,,,,10:08:26:043,10:08:26:752,10:08:29:772,left,10:08:30:255,,,2018_Jun_13_0942,59.9545514461,MP-Perception Experiment,xx19w24,
210,vgpdm_dyn(35)-lvm(5)_final(8).mov,True,left,1,training(32).mov,0,50,50,128,,,,,,,,10:08:31:054,10:08:31:756,10:08:34:759,right,10:08:35:326,,,2018_Jun_13_0942,59.9545514461,MP-Perception Experiment,xx19w24,
211,training(31).mov,False,right,1,vcgpdm_dyn(15)-lvm(35)_final(5).mov,0,51,51,38,,,,,,,,10:08:36:107,10:08:36:827,10:08:39:846,right,10:08:40:565,,,2018_Jun_13_0942,59.9545514461,MP-Perception Experiment,xx19w24,
212,training(22).mov,True,right,1,tmp_numprim(8)_final(9).mov,0,52,52,134,,,,,,,,10:08:42:486,10:08:42:486,10:08:45:068,left,10:08:48:271,,,2018_Jun_13_0942,59.9545514461,MP-Perception Experiment,xx19w24,
213,vcgpdm_dyn(15)-lvm(35)_final(9).mov,True,left,1,training(40).mov,0,53,53,36,,,,,,,,10:08:49:146,10:08:49:772,10:08:52:791,left,10:08:53:542,,,2018_Jun_13_0942,59.9545514461,MP-Perception Experiment,xx19w24,
214,vgpdm_dyn(15)-lvm(5)_final(0).mov,True,left,1,training(11).mov,0,54,54,24,,,,,,,,10:08:54:318,10:08:55:043,10:08:58:045,right,10:08:59:162,,,2018_Jun_13_0942,59.9545514461,MP-Perception Experiment,xx19w24,
215,dmp_npsi(35)_final(9).mov,True,left,1,training(17).mov,0,55,55,96,,,,,,,,10:08:59:935,10:09:00:663,10:09:03:666,right,10:09:04:049,,,2018_Jun_13_0942,59.9545514461,MP-Perception Experiment,xx19w24,
216,training(3).mov,False,right,1,dmp_npsi(5)_final(4)_bad.mov,0,56,56,37,,,,,,,,10:09:04:828,10:09:05:551,10:09:08:553,right,10:09:09:472,,,2018_Jun_13_0942,59.9545514461,MP-Perception Experiment,xx19w24,
217,tmp_numprim(2)_final(9).mov,False,left,1,training(28).mov,0,57,57,79,,,,,,,,10:09:10:255,10:09:10:973,10:09:13:993,left,10:09:15:862,,,2018_Jun_13_0942,59.9545514461,MP-Perception Experiment,xx19w24,
218,training(48).mov,False,right,1,dmp_npsi(50)_final(8).mov,0,58,58,74,,,,,,,,10:09:16:641,10:09:17:363,10:09:20:382,right,10:09:23:051,,,2018_Jun_13_0942,59.9545514461,MP-Perception Experiment,xx19w24,
219,vcgpdm_dyn(25)-lvm(15)_final(3).mov,False,left,1,training(38).mov,0,59,59,61,,,,,,,,10:09:24:005,10:09:24:552,10:09:27:571,right,10:09:28:155,,,2018_Jun_13_0942,59.9545514461,MP-Perception Experiment,xx19w24,
220,training(25).mov,False,right,1,map_cgpdm_final(6).mov,0,60,60,17,,,,,,,,10:09:28:940,10:09:29:656,10:09:32:675,right,10:09:33:143,,,2018_Jun_13_0942,59.9545514461,MP-Perception Experiment,xx19w24,
221,vgpdm_dyn(15)-lvm(15)_final(5).mov,True,left,1,training(40).mov,0,61,61,102,,,,,,,,10:09:33:955,10:09:34:644,10:09:37:647,left,10:09:37:997,,,2018_Jun_13_0942,59.9545514461,MP-Perception Experiment,xx19w24,
222,vcgpdm_dyn(25)-lvm(15)_final(1).mov,True,left,1,training(19).mov,0,62,62,116,,,,,,,,10:09:38:783,10:09:39:498,10:09:42:518,right,10:09:42:968,,,2018_Jun_13_0942,59.9545514461,MP-Perception Experiment,xx19w24,
223,training(5).mov,False,right,1,vcgpdm_dyn(25)-lvm(35)_final(2).mov,0,63,63,150,,,,,,,,10:09:43:752,10:09:44:469,10:09:47:472,right,10:09:48:204,,,2018_Jun_13_0942,59.9545514461,MP-Perception Experiment,xx19w24,
224,training(37).mov,False,right,1,vcgpdm_dyn(15)-lvm(15)_final(0).mov,0,64,64,90,,,,,,,,10:09:48:986,10:09:49:705,10:09:52:708,right,10:09:53:059,,,2018_Jun_13_0942,59.9545514461,MP-Perception Experiment,xx19w24,
225,training(40).mov,False,right,1,dmp_npsi(20)_final(8).mov,0,65,65,35,,,,,,,,10:09:54:027,10:09:54:560,10:09:57:562,right,10:09:58:013,,,2018_Jun_13_0942,59.9545514461,MP-Perception Experiment,xx19w24,
226,vgpdm_dyn(30)-lvm(30)_final(5).mov,True,left,1,training(22).mov,0,66,66,101,,,,,,,,10:09:58:824,10:09:59:515,10:10:02:501,right,10:10:03:269,,,2018_Jun_13_0942,59.9545514461,MP-Perception Experiment,xx19w24,
227,dmp_npsi(10)_final(9)_bad.mov,True,left,1,training(0).mov,0,67,67,86,,,,,,,,10:10:04:056,10:10:04:770,10:10:07:772,left,10:10:08:357,,,2018_Jun_13_0942,59.9545514461,MP-Perception Experiment,xx19w24,
228,training(2).mov,True,right,1,vcgpdm_dyn(25)-lvm(35)_final(2).mov,0,68,68,2,,,,,,,,10:10:09:135,10:10:09:858,10:10:12:861,left,10:10:13:545,,,2018_Jun_13_0942,59.9545514461,MP-Perception Experiment,xx19w24,
229,vcgpdm_dyn(25)-lvm(25)_final(3).mov,True,left,1,training(20).mov,0,69,69,58,,,,,,,,10:10:14:504,10:10:15:046,10:10:18:048,left,10:10:18:549,,,2018_Jun_13_0942,59.9545514461,MP-Perception Experiment,xx19w24,
230,training(21).mov,True,right,1,vcgpdm_dyn(20)-lvm(10)_final(6).mov,0,70,70,57,,,,,,,,10:10:19:332,10:10:20:050,10:10:23:069,left,10:10:23:636,,,2018_Jun_13_0942,59.9545514461,MP-Perception Experiment,xx19w24,
231,training(14).mov,True,right,1,vgpdm_dyn(10)-lvm(5)_final(3).mov,0,71,71,47,,,,,,,,10:10:24:602,10:10:25:137,10:10:28:157,right,10:10:28:758,,,2018_Jun_13_0942,59.9545514461,MP-Perception Experiment,xx19w24,
232,dmp_npsi(30)_final(6).mov,True,left,1,training(13).mov,0,72,72,83,,,,,,,,10:10:29:717,10:10:30:259,10:10:33:278,left,10:10:35:113,,,2018_Jun_13_0942,59.9545514461,MP-Perception Experiment,xx19w24,
233,vcgpdm_dyn(10)-lvm(15)_final(2).mov,True,left,1,training(32).mov,0,73,73,9,,,,,,,,10:10:35:892,10:10:36:614,10:10:39:615,left,10:10:40:149,,,2018_Jun_13_0942,59.9545514461,MP-Perception Experiment,xx19w24,
234,vcgpdm_dyn(15)-lvm(25)_final(8).mov,True,left,1,training(16).mov,0,74,74,41,,,,,,,,10:10:40:930,10:10:41:650,10:10:44:653,left,10:10:45:120,,,2018_Jun_13_0942,59.9545514461,MP-Perception Experiment,xx19w24,
235,vcgpdm_dyn(15)-lvm(10)_final(0).mov,False,left,1,training(25).mov,0,75,75,10,,,,,,,,10:10:45:902,10:10:46:621,10:10:49:609,left,10:10:50:076,,,2018_Jun_13_0942,59.9545514461,MP-Perception Experiment,xx19w24,
236,vcgpdm_dyn(25)-lvm(10)_final(2).mov,True,left,1,training(19).mov,0,76,76,109,,,,,,,,10:10:51:042,10:10:51:577,10:10:54:580,left,10:10:55:180,,,2018_Jun_13_0942,59.9545514461,MP-Perception Experiment,xx19w24,
237,vcgpdm_dyn(5)-lvm(15)_final(1).mov,True,left,1,training(9).mov,0,77,77,8,,,,,,,,10:10:55:969,10:10:56:681,10:10:59:684,left,10:11:00:318,,,2018_Jun_13_0942,59.9545514461,MP-Perception Experiment,xx19w24,
238,training(36).mov,True,right,1,vcgpdm_dyn(20)-lvm(10)_final(9).mov,0,78,78,108,,,,,,,,10:11:01:283,10:11:01:820,10:11:04:822,right,10:11:05:356,,,2018_Jun_13_0942,59.9545514461,MP-Perception Experiment,xx19w24,
239,vgpdm_dyn(25)-lvm(5)_final(6).mov,True,left,1,training(40).mov,0,79,79,157,,,,,,,,10:11:06:135,10:11:06:857,10:11:09:876,left,10:11:10:410,,,2018_Jun_13_0942,59.9545514461,MP-Perception Experiment,xx19w24,
240,vcgpdm_dyn(10)-lvm(10)_final(0).mov,True,left,1,training(13).mov,0,80,80,145,,,,,,,,10:11:11:207,10:11:11:911,10:11:14:931,left,10:11:15:347,,,2018_Jun_13_0942,59.9545514461,MP-Perception Experiment,xx19w24,
241,dmp_npsi(20)_final(8).mov,False,left,1,training(11).mov,0,81,81,13,,,,,,,,10:11:16:129,10:11:16:849,10:11:19:869,left,10:11:20:369,,,2018_Jun_13_0942,59.9545514461,MP-Perception Experiment,xx19w24,
242,training(26).mov,True,right,1,tmp_numprim(5)_final(2).mov,0,82,82,143,,,,,,,,10:11:21:334,10:11:21:870,10:11:24:873,right,10:11:25:340,,,2018_Jun_13_0942,59.9545514461,MP-Perception Experiment,xx19w24,
243,training(3).mov,True,right,1,vcgpdm_dyn(5)-lvm(5)_final(8).mov,0,83,83,64,,,,,,,,10:11:26:127,10:11:26:841,10:11:29:842,right,10:11:30:309,,,2018_Jun_13_0942,59.9545514461,MP-Perception Experiment,xx19w24,
244,training(23).mov,False,right,1,vgpdm_dyn(20)-lvm(15)_final(7).mov,0,84,84,51,,,,,,,,10:11:31:282,10:11:31:810,10:11:34:812,right,10:11:35:113,,,2018_Jun_13_0942,59.9545514461,MP-Perception Experiment,xx19w24,
245,training(5).mov,False,right,1,vcgpdm_dyn(25)-lvm(5)_final(7).mov,0,85,85,76,,,,,,,,10:11:35:895,10:11:36:615,10:11:39:602,right,10:11:40:053,,,2018_Jun_13_0942,59.9545514461,MP-Perception Experiment,xx19w24,
246,vcgpdm_dyn(15)-lvm(20)_final(4).mov,False,left,1,training(36).mov,0,86,86,154,,,,,,,,10:11:41:038,10:11:41:554,10:11:44:573,right,10:11:45:174,,,2018_Jun_13_0942,59.9545514461,MP-Perception Experiment,xx19w24,
247,vcgpdm_dyn(5)-lvm(10)_final(4).mov,True,left,1,training(10).mov,0,87,87,133,,,,,,,,10:11:45:965,10:11:46:675,10:11:49:694,right,10:11:52:529,,,2018_Jun_13_0942,59.9545514461,MP-Perception Experiment,xx19w24,
248,training(40).mov,False,right,1,vgpdm_dyn(35)-lvm(5)_final(8).mov,0,88,88,72,,,,,,,,10:11:53:471,10:11:54:032,10:11:57:051,right,10:11:58:402,,,2018_Jun_13_0942,59.9545514461,MP-Perception Experiment,xx19w24,
249,vgpdm_dyn(10)-lvm(25)_final(2).mov,False,left,1,training(27).mov,0,89,89,137,,,,,,,,10:11:59:189,10:11:59:903,10:12:02:906,right,10:12:03:506,,,2018_Jun_13_0942,59.9545514461,MP-Perception Experiment,xx19w24,
250,vcgpdm_dyn(5)-lvm(25)_final(9).mov,True,left,1,training(8).mov,0,90,90,42,,,,,,,,10:12:04:294,10:12:05:007,10:12:08:026,left,10:12:08:610,,,2018_Jun_13_0942,59.9545514461,MP-Perception Experiment,xx19w24,
251,training(9).mov,True,right,1,vcgpdm_dyn(15)-lvm(25)_final(3).mov,0,91,91,59,,,,,,,,10:12:09:396,10:12:10:111,10:12:13:131,right,10:12:13:515,,,2018_Jun_13_0942,59.9545514461,MP-Perception Experiment,xx19w24,
252,training(21).mov,True,right,1,vgpdm_dyn(5)-lvm(10)_final(5).mov,0,92,92,98,,,,,,,,10:12:14:301,10:12:15:016,10:12:18:017,right,10:12:18:717,,,2018_Jun_13_0942,59.9545514461,MP-Perception Experiment,xx19w24,
253,training(31).mov,True,right,1,vcgpdm_dyn(35)-lvm(15)_final(2)_out_of_screen.mov,0,93,93,91,,,,,,,,10:12:19:503,10:12:20:219,10:12:23:221,right,10:12:23:555,,,2018_Jun_13_0942,59.9545514461,MP-Perception Experiment,xx19w24,
254,vcgpdm_dyn(30)-lvm(20)_final(4).mov,True,left,1,training(17).mov,0,94,94,110,,,,,,,,10:12:24:511,10:12:25:073,10:12:28:059,left,10:12:28:460,,,2018_Jun_13_0942,59.9545514461,MP-Perception Experiment,xx19w24,
255,vcgpdm_dyn(35)-lvm(30)_final(3).mov,False,left,1,training(27).mov,0,95,95,65,,,,,,,,10:12:29:418,10:12:29:963,10:12:32:965,left,10:12:33:415,,,2018_Jun_13_0942,59.9545514461,MP-Perception Experiment,xx19w24,
256,vgpdm_dyn(10)-lvm(35)_final(8).mov,False,left,1,training(35).mov,0,96,96,14,,,,,,,,10:12:34:209,10:12:34:917,10:12:37:936,left,10:12:38:536,,,2018_Jun_13_0942,59.9545514461,MP-Perception Experiment,xx19w24,
257,vgpdm_dyn(15)-lvm(25)_final(8).mov,False,left,1,training(29).mov,0,97,97,21,,,,,,,,10:12:39:326,10:12:40:037,10:12:43:040,left,10:12:43:724,,,2018_Jun_13_0942,59.9545514461,MP-Perception Experiment,xx19w24,
258,training(21).mov,True,right,1,vcgpdm_dyn(30)-lvm(5)_final(9).mov,0,98,98,147,,,,,,,,10:12:44:534,10:12:45:225,10:12:48:245,right,10:12:49:780,,,2018_Jun_13_0942,59.9545514461,MP-Perception Experiment,xx19w24,
259,training(21).mov,False,right,1,vgpdm_dyn(30)-lvm(10)_final(3).mov,0,99,99,100,,,,,,,,10:12:50:578,10:12:51:281,10:12:54:283,right,10:12:54:917,,,2018_Jun_13_0942,59.9545514461,MP-Perception Experiment,xx19w24,
260,vgpdm_dyn(35)-lvm(30)_final(2).mov,True,left,1,training(25).mov,0,100,100,30,,,,,,,,10:12:55:701,10:12:56:418,10:12:59:438,right,10:12:59:955,,,2018_Jun_13_0942,59.9545514461,MP-Perception Experiment,xx19w24,
261,vcgpdm_dyn(25)-lvm(15)_final(2).mov,False,left,1,training(22).mov,0,101,101,18,,,,,,,,10:13:00:734,10:13:01:456,10:13:04:476,right,10:13:05:143,,,2018_Jun_13_0942,59.9545514461,MP-Perception Experiment,xx19w24,
262,training(7).mov,True,right,1,vcgpdm_dyn(35)-lvm(25)_final(3).mov,0,102,102,85,,,,,,,,10:13:05:931,10:13:06:644,10:13:09:645,right,10:13:10:029,,,2018_Jun_13_0942,59.9545514461,MP-Perception Experiment,xx19w24,
263,vcgpdm_dyn(25)-lvm(5)_final(2).mov,True,left,1,training(3).mov,0,103,103,53,,,,,,,,10:13:10:815,10:13:11:530,10:13:14:532,left,10:13:14:816,,,2018_Jun_13_0942,59.9545514461,MP-Perception Experiment,xx19w24,
264,training(41).mov,True,right,1,vgpdm_dyn(10)-lvm(15)_final(7).mov,0,104,104,130,,,,,,,,10:13:15:599,10:13:16:317,10:13:19:319,left,10:13:19:937,,,2018_Jun_13_0942,59.9545514461,MP-Perception Experiment,xx19w24,
265,training(12).mov,False,right,1,vgpdm_dyn(30)-lvm(35)_final(7).mov,0,105,105,4,,,,,,,,10:13:20:909,10:13:21:439,10:13:24:443,left,10:13:24:860,,,2018_Jun_13_0942,59.9545514461,MP-Perception Experiment,xx19w24,
266,vcgpdm_dyn(30)-lvm(35)_final(9).mov,False,left,1,training(22).mov,0,106,106,52,,,,,,,,10:13:25:643,10:13:26:361,10:13:29:380,left,10:13:31:215,,,2018_Jun_13_0942,59.9545514461,MP-Perception Experiment,xx19w24,
267,dmp_npsi(15)_final(9).mov,True,left,1,training(39).mov,0,107,107,75,,,,,,,,10:13:31:994,10:13:32:716,10:13:35:719,left,10:13:36:953,,,2018_Jun_13_0942,59.9545514461,MP-Perception Experiment,xx19w24,
268,training(37).mov,True,right,1,vgpdm_dyn(25)-lvm(20)_final(6).mov,0,108,108,44,,,,,,,,10:13:37:737,10:13:38:455,10:13:41:458,right,10:13:43:292,,,2018_Jun_13_0942,59.9545514461,MP-Perception Experiment,xx19w24,
269,vgpdm_dyn(20)-lvm(20)_final(3).mov,True,left,1,training(1).mov,0,109,109,146,,,,,,,,10:13:44:077,10:13:44:794,10:13:47:796,left,10:13:48:263,,,2018_Jun_13_0942,59.9545514461,MP-Perception Experiment,xx19w24,
270,vgpdm_dyn(20)-lvm(25)_final(7).mov,False,left,1,training(9).mov,0,110,110,50,,,,,,,,10:13:49:094,10:13:49:764,10:13:52:767,left,10:13:53:317,,,2018_Jun_13_0942,59.9545514461,MP-Perception Experiment,xx19w24,
271,training(34).mov,True,right,1,vgpdm_dyn(35)-lvm(30)_final(9).mov,0,111,111,123,,,,,,,,10:13:54:110,10:13:54:818,10:13:57:839,left,10:13:58:437,,,2018_Jun_13_0942,59.9545514461,MP-Perception Experiment,xx19w24,
272,training(31).mov,False,right,1,vcgpdm_dyn(30)-lvm(25)_final(3).mov,0,112,112,103,,,,,,,,10:13:59:223,10:13:59:938,10:14:02:941,right,10:14:03:525,,,2018_Jun_13_0942,59.9545514461,MP-Perception Experiment,xx19w24,
273,training(21).mov,True,right,1,vcgpdm_dyn(15)-lvm(25)_final(1).mov,0,113,113,29,,,,,,,,10:14:04:485,10:14:05:026,10:14:08:028,right,10:14:08:479,,,2018_Jun_13_0942,59.9545514461,MP-Perception Experiment,xx19w24,
274,tmp_numprim(7)_final(6).mov,True,left,1,training(6).mov,0,114,114,20,,,,,,,,10:14:09:263,10:14:09:982,10:14:12:969,left,10:14:13:519,,,2018_Jun_13_0942,59.9545514461,MP-Perception Experiment,xx19w24,
275,vgpdm_dyn(20)-lvm(5)_final(0).mov,False,left,1,training(26).mov,0,115,115,11,,,,,,,,10:14:14:314,10:14:15:020,10:14:18:039,left,10:14:18:606,,,2018_Jun_13_0942,59.9545514461,MP-Perception Experiment,xx19w24,
276,training(18).mov,True,right,1,vgpdm_dyn(10)-lvm(20)_final(0).mov,0,116,116,97,,,,,,,,10:14:19:385,10:14:20:107,10:14:23:127,right,10:14:23:727,,,2018_Jun_13_0942,59.9545514461,MP-Perception Experiment,xx19w24,
277,training(38).mov,True,right,1,vgpdm_dyn(10)-lvm(5)_final(6).mov,0,117,117,49,,,,,,,,10:14:24:501,10:14:25:228,10:14:28:248,right,10:14:28:798,,,2018_Jun_13_0942,59.9545514461,MP-Perception Experiment,xx19w24,
278,training(21).mov,True,right,1,vcgpdm_dyn(25)-lvm(10)_final(0).mov,0,118,118,127,,,,,,,,10:14:29:579,10:14:30:300,10:14:33:303,right,10:14:34:053,,,2018_Jun_13_0942,59.9545514461,MP-Perception Experiment,xx19w24,
279,training(13).mov,False,right,1,vgpdm_dyn(10)-lvm(20)_final(2).mov,0,119,119,62,,,,,,,,10:14:34:833,10:14:35:554,10:14:38:574,right,10:14:40:408,,,2018_Jun_13_0942,59.9545514461,MP-Perception Experiment,xx19w24,
280,vcgpdm_dyn(35)-lvm(20)_final(7).mov,True,left,1,training(40).mov,0,120,120,22,,,,,,,,10:14:42:380,10:14:42:380,10:14:44:912,left,10:14:45:529,,,2018_Jun_13_0942,59.9545514461,MP-Perception Experiment,xx19w24,
281,vgpdm_dyn(10)-lvm(15)_final(9).mov,False,left,1,training(30).mov,0,121,121,141,,,,,,,,10:14:46:322,10:14:47:030,10:14:50:032,right,10:14:50:699,,,2018_Jun_13_0942,59.9545514461,MP-Perception Experiment,xx19w24,
282,training(23).mov,True,right,1,vgpdm_dyn(10)-lvm(30)_final(5).mov,0,122,122,87,,,,,,,,10:14:51:691,10:14:52:200,10:14:55:203,right,10:14:55:653,,,2018_Jun_13_0942,59.9545514461,MP-Perception Experiment,xx19w24,
283,vcgpdm_dyn(10)-lvm(35)_final(6).mov,True,left,1,training(14).mov,0,123,123,140,,,,,,,,10:14:56:472,10:14:57:154,10:15:00:159,left,10:15:00:609,,,2018_Jun_13_0942,59.9545514461,MP-Perception Experiment,xx19w24,
284,training(19).mov,True,right,1,dmp_npsi(50)_final(5).mov,0,124,124,149,,,,,,,,10:15:01:581,10:15:02:110,10:15:05:130,right,10:15:06:148,,,2018_Jun_13_0942,59.9545514461,MP-Perception Experiment,xx19w24,
285,training(22).mov,False,right,1,vcgpdm_dyn(35)-lvm(25)_final(8).mov,0,125,125,138,,,,,,,,10:15:06:941,10:15:07:649,10:15:10:651,right,10:15:11:068,,,2018_Jun_13_0942,59.9545514461,MP-Perception Experiment,xx19w24,
286,training(10).mov,True,right,1,tmp_numprim(3)_final(6).mov,0,126,126,33,,,,,,,,10:15:11:853,10:15:12:569,10:15:15:572,right,10:15:16:172,,,2018_Jun_13_0942,59.9545514461,MP-Perception Experiment,xx19w24,
287,training(15).mov,True,right,1,tmp_numprim(10)_final(3).mov,0,127,127,45,,,,,,,,10:15:16:954,10:15:17:674,10:15:20:693,right,10:15:21:260,,,2018_Jun_13_0942,59.9545514461,MP-Perception Experiment,xx19w24,
288,dmp_npsi(15)_final(4).mov,False,left,1,training(14).mov,0,128,128,119,,,,,,,,10:15:22:041,10:15:22:762,10:15:25:781,left,10:15:26:165,,,2018_Jun_13_0942,59.9545514461,MP-Perception Experiment,xx19w24,
289,training(17).mov,True,right,1,vgpdm_dyn(20)-lvm(30)_final(8).mov,0,129,129,34,,,,,,,,10:15:26:949,10:15:27:666,10:15:30:685,right,10:15:31:085,,,2018_Jun_13_0942,59.9545514461,MP-Perception Experiment,xx19w24,
290,training(32).mov,True,right,1,vcgpdm_dyn(10)-lvm(35)_final(3).mov,0,130,130,56,,,,,,,,10:15:32:062,10:15:32:587,10:15:35:606,right,10:15:35:989,,,2018_Jun_13_0942,59.9545514461,MP-Perception Experiment,xx19w24,
291,vgpdm_dyn(15)-lvm(30)_final(4).mov,True,left,1,training(20).mov,0,131,131,31,,,,,,,,10:15:36:776,10:15:37:491,10:15:40:492,left,10:15:40:943,,,2018_Jun_13_0942,59.9545514461,MP-Perception Experiment,xx19w24,
292,tmp_numprim(2)_final(9).mov,True,left,1,training(3).mov,0,132,132,152,,,,,,,,10:15:42:166,10:15:42:677,10:15:45:446,left,10:15:45:797,,,2018_Jun_13_0942,59.9545514461,MP-Perception Experiment,xx19w24,
293,tmp_numprim(2)_final(9).mov,False,left,1,training(32).mov,0,133,133,142,,,,,,,,10:15:46:572,10:15:47:298,10:15:50:302,left,10:15:50:702,,,2018_Jun_13_0942,59.9545514461,MP-Perception Experiment,xx19w24,
294,training(7).mov,True,right,1,tmp_numprim(10)_final(6).mov,0,134,134,139,,,,,,,,10:15:51:485,10:15:52:203,10:15:55:206,left,10:15:55:773,,,2018_Jun_13_0942,59.9545514461,MP-Perception Experiment,xx19w24,
295,vcgpdm_dyn(30)-lvm(5)_final(1).mov,False,left,1,training(0).mov,0,135,135,111,,,,,,,,10:15:56:574,10:15:57:274,10:16:00:295,left,10:16:00:928,,,2018_Jun_13_0942,59.9545514461,MP-Perception Experiment,xx19w24,
296,vgpdm_dyn(10)-lvm(10)_final(5).mov,False,left,1,training(2).mov,0,136,136,95,,,,,,,,10:16:01:721,10:16:02:429,10:16:05:432,right,10:16:05:899,,,2018_Jun_13_0942,59.9545514461,MP-Perception Experiment,xx19w24,
297,tmp_numprim(3)_final(3).mov,False,left,1,training(4).mov,0,137,137,25,,,,,,,,10:16:06:683,10:16:07:400,10:16:10:419,right,10:16:11:403,,,2018_Jun_13_0942,59.9545514461,MP-Perception Experiment,xx19w24,
298,training(31).mov,True,right,1,vcgpdm_dyn(20)-lvm(35)_final(2).mov,0,138,138,120,,,,,,,,10:16:12:191,10:16:12:905,10:16:15:925,right,10:16:16:292,,,2018_Jun_13_0942,59.9545514461,MP-Perception Experiment,xx19w24,
299,dmp_npsi(35)_final(3).mov,True,left,1,training(27).mov,0,139,139,48,,,,,,,,10:16:17:073,10:16:17:793,10:16:20:795,right,10:16:21:463,,,2018_Jun_13_0942,59.9545514461,MP-Perception Experiment,xx19w24,
300,vgpdm_dyn(10)-lvm(30)_final(2).mov,True,left,1,training(3).mov,0,140,140,155,,,,,,,,10:16:22:240,10:16:22:964,10:16:25:983,left,10:16:26:583,,,2018_Jun_13_0942,59.9545514461,MP-Perception Experiment,xx19w24,
301,tmp_numprim(4)_final(3).mov,False,left,1,training(34).mov,0,141,141,0,,,,,,,,10:16:27:365,10:16:28:099,10:16:31:085,left,10:16:31:452,,,2018_Jun_13_0942,59.9545514461,MP-Perception Experiment,xx19w24,
302,training(32).mov,True,right,1,tmp_numprim(5)_final(1).mov,0,142,142,5,,,,,,,,10:16:32:238,10:16:32:954,10:16:35:957,right,10:16:36:307,,,2018_Jun_13_0942,59.9545514461,MP-Perception Experiment,xx19w24,
303,training(7).mov,True,right,1,vgpdm_dyn(35)-lvm(25)_final(2).mov,0,143,143,70,,,,,,,,10:16:37:086,10:16:37:808,10:16:40:813,right,10:16:41:230,,,2018_Jun_13_0942,59.9545514461,MP-Perception Experiment,xx19w24,
304,tmp_numprim(6)_final(3).mov,False,left,1,training(15).mov,0,144,144,93,,,,,,,,10:16:42:256,10:16:42:764,10:16:45:733,right,10:16:46:267,,,2018_Jun_13_0942,59.9545514461,MP-Perception Experiment,xx19w24,
305,vgpdm_dyn(25)-lvm(30)_final(8).mov,True,left,1,training(37).mov,0,145,145,124,,,,,,,,10:16:47:051,10:16:47:768,10:16:50:772,left,10:16:51:205,,,2018_Jun_13_0942,59.9545514461,MP-Perception Experiment,xx19w24,
306,training(40).mov,True,right,1,vgpdm_dyn(15)-lvm(35)_final(3).mov,0,146,146,112,,,,,,,,10:16:51:987,10:16:52:706,10:16:55:726,right,10:16:56:159,,,2018_Jun_13_0942,59.9545514461,MP-Perception Experiment,xx19w24,
307,vgpdm_dyn(30)-lvm(15)_final(0).mov,False,left,1,training(40).mov,0,147,147,151,,,,,,,,10:16:56:943,10:16:57:660,10:17:00:680,left,10:17:02:831,,,2018_Jun_13_0942,59.9545514461,MP-Perception Experiment,xx19w24,
308,training(18).mov,True,right,1,vcgpdm_dyn(35)-lvm(20)_final(2).mov,0,148,148,69,,,,,,,,10:17:03:604,10:17:04:332,10:17:07:335,right,10:17:08:120,,,2018_Jun_13_0942,59.9545514461,MP-Perception Experiment,xx19w24,
309,vcgpdm_dyn(20)-lvm(25)_final(6).mov,False,left,1,training(35).mov,0,149,149,39,,,,,,,,10:17:08:898,10:17:09:621,10:17:12:624,right,10:17:13:324,,,2018_Jun_13_0942,59.9545514461,MP-Perception Experiment,xx19w24,
310,vgpdm_dyn(10)-lvm(10)_final(6).mov,True,left,1,training(8).mov,0,150,150,121,,,,,,,,10:17:14:123,10:17:14:825,10:17:17:828,left,10:17:18:276,,,2018_Jun_13_0942,59.9545514461,MP-Perception Experiment,xx19w24,
311,training(9).mov,True,right,1,vcgpdm_dyn(20)-lvm(30)_final(6).mov,0,151,151,122,,,,,,,,10:17:19:063,10:17:19:777,10:17:22:780,right,10:17:23:114,,,2018_Jun_13_0942,59.9545514461,MP-Perception Experiment,xx19w24,
312,training(29).mov,False,right,1,tmp_numprim(7)_final(9).mov,0,152,152,89,,,,,,,,10:17:23:900,10:17:24:615,10:17:27:618,right,10:17:29:420,,,2018_Jun_13_0942,59.9545514461,MP-Perception Experiment,xx19w24,
313,training(15).mov,True,right,1,vgpdm_dyn(15)-lvm(30)_final(9).mov,0,153,153,153,,,,,,,,10:17:30:387,10:17:30:922,10:17:33:942,right,10:17:34:626,,,2018_Jun_13_0942,59.9545514461,MP-Perception Experiment,xx19w24,
314,training(32).mov,False,right,1,vgpdm_dyn(30)-lvm(35)_final(1).mov,0,154,154,81,,,,,,,,10:17:35:404,10:17:36:127,10:17:39:129,left,10:17:40:080,,,2018_Jun_13_0942,59.9545514461,MP-Perception Experiment,xx19w24,
315,training(36).mov,True,right,1,dmp_npsi(25)_final(0).mov,0,155,155,82,,,,,,,,10:17:40:831,10:17:41:581,10:17:44:601,right,10:17:45:285,,,2018_Jun_13_0942,59.9545514461,MP-Perception Experiment,xx19w24,
316,vcgpdm_dyn(15)-lvm(15)_final(6).mov,False,left,1,training(6).mov,0,156,156,32,,,,,,,,10:17:46:076,10:17:46:786,10:17:49:789,left,10:17:50:556,,,2018_Jun_13_0942,59.9545514461,MP-Perception Experiment,xx19w24,
317,training(21).mov,True,right,1,dmp_npsi(45)_final(7).mov,0,157,157,92,,,,,,,,10:17:51:334,10:17:52:057,10:17:55:060,right,10:17:55:577,,,2018_Jun_13_0942,59.9545514461,MP-Perception Experiment,xx19w24,
318,training(24).mov,False,right,1,vcgpdm_dyn(15)-lvm(10)_final(2).mov,0,158,158,68,,,,,,,,10:17:56:358,10:17:57:078,10:18:00:098,right,10:18:00:832,,,2018_Jun_13_0942,59.9545514461,MP-Perception Experiment,xx19w24,
319,vcgpdm_dyn(20)-lvm(5)_final(1).mov,True,left,2,training(5).mov,0,0,0,61,,,,,,,,10:20:57:876,10:20:58:402,10:21:01:405,left,10:21:02:389,,,2018_Jun_13_0942,59.9545514461,MP-Perception Experiment,xx19w24,
320,training(41).mov,True,right,2,vgpdm_dyn(10)-lvm(20)_final(0).mov,0,1,1,33,,,,,,,,10:21:03:164,10:21:03:890,10:21:06:892,right,10:21:07:359,,,2018_Jun_13_0942,59.9545514461,MP-Perception Experiment,xx19w24,
321,vgpdm_dyn(5)-lvm(20)_final(2).mov,True,left,2,training(18).mov,0,2,2,48,,,,,,,,10:21:08:146,10:21:08:860,10:21:11:880,left,10:21:12:464,,,2018_Jun_13_0942,59.9545514461,MP-Perception Experiment,xx19w24,
322,training(38).mov,False,right,2,vcgpdm_dyn(25)-lvm(5)_final(0).mov,0,3,3,154,,,,,,,,10:21:13:434,10:21:13:966,10:21:16:968,right,10:21:18:002,,,2018_Jun_13_0942,59.9545514461,MP-Perception Experiment,xx19w24,
323,vcgpdm_dyn(10)-lvm(5)_final(8).mov,False,left,2,training(33).mov,0,4,4,89,,,,,,,,10:21:18:785,10:21:19:503,10:21:22:506,right,10:21:23:006,,,2018_Jun_13_0942,59.9545514461,MP-Perception Experiment,xx19w24,
324,vgpdm_dyn(10)-lvm(35)_final(4).mov,False,left,2,training(23).mov,0,5,5,125,,,,,,,,10:21:23:788,10:21:24:507,10:21:27:527,left,10:21:28:010,,,2018_Jun_13_0942,59.9545514461,MP-Perception Experiment,xx19w24,
325,map_gpdm_final(1).mov,True,left,2,training(19).mov,0,6,6,46,,,,,,,,10:21:28:809,10:21:29:526,10:21:32:530,left,10:21:32:897,,,2018_Jun_13_0942,59.9545514461,MP-Perception Experiment,xx19w24,
326,vcgpdm_dyn(25)-lvm(20)_final(6).mov,True,left,2,training(30).mov,0,7,7,140,,,,,,,,10:21:33:862,10:21:34:398,10:21:37:400,left,10:21:37:717,,,2018_Jun_13_0942,59.9545514461,MP-Perception Experiment,xx19w24,
327,tmp_numprim(2)_final(7).mov,False,left,2,training(2).mov,0,8,8,20,,,,,,,,10:21:38:686,10:21:39:218,10:21:42:223,left,10:21:42:723,,,2018_Jun_13_0942,59.9545514461,MP-Perception Experiment,xx19w24,
328,training(16).mov,True,right,2,map_cgpdm_final(0).mov,0,9,9,73,,,,,,,,10:21:43:511,10:21:44:224,10:21:47:227,right,10:21:47:962,,,2018_Jun_13_0942,59.9545514461,MP-Perception Experiment,xx19w24,
329,training(5).mov,True,right,2,vcgpdm_dyn(5)-lvm(5)_final(3).mov,0,10,10,128,,,,,,,,10:21:48:747,10:21:49:463,10:21:52:482,left,10:21:52:899,,,2018_Jun_13_0942,59.9545514461,MP-Perception Experiment,xx19w24,
330,vgpdm_dyn(35)-lvm(35)_final(0).mov,True,left,2,training(11).mov,0,11,11,6,,,,,,,,10:21:53:690,10:21:54:400,10:21:57:419,left,10:21:57:870,,,2018_Jun_13_0942,59.9545514461,MP-Perception Experiment,xx19w24,
331,dmp_npsi(45)_final(9).mov,True,left,2,training(2).mov,0,12,12,31,,,,,,,,10:21:58:650,10:21:59:371,10:22:02:390,right,10:22:02:874,,,2018_Jun_13_0942,59.9545514461,MP-Perception Experiment,xx19w24,
332,training(22).mov,True,right,2,vgpdm_dyn(10)-lvm(35)_final(8).mov,0,13,13,108,,,,,,,,10:22:03:831,10:22:04:375,10:22:07:395,right,10:22:08:096,,,2018_Jun_13_0942,59.9545514461,MP-Perception Experiment,xx19w24,
333,training(16).mov,True,right,2,vcgpdm_dyn(10)-lvm(35)_final(3).mov,0,14,14,100,,,,,,,,10:22:09:049,10:22:09:597,10:22:12:599,right,10:22:13:784,,,2018_Jun_13_0942,59.9545514461,MP-Perception Experiment,xx19w24,
334,training(19).mov,False,right,2,dmp_npsi(35)_final(7).mov,0,15,15,102,,,,,,,,10:22:14:777,10:22:15:285,10:22:18:285,right,10:22:18:702,,,2018_Jun_13_0942,59.9545514461,MP-Perception Experiment,xx19w24,
335,training(41).mov,False,right,2,vgpdm_dyn(30)-lvm(10)_final(3).mov,0,16,16,7,,,,,,,,10:22:19:488,10:22:20:204,10:22:23:207,right,10:22:23:641,,,2018_Jun_13_0942,59.9545514461,MP-Perception Experiment,xx19w24,
336,training(21).mov,False,right,2,vcgpdm_dyn(30)-lvm(30)_final(1).mov,0,17,17,26,,,,,,,,10:22:24:605,10:22:25:142,10:22:28:144,right,10:22:28:461,,,2018_Jun_13_0942,59.9545514461,MP-Perception Experiment,xx19w24,
337,vgpdm_dyn(30)-lvm(20)_final(9).mov,True,left,2,training(22).mov,0,18,18,152,,,,,,,,10:22:29:410,10:22:29:962,10:22:32:967,right,10:22:33:467,,,2018_Jun_13_0942,59.9545514461,MP-Perception Experiment,xx19w24,
338,vgpdm_dyn(30)-lvm(25)_final(7).mov,True,left,2,training(18).mov,0,19,19,75,,,,,,,,10:22:34:419,10:22:34:968,10:22:37:988,left,10:22:38:388,,,2018_Jun_13_0942,59.9545514461,MP-Perception Experiment,xx19w24,
339,vgpdm_dyn(25)-lvm(5)_final(8).mov,False,left,2,training(39).mov,0,20,20,37,,,,,,,,10:22:39:360,10:22:39:890,10:22:42:892,right,10:22:43:460,,,2018_Jun_13_0942,59.9545514461,MP-Perception Experiment,xx19w24,
340,training(2).mov,True,right,2,vgpdm_dyn(35)-lvm(30)_final(3).mov,0,21,21,29,,,,,,,,10:22:44:235,10:22:44:961,10:22:47:963,right,10:22:48:430,,,2018_Jun_13_0942,59.9545514461,MP-Perception Experiment,xx19w24,
341,training(4).mov,False,right,2,tmp_numprim(6)_final(8).mov,0,22,22,56,,,,,,,,10:22:49:408,10:22:49:931,10:22:52:934,right,10:22:53:618,,,2018_Jun_13_0942,59.9545514461,MP-Perception Experiment,xx19w24,
342,training(22).mov,False,right,2,vgpdm_dyn(15)-lvm(35)_final(5).mov,0,23,23,42,,,,,,,,10:22:54:597,10:22:55:119,10:22:58:122,right,10:22:58:790,,,2018_Jun_13_0942,59.9545514461,MP-Perception Experiment,xx19w24,
343,training(16).mov,False,right,2,vgpdm_dyn(35)-lvm(5)_final(2).mov,0,24,24,115,,,,,,,,10:22:59:583,10:23:00:291,10:23:03:293,right,10:23:03:777,,,2018_Jun_13_0942,59.9545514461,MP-Perception Experiment,xx19w24,
344,training(15).mov,True,right,2,vcgpdm_dyn(30)-lvm(35)_final(9).mov,0,25,25,21,,,,,,,,10:23:04:556,10:23:05:278,10:23:08:279,right,10:23:08:679,,,2018_Jun_13_0942,59.9545514461,MP-Perception Experiment,xx19w24,
345,training(18).mov,True,right,2,tmp_numprim(4)_final(6).mov,0,26,26,38,,,,,,,,10:23:09:639,10:23:10:180,10:23:13:183,right,10:23:13:533,,,2018_Jun_13_0942,59.9545514461,MP-Perception Experiment,xx19w24,
346,training(8).mov,True,right,2,vgpdm_dyn(20)-lvm(35)_final(6).mov,0,27,27,138,,,,,,,,10:23:14:505,10:23:15:035,10:23:18:038,right,10:23:18:638,,,2018_Jun_13_0942,59.9545514461,MP-Perception Experiment,xx19w24,
347,training(16).mov,False,right,2,vgpdm_dyn(30)-lvm(35)_final(9).mov,0,28,28,87,,,,,,,,10:23:19:603,10:23:20:141,10:23:23:144,right,10:23:23:894,,,2018_Jun_13_0942,59.9545514461,MP-Perception Experiment,xx19w24,
348,vgpdm_dyn(10)-lvm(15)_final(1).mov,False,left,2,training(21).mov,0,29,29,112,,,,,,,,10:23:24:675,10:23:25:395,10:23:28:398,right,10:23:29:015,,,2018_Jun_13_0942,59.9545514461,MP-Perception Experiment,xx19w24,
349,training(8).mov,True,right,2,vgpdm_dyn(10)-lvm(30)_final(4).mov,0,30,30,74,,,,,,,,10:23:29:803,10:23:30:516,10:23:33:536,right,10:23:34:120,,,2018_Jun_13_0942,59.9545514461,MP-Perception Experiment,xx19w24,
350,training(34).mov,True,right,2,tmp_numprim(3)_final(9).mov,0,31,31,116,,,,,,,,10:23:34:897,10:23:35:621,10:23:38:624,right,10:23:39:174,,,2018_Jun_13_0942,59.9545514461,MP-Perception Experiment,xx19w24,
351,vcgpdm_dyn(5)-lvm(15)_final(3).mov,True,left,2,training(10).mov,0,32,32,92,,,,,,,,10:23:39:956,10:23:40:675,10:23:43:695,left,10:23:44:295,,,2018_Jun_13_0942,59.9545514461,MP-Perception Experiment,xx19w24,
352,training(28).mov,True,right,2,tmp_numprim(3)_final(5).mov,0,33,33,123,,,,,,,,10:23:45:078,10:23:45:796,10:23:48:815,right,10:23:49:316,,,2018_Jun_13_0942,59.9545514461,MP-Perception Experiment,xx19w24,
353,vgpdm_dyn(35)-lvm(5)_final(2).mov,False,left,2,training(7).mov,0,34,34,113,,,,,,,,10:23:50:106,10:23:50:818,10:23:53:837,right,10:23:54:671,,,2018_Jun_13_0942,59.9545514461,MP-Perception Experiment,xx19w24,
354,vcgpdm_dyn(30)-lvm(30)_final(4).mov,False,left,2,training(26).mov,0,35,35,148,,,,,,,,10:23:55:636,10:23:56:172,10:23:59:173,left,10:23:59:623,,,2018_Jun_13_0942,59.9545514461,MP-Perception Experiment,xx19w24,
355,training(48).mov,False,right,2,vgpdm_dyn(20)-lvm(5)_final(6).mov,0,36,36,111,,,,,,,,10:24:00:421,10:24:01:124,10:24:04:127,right,10:24:04:460,,,2018_Jun_13_0942,59.9545514461,MP-Perception Experiment,xx19w24,
356,training(14).mov,False,right,2,vcgpdm_dyn(35)-lvm(30)_final(7).mov,0,37,37,146,,,,,,,,10:24:05:432,10:24:05:962,10:24:08:965,right,10:24:09:282,,,2018_Jun_13_0942,59.9545514461,MP-Perception Experiment,xx19w24,
357,vgpdm_dyn(25)-lvm(35)_final(5).mov,True,left,2,training(23).mov,0,38,38,101,,,,,,,,10:24:10:245,10:24:10:785,10:24:13:788,right,10:24:14:304,,,2018_Jun_13_0942,59.9545514461,MP-Perception Experiment,xx19w24,
358,training(16).mov,True,right,2,vgpdm_dyn(10)-lvm(10)_final(6).mov,0,39,39,85,,,,,,,,10:24:15:270,10:24:15:806,10:24:18:808,right,10:24:19:225,,,2018_Jun_13_0942,59.9545514461,MP-Perception Experiment,xx19w24,
359,training(2).mov,False,right,2,vgpdm_dyn(10)-lvm(35)_final(8).mov,0,40,40,79,,,,,,,,10:24:20:223,10:24:20:726,10:24:23:745,right,10:24:24:212,,,2018_Jun_13_0942,59.9545514461,MP-Perception Experiment,xx19w24,
360,vcgpdm_dyn(30)-lvm(25)_final(4).mov,False,left,2,training(7).mov,0,41,41,156,,,,,,,,10:24:25:018,10:24:25:715,10:24:28:717,right,10:24:29:234,,,2018_Jun_13_0942,59.9545514461,MP-Perception Experiment,xx19w24,
361,training(1).mov,True,right,2,vcgpdm_dyn(15)-lvm(30)_final(1).mov,0,42,42,1,,,,,,,,10:24:30:009,10:24:30:735,10:24:33:738,right,10:24:34:238,,,2018_Jun_13_0942,59.9545514461,MP-Perception Experiment,xx19w24,
362,vcgpdm_dyn(10)-lvm(25)_final(7).mov,True,left,2,training(2).mov,0,43,43,96,,,,,,,,10:24:35:024,10:24:35:739,10:24:38:759,left,10:24:39:159,,,2018_Jun_13_0942,59.9545514461,MP-Perception Experiment,xx19w24,
363,training(13).mov,False,right,2,vgpdm_dyn(10)-lvm(10)_final(7).mov,0,44,44,72,,,,,,,,10:24:39:944,10:24:40:660,10:24:43:664,right,10:24:44:064,,,2018_Jun_13_0942,59.9545514461,MP-Perception Experiment,xx19w24,
364,training(38).mov,False,right,2,vcgpdm_dyn(35)-lvm(35)_final(9)_bad.mov,0,45,45,49,,,,,,,,10:24:44:847,10:24:45:565,10:24:48:566,right,10:24:49:099,,,2018_Jun_13_0942,59.9545514461,MP-Perception Experiment,xx19w24,
365,dmp_npsi(50)_final(5).mov,False,left,2,training(24).mov,0,46,46,91,,,,,,,,10:24:49:885,10:24:50:601,10:24:53:603,right,10:24:53:953,,,2018_Jun_13_0942,59.9545514461,MP-Perception Experiment,xx19w24,
366,training(11).mov,False,right,2,vcgpdm_dyn(25)-lvm(20)_final(9).mov,0,47,47,127,,,,,,,,10:24:54:740,10:24:55:454,10:24:58:457,right,10:24:58:857,,,2018_Jun_13_0942,59.9545514461,MP-Perception Experiment,xx19w24,
367,map_gpdm_final(9).mov,False,left,2,training(38).mov,0,48,48,9,,,,,,,,10:24:59:646,10:25:00:361,10:25:03:364,left,10:25:03:881,,,2018_Jun_13_0942,59.9545514461,MP-Perception Experiment,xx19w24,
368,vcgpdm_dyn(5)-lvm(10)_final(3).mov,False,left,2,training(21).mov,0,49,49,144,,,,,,,,10:25:04:664,10:25:05:382,10:25:08:385,left,10:25:08:918,,,2018_Jun_13_0942,59.9545514461,MP-Perception Experiment,xx19w24,
369,training(23).mov,True,right,2,vgpdm_dyn(20)-lvm(35)_final(2).mov,0,50,50,30,,,,,,,,10:25:09:700,10:25:10:419,10:25:13:439,right,10:25:14:890,,,2018_Jun_13_0942,59.9545514461,MP-Perception Experiment,xx19w24,
370,vcgpdm_dyn(20)-lvm(35)_final(2).mov,True,left,2,training(14).mov,0,51,51,98,,,,,,,,10:25:15:677,10:25:16:391,10:25:19:411,right,10:25:20:112,,,2018_Jun_13_0942,59.9545514461,MP-Perception Experiment,xx19w24,
371,training(27).mov,False,right,2,vgpdm_dyn(15)-lvm(35)_final(3).mov,0,52,52,110,,,,,,,,10:25:20:920,10:25:21:613,10:25:24:632,right,10:25:25:049,,,2018_Jun_13_0942,59.9545514461,MP-Perception Experiment,xx19w24,
372,vcgpdm_dyn(5)-lvm(5)_final(5).mov,True,left,2,training(34).mov,0,53,53,70,,,,,,,,10:25:25:854,10:25:26:550,10:25:29:569,left,10:25:30:370,,,2018_Jun_13_0942,59.9545514461,MP-Perception Experiment,xx19w24,
373,training(40).mov,True,right,2,tmp_numprim(5)_final(2).mov,0,54,54,80,,,,,,,,10:25:31:149,10:25:31:871,10:25:34:891,right,10:25:36:009,,,2018_Jun_13_0942,59.9545514461,MP-Perception Experiment,xx19w24,
374,vgpdm_dyn(10)-lvm(20)_final(0).mov,True,left,2,training(41).mov,0,55,55,66,,,,,,,,10:25:36:784,10:25:37:510,10:25:40:511,left,10:25:40:911,,,2018_Jun_13_0942,59.9545514461,MP-Perception Experiment,xx19w24,
375,training(7).mov,False,right,2,vgpdm_dyn(15)-lvm(15)_final(5).mov,0,56,56,69,,,,,,,,10:25:42:319,10:25:42:829,10:25:45:415,right,10:25:45:815,,,2018_Jun_13_0942,59.9545514461,MP-Perception Experiment,xx19w24,
376,training(8).mov,False,right,2,vgpdm_dyn(20)-lvm(15)_final(0).mov,0,57,57,71,,,,,,,,10:25:46:593,10:25:47:316,10:25:50:320,right,10:25:50:704,,,2018_Jun_13_0942,59.9545514461,MP-Perception Experiment,xx19w24,
377,vcgpdm_dyn(10)-lvm(5)_final(2).mov,False,left,2,training(36).mov,0,58,58,95,,,,,,,,10:25:51:485,10:25:52:206,10:25:55:225,right,10:25:55:626,,,2018_Jun_13_0942,59.9545514461,MP-Perception Experiment,xx19w24,
378,vcgpdm_dyn(20)-lvm(25)_final(4).mov,False,left,2,training(23).mov,0,59,59,150,,,,,,,,10:25:56:414,10:25:57:127,10:26:00:146,left,10:26:00:780,,,2018_Jun_13_0942,59.9545514461,MP-Perception Experiment,xx19w24,
379,vcgpdm_dyn(35)-lvm(10)_final(7).mov,True,left,2,training(12).mov,0,60,60,114,,,,,,,,10:26:01:562,10:26:02:281,10:26:05:283,right,10:26:05:851,,,2018_Jun_13_0942,59.9545514461,MP-Perception Experiment,xx19w24,
380,training(13).mov,False,right,2,vcgpdm_dyn(5)-lvm(25)_final(6).mov,0,61,61,45,,,,,,,,10:26:06:634,10:26:07:352,10:26:10:355,right,10:26:10:872,,,2018_Jun_13_0942,59.9545514461,MP-Perception Experiment,xx19w24,
381,vgpdm_dyn(25)-lvm(30)_final(0).mov,False,left,2,training(30).mov,0,62,62,142,,,,,,,,10:26:11:653,10:26:12:373,10:26:15:376,right,10:26:16:093,,,2018_Jun_13_0942,59.9545514461,MP-Perception Experiment,xx19w24,
382,vcgpdm_dyn(30)-lvm(20)_final(7).mov,True,left,2,training(26).mov,0,63,63,105,,,,,,,,10:26:16:879,10:26:17:594,10:26:20:597,right,10:26:21:131,,,2018_Jun_13_0942,59.9545514461,MP-Perception Experiment,xx19w24,
383,map_cgpdm_final(4).mov,True,left,2,training(10).mov,0,64,64,8,,,,,,,,10:26:21:912,10:26:22:632,10:26:25:634,right,10:26:26:034,,,2018_Jun_13_0942,59.9545514461,MP-Perception Experiment,xx19w24,
384,vgpdm_dyn(30)-lvm(15)_final(0).mov,True,left,2,training(5).mov,0,65,65,149,,,,,,,,10:26:26:815,10:26:27:537,10:26:30:537,right,10:26:30:921,,,2018_Jun_13_0942,59.9545514461,MP-Perception Experiment,xx19w24,
385,vcgpdm_dyn(20)-lvm(25)_final(9).mov,True,left,2,training(8).mov,0,66,66,117,,,,,,,,10:26:31:721,10:26:32:422,10:26:35:425,left,10:26:35:808,,,2018_Jun_13_0942,59.9545514461,MP-Perception Experiment,xx19w24,
386,tmp_numprim(2)_final(6).mov,False,left,2,training(1).mov,0,67,67,52,,,,,,,,10:26:36:592,10:26:37:309,10:26:40:297,left,10:26:40:747,,,2018_Jun_13_0942,59.9545514461,MP-Perception Experiment,xx19w24,
387,vgpdm_dyn(10)-lvm(25)_final(7).mov,False,left,2,training(32).mov,0,68,68,121,,,,,,,,10:26:42:350,10:26:42:350,10:26:45:269,right,10:26:45:802,,,2018_Jun_13_0942,59.9545514461,MP-Perception Experiment,xx19w24,
388,training(34).mov,True,right,2,vcgpdm_dyn(10)-lvm(20)_final(6).mov,0,69,69,28,,,,,,,,10:26:46:586,10:26:47:304,10:26:50:323,right,10:26:52:274,,,2018_Jun_13_0942,59.9545514461,MP-Perception Experiment,xx19w24,
389,vcgpdm_dyn(10)-lvm(25)_final(3).mov,False,left,2,training(1).mov,0,70,70,103,,,,,,,,10:26:53:061,10:26:53:775,10:26:56:778,left,10:26:57:278,,,2018_Jun_13_0942,59.9545514461,MP-Perception Experiment,xx19w24,
390,training(33).mov,False,right,2,vgpdm_dyn(5)-lvm(30)_final(9).mov,0,71,71,44,,,,,,,,10:26:58:056,10:26:58:779,10:27:01:782,right,10:27:02:267,,,2018_Jun_13_0942,59.9545514461,MP-Perception Experiment,xx19w24,
391,vcgpdm_dyn(35)-lvm(10)_final(3).mov,True,left,2,training(31).mov,0,72,72,157,,,,,,,,10:27:03:049,10:27:03:768,10:27:06:770,left,10:27:07:371,,,2018_Jun_13_0942,59.9545514461,MP-Perception Experiment,xx19w24,
392,training(7).mov,True,right,2,vcgpdm_dyn(5)-lvm(35)_final(8)_bad.mov,0,73,73,99,,,,,,,,10:27:08:154,10:27:08:872,10:27:11:891,right,10:27:12:358,,,2018_Jun_13_0942,59.9545514461,MP-Perception Experiment,xx19w24,
393,vcgpdm_dyn(15)-lvm(15)_final(9).mov,True,left,2,training(37).mov,0,74,74,58,,,,,,,,10:27:13:138,10:27:13:859,10:27:16:862,right,10:27:17:462,,,2018_Jun_13_0942,59.9545514461,MP-Perception Experiment,xx19w24,
394,dmp_npsi(15)_final(1).mov,False,left,2,training(38).mov,0,75,75,47,,,,,,,,10:27:18:248,10:27:18:978,10:27:21:965,left,10:27:22:315,,,2018_Jun_13_0942,59.9545514461,MP-Perception Experiment,xx19w24,
395,training(15).mov,False,right,2,vgpdm_dyn(30)-lvm(15)_final(7).mov,0,76,76,84,,,,,,,,10:27:23:096,10:27:23:817,10:27:26:819,right,10:27:27:253,,,2018_Jun_13_0942,59.9545514461,MP-Perception Experiment,xx19w24,
396,training(13).mov,True,right,2,tmp_numprim(4)_final(4).mov,0,77,77,18,,,,,,,,10:27:28:033,10:27:28:754,10:27:31:758,right,10:27:32:175,,,2018_Jun_13_0942,59.9545514461,MP-Perception Experiment,xx19w24,
397,vgpdm_dyn(20)-lvm(30)_final(9).mov,True,left,2,training(29).mov,0,78,78,109,,,,,,,,10:27:33:167,10:27:33:676,10:27:36:679,left,10:27:37:614,,,2018_Jun_13_0942,59.9545514461,MP-Perception Experiment,xx19w24,
398,vgpdm_dyn(5)-lvm(20)_final(3).mov,False,left,2,training(7).mov,0,79,79,34,,,,,,,,10:27:38:400,10:27:39:115,10:27:42:118,left,10:27:43:018,,,2018_Jun_13_0942,59.9545514461,MP-Perception Experiment,xx19w24,
399,training(28).mov,True,right,2,dmp_npsi(20)_final(3).mov,0,80,80,4,,,,,,,,10:27:43:803,10:27:44:519,10:27:47:522,right,10:27:48:006,,,2018_Jun_13_0942,59.9545514461,MP-Perception Experiment,xx19w24,
400,vgpdm_dyn(10)-lvm(5)_final(8).mov,True,left,2,training(33).mov,0,81,81,0,,,,,,,,10:27:48:784,10:27:49:507,10:27:52:509,left,10:27:53:193,,,2018_Jun_13_0942,59.9545514461,MP-Perception Experiment,xx19w24,
401,vcgpdm_dyn(5)-lvm(20)_final(2).mov,False,left,2,training(6).mov,0,82,82,5,,,,,,,,10:27:53:984,10:27:54:695,10:27:57:715,right,10:27:58:365,,,2018_Jun_13_0942,59.9545514461,MP-Perception Experiment,xx19w24,
402,vcgpdm_dyn(25)-lvm(20)_final(4).mov,True,left,2,training(39).mov,0,83,83,63,,,,,,,,10:27:59:146,10:27:59:866,10:28:02:869,left,10:28:03:286,,,2018_Jun_13_0942,59.9545514461,MP-Perception Experiment,xx19w24,
403,training(11).mov,False,right,2,vcgpdm_dyn(15)-lvm(20)_final(8).mov,0,84,84,12,,,,,,,,10:28:04:068,10:28:04:787,10:28:07:789,right,10:28:09:339,,,2018_Jun_13_0942,59.9545514461,MP-Perception Experiment,xx19w24,
404,training(48).mov,False,right,2,dmp_npsi(15)_final(6).mov,0,85,85,50,,,,,,,,10:28:10:123,10:28:10:840,10:28:13:843,right,10:28:14:227,,,2018_Jun_13_0942,59.9545514461,MP-Perception Experiment,xx19w24,
405,training(20).mov,False,right,2,vcgpdm_dyn(25)-lvm(35)_final(8).mov,0,86,86,81,,,,,,,,10:28:15:005,10:28:15:728,10:28:18:731,right,10:28:19:098,,,2018_Jun_13_0942,59.9545514461,MP-Perception Experiment,xx19w24,
406,vcgpdm_dyn(15)-lvm(10)_final(4).mov,False,left,2,training(7).mov,0,87,87,130,,,,,,,,10:28:19:885,10:28:20:601,10:28:23:586,right,10:28:24:070,,,2018_Jun_13_0942,59.9545514461,MP-Perception Experiment,xx19w24,
407,tmp_numprim(8)_final(3).mov,True,left,2,training(17).mov,0,88,88,54,,,,,,,,10:28:24:867,10:28:25:571,10:28:28:574,right,10:28:29:074,,,2018_Jun_13_0942,59.9545514461,MP-Perception Experiment,xx19w24,
408,vgpdm_dyn(20)-lvm(20)_final(8).mov,False,left,2,training(32).mov,0,89,89,86,,,,,,,,10:28:29:859,10:28:30:576,10:28:33:579,right,10:28:33:896,,,2018_Jun_13_0942,59.9545514461,MP-Perception Experiment,xx19w24,
409,vcgpdm_dyn(35)-lvm(5)_final(4).mov,False,left,2,training(21).mov,0,90,90,3,,,,,,,,10:28:34:754,10:28:35:397,10:28:38:399,right,10:28:38:900,,,2018_Jun_13_0942,59.9545514461,MP-Perception Experiment,xx19w24,
410,vcgpdm_dyn(15)-lvm(5)_final(5).mov,False,left,2,training(33).mov,0,91,91,65,,,,,,,,10:28:39:679,10:28:40:401,10:28:43:420,left,10:28:43:787,,,2018_Jun_13_0942,59.9545514461,MP-Perception Experiment,xx19w24,
411,training(5).mov,True,right,2,vcgpdm_dyn(20)-lvm(20)_final(5).mov,0,92,92,67,,,,,,,,10:28:44:777,10:28:45:288,10:28:48:308,right,10:28:49:009,,,2018_Jun_13_0942,59.9545514461,MP-Perception Experiment,xx19w24,
412,training(31).mov,True,right,2,vcgpdm_dyn(5)-lvm(10)_final(1).mov,0,93,93,118,,,,,,,,10:28:49:798,10:28:50:510,10:28:53:529,right,10:28:53:996,,,2018_Jun_13_0942,59.9545514461,MP-Perception Experiment,xx19w24,
413,training(18).mov,True,right,2,vgpdm_dyn(20)-lvm(5)_final(9).mov,0,94,94,145,,,,,,,,10:28:54:780,10:28:55:497,10:28:58:498,right,10:28:59:115,,,2018_Jun_13_0942,59.9545514461,MP-Perception Experiment,xx19w24,
414,training(37).mov,False,right,2,tmp_numprim(6)_final(5).mov,0,95,95,119,,,,,,,,10:28:59:883,10:29:00:616,10:29:03:619,right,10:29:03:986,,,2018_Jun_13_0942,59.9545514461,MP-Perception Experiment,xx19w24,
415,tmp_numprim(10)_final(6).mov,True,left,2,training(0).mov,0,96,96,64,,,,,,,,10:29:04:954,10:29:05:488,10:29:08:490,right,10:29:08:824,,,2018_Jun_13_0942,59.9545514461,MP-Perception Experiment,xx19w24,
416,tmp_numprim(4)_final(6).mov,True,left,2,training(13).mov,0,97,97,19,,,,,,,,10:29:09:778,10:29:10:327,10:29:13:330,left,10:29:13:797,,,2018_Jun_13_0942,59.9545514461,MP-Perception Experiment,xx19w24,
417,vgpdm_dyn(30)-lvm(10)_final(1).mov,True,left,2,training(33).mov,0,98,98,2,,,,,,,,10:29:14:764,10:29:15:298,10:29:18:300,left,10:29:18:817,,,2018_Jun_13_0942,59.9545514461,MP-Perception Experiment,xx19w24,
418,vcgpdm_dyn(25)-lvm(25)_final(4).mov,True,left,2,training(22).mov,0,99,99,93,,,,,,,,10:29:19:777,10:29:20:318,10:29:23:322,right,10:29:23:822,,,2018_Jun_13_0942,59.9545514461,MP-Perception Experiment,xx19w24,
419,vgpdm_dyn(10)-lvm(10)_final(4).mov,True,left,2,training(3).mov,0,100,100,88,,,,,,,,10:29:24:603,10:29:25:323,10:29:28:326,right,10:29:28:910,,,2018_Jun_13_0942,59.9545514461,MP-Perception Experiment,xx19w24,
420,vcgpdm_dyn(35)-lvm(5)_final(5).mov,True,left,2,training(21).mov,0,101,101,32,,,,,,,,10:29:29:693,10:29:30:411,10:29:33:413,right,10:29:34:264,,,2018_Jun_13_0942,59.9545514461,MP-Perception Experiment,xx19w24,
421,training(8).mov,True,right,2,vgpdm_dyn(35)-lvm(10)_final(8).mov,0,102,102,139,,,,,,,,10:29:35:072,10:29:35:765,10:29:38:785,left,10:29:39:251,,,2018_Jun_13_0942,59.9545514461,MP-Perception Experiment,xx19w24,
422,map_gpdm_final(3).mov,True,left,2,training(48).mov,0,103,103,59,,,,,,,,10:29:40:048,10:29:40:754,10:29:43:756,left,10:29:44:156,,,2018_Jun_13_0942,59.9545514461,MP-Perception Experiment,xx19w24,
423,training(20).mov,False,right,2,vcgpdm_dyn(5)-lvm(25)_final(5).mov,0,104,104,25,,,,,,,,10:29:45:121,10:29:45:658,10:29:48:658,right,10:29:49:109,,,2018_Jun_13_0942,59.9545514461,MP-Perception Experiment,xx19w24,
424,training(31).mov,False,right,2,tmp_numprim(10)_final(7).mov,0,105,105,35,,,,,,,,10:29:49:894,10:29:50:610,10:29:53:612,right,10:29:53:796,,,2018_Jun_13_0942,59.9545514461,MP-Perception Experiment,xx19w24,
425,vcgpdm_dyn(30)-lvm(25)_final(8).mov,False,left,2,training(30).mov,0,106,106,82,,,,,,,,10:29:54:754,10:29:55:297,10:29:58:300,left,10:29:58:667,,,2018_Jun_13_0942,59.9545514461,MP-Perception Experiment,xx19w24,
426,training(39).mov,True,right,2,vcgpdm_dyn(20)-lvm(30)_final(9).mov,0,107,107,11,,,,,,,,10:29:59:454,10:30:00:170,10:30:03:156,right,10:30:03:706,,,2018_Jun_13_0942,59.9545514461,MP-Perception Experiment,xx19w24,
427,training(4).mov,True,right,2,vcgpdm_dyn(5)-lvm(5)_final(3).mov,0,108,108,158,,,,,,,,10:30:04:512,10:30:05:224,10:30:08:227,left,10:30:09:311,,,2018_Jun_13_0942,59.9545514461,MP-Perception Experiment,xx19w24,
428,training(21).mov,True,right,2,vgpdm_dyn(35)-lvm(10)_final(8).mov,0,109,109,77,,,,,,,,10:30:10:268,10:30:10:812,10:30:13:831,right,10:30:14:266,,,2018_Jun_13_0942,59.9545514461,MP-Perception Experiment,xx19w24,
429,vgpdm_dyn(20)-lvm(15)_final(0).mov,False,left,2,training(4).mov,0,110,110,53,,,,,,,,10:30:15:230,10:30:15:767,10:30:18:786,right,10:30:19:120,,,2018_Jun_13_0942,59.9545514461,MP-Perception Experiment,xx19w24,
430,training(0).mov,True,right,2,map_gpdm_final(8).mov,0,111,111,120,,,,,,,,10:30:20:083,10:30:20:621,10:30:23:640,right,10:30:24:057,,,2018_Jun_13_0942,59.9545514461,MP-Perception Experiment,xx19w24,
431,dmp_npsi(45)_final(9).mov,True,left,2,training(30).mov,0,112,112,36,,,,,,,,10:30:25:013,10:30:25:558,10:30:28:561,left,10:30:29:195,,,2018_Jun_13_0942,59.9545514461,MP-Perception Experiment,xx19w24,
432,vgpdm_dyn(25)-lvm(30)_final(8).mov,True,left,2,training(10).mov,0,113,113,22,,,,,,,,10:30:30:160,10:30:30:696,10:30:33:700,right,10:30:34:350,,,2018_Jun_13_0942,59.9545514461,MP-Perception Experiment,xx19w24,
433,training(11).mov,False,right,2,vgpdm_dyn(30)-lvm(35)_final(4).mov,0,114,114,40,,,,,,,,10:30:35:340,10:30:35:851,10:30:38:852,left,10:30:39:786,,,2018_Jun_13_0942,59.9545514461,MP-Perception Experiment,xx19w24,
434,training(19).mov,True,right,2,vgpdm_dyn(15)-lvm(35)_final(9).mov,0,115,115,55,,,,,,,,10:30:40:568,10:30:41:287,10:30:44:289,right,10:30:44:973,,,2018_Jun_13_0942,59.9545514461,MP-Perception Experiment,xx19w24,
435,vcgpdm_dyn(35)-lvm(20)_final(8).mov,True,left,2,training(21).mov,0,116,116,41,,,,,,,,10:30:45:936,10:30:46:474,10:30:49:478,left,10:30:49:828,,,2018_Jun_13_0942,59.9545514461,MP-Perception Experiment,xx19w24,
436,training(18).mov,True,right,2,vcgpdm_dyn(5)-lvm(20)_final(0).mov,0,117,117,83,,,,,,,,10:30:50:798,10:30:51:331,10:30:54:351,right,10:30:54:951,,,2018_Jun_13_0942,59.9545514461,MP-Perception Experiment,xx19w24,
437,training(31).mov,False,right,2,vcgpdm_dyn(10)-lvm(25)_final(3).mov,0,118,118,141,,,,,,,,10:30:55:910,10:30:56:452,10:30:59:471,right,10:31:00:088,,,2018_Jun_13_0942,59.9545514461,MP-Perception Experiment,xx19w24,
438,tmp_numprim(9)_final(1).mov,False,left,2,training(30).mov,0,119,119,60,,,,,,,,10:31:01:043,10:31:01:589,10:31:04:592,right,10:31:05:093,,,2018_Jun_13_0942,59.9545514461,MP-Perception Experiment,xx19w24,
439,training(36).mov,True,right,2,tmp_numprim(9)_final(3).mov,0,120,120,124,,,,,,,,10:31:05:871,10:31:06:594,10:31:09:597,left,10:31:10:097,,,2018_Jun_13_0942,59.9545514461,MP-Perception Experiment,xx19w24,
440,vgpdm_dyn(15)-lvm(25)_final(0).mov,True,left,2,training(48).mov,0,121,121,133,,,,,,,,10:31:11:047,10:31:11:599,10:31:14:601,right,10:31:15:218,,,2018_Jun_13_0942,59.9545514461,MP-Perception Experiment,xx19w24,
441,vcgpdm_dyn(5)-lvm(20)_final(6).mov,False,left,2,training(5).mov,0,122,122,143,,,,,,,,10:31:16:175,10:31:16:719,10:31:19:722,left,10:31:20:105,,,2018_Jun_13_0942,59.9545514461,MP-Perception Experiment,xx19w24,
442,vcgpdm_dyn(5)-lvm(15)_final(9).mov,False,left,2,training(24).mov,0,123,123,24,,,,,,,,10:31:20:884,10:31:21:607,10:31:24:610,left,10:31:25:461,,,2018_Jun_13_0942,59.9545514461,MP-Perception Experiment,xx19w24,
443,vcgpdm_dyn(20)-lvm(5)_final(2).mov,True,left,2,training(28).mov,0,124,124,97,,,,,,,,10:31:26:436,10:31:26:962,10:31:29:963,left,10:31:30:513,,,2018_Jun_13_0942,59.9545514461,MP-Perception Experiment,xx19w24,
444,vcgpdm_dyn(15)-lvm(35)_final(3).mov,False,left,2,training(13).mov,0,125,125,39,,,,,,,,10:31:31:485,10:31:32:014,10:31:35:017,left,10:31:35:450,,,2018_Jun_13_0942,59.9545514461,MP-Perception Experiment,xx19w24,
445,training(31).mov,False,right,2,vcgpdm_dyn(20)-lvm(15)_final(1).mov,0,126,126,151,,,,,,,,10:31:36:254,10:31:36:952,10:31:39:954,right,10:31:40:288,,,2018_Jun_13_0942,59.9545514461,MP-Perception Experiment,xx19w24,
446,training(22).mov,True,right,2,vgpdm_dyn(10)-lvm(30)_final(6).mov,0,127,127,15,,,,,,,,10:31:41:995,10:31:41:995,10:31:44:777,right,10:31:45:328,,,2018_Jun_13_0942,59.9545514461,MP-Perception Experiment,xx19w24,
447,vcgpdm_dyn(35)-lvm(10)_final(0).mov,False,left,2,training(19).mov,0,128,128,155,,,,,,,,10:31:46:107,10:31:46:829,10:31:49:848,right,10:31:50:532,,,2018_Jun_13_0942,59.9545514461,MP-Perception Experiment,xx19w24,
448,training(27).mov,True,right,2,vgpdm_dyn(35)-lvm(35)_final(2).mov,0,129,129,27,,,,,,,,10:31:51:314,10:31:52:033,10:31:55:036,right,10:32:00:758,,,2018_Jun_13_0942,59.9545514461,MP-Perception Experiment,xx19w24,
449,training(32).mov,True,right,2,tmp_numprim(6)_final(6).mov,0,130,130,51,,,,,,,,10:32:01:546,10:32:02:259,10:32:05:262,left,10:32:06:029,,,2018_Jun_13_0942,59.9545514461,MP-Perception Experiment,xx19w24,
450,training(5).mov,False,right,2,vgpdm_dyn(15)-lvm(25)_final(8).mov,0,131,131,68,,,,,,,,10:32:06:807,10:32:07:530,10:32:10:549,right,10:32:10:950,,,2018_Jun_13_0942,59.9545514461,MP-Perception Experiment,xx19w24,
451,training(11).mov,False,right,2,vcgpdm_dyn(10)-lvm(5)_final(2).mov,0,132,132,16,,,,,,,,10:32:11:727,10:32:12:451,10:32:15:453,right,10:32:15:937,,,2018_Jun_13_0942,59.9545514461,MP-Perception Experiment,xx19w24,
452,vgpdm_dyn(5)-lvm(10)_final(9).mov,False,left,2,training(14).mov,0,133,133,90,,,,,,,,10:32:16:724,10:32:17:439,10:32:20:440,left,10:32:20:823,,,2018_Jun_13_0942,59.9545514461,MP-Perception Experiment,xx19w24,
453,vgpdm_dyn(35)-lvm(35)_final(0).mov,True,left,2,training(13).mov,0,134,134,147,,,,,,,,10:32:21:603,10:32:22:324,10:32:25:327,left,10:32:25:661,,,2018_Jun_13_0942,59.9545514461,MP-Perception Experiment,xx19w24,
454,training(22).mov,True,right,2,tmp_numprim(7)_final(9).mov,0,135,135,23,,,,,,,,10:32:26:445,10:32:27:162,10:32:30:166,left,10:32:30:466,,,2018_Jun_13_0942,59.9545514461,MP-Perception Experiment,xx19w24,
455,training(39).mov,True,right,2,vcgpdm_dyn(25)-lvm(25)_final(9).mov,0,136,136,126,,,,,,,,10:32:31:248,10:32:31:967,10:32:34:988,left,10:32:35:405,,,2018_Jun_13_0942,59.9545514461,MP-Perception Experiment,xx19w24,
456,training(20).mov,False,right,2,vcgpdm_dyn(25)-lvm(10)_final(5).mov,0,137,137,131,,,,,,,,10:32:36:192,10:32:36:906,10:32:39:908,left,10:32:41:126,,,2018_Jun_13_0942,59.9545514461,MP-Perception Experiment,xx19w24,
457,vcgpdm_dyn(20)-lvm(10)_final(4).mov,False,left,2,training(13).mov,0,138,138,76,,,,,,,,10:32:42:213,10:32:42:727,10:32:45:630,right,10:32:46:230,,,2018_Jun_13_0942,59.9545514461,MP-Perception Experiment,xx19w24,
458,training(40).mov,True,right,2,vgpdm_dyn(30)-lvm(30)_final(7).mov,0,139,139,57,,,,,,,,10:32:47:017,10:32:47:731,10:32:50:750,right,10:32:51:484,,,2018_Jun_13_0942,59.9545514461,MP-Perception Experiment,xx19w24,
459,training(34).mov,False,right,2,dmp_npsi(40)_final(4).mov,0,140,140,132,,,,,,,,10:32:52:267,10:32:52:986,10:32:55:989,right,10:32:56:539,,,2018_Jun_13_0942,59.9545514461,MP-Perception Experiment,xx19w24,
460,training(9).mov,False,right,2,vgpdm_dyn(15)-lvm(5)_final(0).mov,0,141,141,107,,,,,,,,10:32:57:318,10:32:58:040,10:33:01:060,right,10:33:01:510,,,2018_Jun_13_0942,59.9545514461,MP-Perception Experiment,xx19w24,
461,training(36).mov,False,right,2,vcgpdm_dyn(35)-lvm(30)_final(3).mov,0,142,142,94,,,,,,,,10:33:02:283,10:33:03:011,10:33:06:030,right,10:33:06:547,,,2018_Jun_13_0942,59.9545514461,MP-Perception Experiment,xx19w24,
462,training(12).mov,True,right,2,vgpdm_dyn(25)-lvm(15)_final(9)_out_of_screen.mov,0,143,143,62,,,,,,,,10:33:07:327,10:33:08:049,10:33:11:050,right,10:33:11:651,,,2018_Jun_13_0942,59.9545514461,MP-Perception Experiment,xx19w24,
463,vcgpdm_dyn(10)-lvm(30)_final(4).mov,True,left,2,training(29).mov,0,144,144,134,,,,,,,,10:33:12:436,10:33:13:152,10:33:16:154,left,10:33:16:555,,,2018_Jun_13_0942,59.9545514461,MP-Perception Experiment,xx19w24,
464,training(8).mov,True,right,2,vcgpdm_dyn(20)-lvm(25)_final(9).mov,0,145,145,106,,,,,,,,10:33:17:514,10:33:18:073,10:33:21:077,right,10:33:21:510,,,2018_Jun_13_0942,59.9545514461,MP-Perception Experiment,xx19w24,
465,vcgpdm_dyn(30)-lvm(10)_final(2).mov,False,left,2,training(7).mov,0,146,146,135,,,,,,,,10:33:22:292,10:33:23:012,10:33:26:031,right,10:33:26:531,,,2018_Jun_13_0942,59.9545514461,MP-Perception Experiment,xx19w24,
466,training(9).mov,False,right,2,vcgpdm_dyn(15)-lvm(35)_final(5).mov,0,147,147,122,,,,,,,,10:33:27:306,10:33:28:033,10:33:31:053,right,10:33:31:469,,,2018_Jun_13_0942,59.9545514461,MP-Perception Experiment,xx19w24,
467,vcgpdm_dyn(35)-lvm(25)_final(3).mov,True,left,2,training(17).mov,0,148,148,78,,,,,,,,10:33:32:251,10:33:32:971,10:33:35:973,left,10:33:36:307,,,2018_Jun_13_0942,59.9545514461,MP-Perception Experiment,xx19w24,
468,training(13).mov,True,right,2,map_gpdm_final(0).mov,0,149,149,153,,,,,,,,10:33:37:097,10:33:37:808,10:33:40:827,right,10:33:41:378,,,2018_Jun_13_0942,59.9545514461,MP-Perception Experiment,xx19w24,
469,vgpdm_dyn(30)-lvm(10)_final(6).mov,False,left,2,training(37).mov,0,150,150,10,,,,,,,,10:33:42:264,10:33:42:879,10:33:45:899,right,10:33:46:966,,,2018_Jun_13_0942,59.9545514461,MP-Perception Experiment,xx19w24,
470,training(18).mov,True,right,2,vgpdm_dyn(25)-lvm(5)_final(5).mov,0,151,151,14,,,,,,,,10:33:47:753,10:33:48:484,10:33:51:487,right,10:33:52:988,,,2018_Jun_13_0942,59.9545514461,MP-Perception Experiment,xx19w24,
471,training(33).mov,True,right,2,tmp_numprim(7)_final(9).mov,0,152,152,43,,,,,,,,10:33:53:767,10:33:54:489,10:33:57:508,left,10:33:58:209,,,2018_Jun_13_0942,59.9545514461,MP-Perception Experiment,xx19w24,
