trial_number,right,flipped,correct,block,left,trials.thisRepN,trials.thisTrialN,trials.thisN,trials.thisIndex,flipwelcome.keys,flipwelcome.corr,flipwelcome.rt,flippreparations.keys,flippreparations.rt,flipInstructions.keys,flipInstructions.rt,time_at_fixation_cross_onset,time_at_videoonset,time_at_videoend,participant_key_response,time_at_key_response,key_resp_4.keys,date,frameRate,expName,participant,
,,,,,,,,,,space,0,80.2684071654,,,,,,,,,,,2018_Jun_13_1527,59.9373792805,MP-Perception Experiment,xx20m31,
,,,,,,,,,,,,,space,2.3521263264,,,,,,,,,2018_Jun_13_1527,59.9373792805,MP-Perception Experiment,xx20m31,
,,,,,,,,,,,,,,,space,1.41800671074,,,,,,,2018_Jun_13_1527,59.9373792805,MP-Perception Experiment,xx20m31,
1,dmp_npsi(50)_final(9).webm,False,left,0,training(11).webm,0,0,0,10,,,,,,,,15:29:00:712,15:29:01:331,15:29:04:319,left,15:29:05:303,,2018_Jun_13_1527,59.9373792805,MP-Perception Experiment,xx20m31,
2,training(20).webm,False,right,0,vgpdm_dyn(10)-lvm(10)_final(7).webm,0,1,1,52,,,,,,,,15:29:06:070,15:29:06:804,15:29:09:807,right,15:29:10:324,,2018_Jun_13_1527,59.9373792805,MP-Perception Experiment,xx20m31,
3,vcgpdm_dyn(10)-lvm(35)_final(2).webm,False,left,0,training(17).webm,0,2,2,76,,,,,,,,15:29:11:091,15:29:11:825,15:29:14:827,left,15:29:15:243,,2018_Jun_13_1527,59.9373792805,MP-Perception Experiment,xx20m31,
4,vcgpdm_dyn(20)-lvm(15)_final(0).webm,False,left,0,training(39).webm,0,3,3,155,,,,,,,,15:29:16:002,15:29:16:744,15:29:19:747,right,15:29:20:164,,2018_Jun_13_1527,59.9373792805,MP-Perception Experiment,xx20m31,
5,training(31).webm,False,right,0,vcgpdm_dyn(15)-lvm(30)_final(2).webm,0,4,4,11,,,,,,,,15:29:20:924,15:29:21:665,15:29:24:668,right,15:29:25:118,,2018_Jun_13_1527,59.9373792805,MP-Perception Experiment,xx20m31,
6,vcgpdm_dyn(35)-lvm(10)_final(5).webm,True,left,0,training(1).webm,0,5,5,146,,,,,,,,15:29:25:879,15:29:26:621,15:29:29:607,left,15:29:30:024,,2018_Jun_13_1527,59.9373792805,MP-Perception Experiment,xx20m31,
7,vcgpdm_dyn(35)-lvm(20)_final(8).webm,False,left,0,training(27).webm,0,6,6,138,,,,,,,,15:29:30:785,15:29:31:525,15:29:34:528,left,15:29:35:078,,2018_Jun_13_1527,59.9373792805,MP-Perception Experiment,xx20m31,
8,vgpdm_dyn(15)-lvm(30)_final(5).webm,True,left,0,training(38).webm,0,7,7,21,,,,,,,,15:29:35:842,15:29:36:580,15:29:39:583,left,15:29:39:883,,2018_Jun_13_1527,59.9373792805,MP-Perception Experiment,xx20m31,
9,training(13).webm,False,right,0,tmp_numprim(5)_final(6).webm,0,8,8,142,,,,,,,,15:29:40:644,15:29:41:384,15:29:44:387,right,15:29:44:870,,2018_Jun_13_1527,59.9373792805,MP-Perception Experiment,xx20m31,
10,training(23).webm,True,right,0,vcgpdm_dyn(20)-lvm(35)_final(7).webm,0,9,9,28,,,,,,,,15:29:45:623,15:29:46:371,15:29:49:374,right,15:29:49:791,,2018_Jun_13_1527,59.9373792805,MP-Perception Experiment,xx20m31,
11,training(18).webm,False,right,0,tmp_numprim(3)_final(5).webm,0,10,10,8,,,,,,,,15:29:50:559,15:29:51:292,15:29:54:296,right,15:29:54:579,,2018_Jun_13_1527,59.9373792805,MP-Perception Experiment,xx20m31,
12,dmp_npsi(20)_final(5).webm,False,left,0,training(37).webm,0,11,11,134,,,,,,,,15:29:55:535,15:29:56:080,15:29:59:082,left,15:29:59:249,,2018_Jun_13_1527,59.9373792805,MP-Perception Experiment,xx20m31,
13,training(33).webm,True,right,0,vcgpdm_dyn(30)-lvm(5)_final(6).webm,0,12,12,0,,,,,,,,15:30:00:207,15:30:00:751,15:30:03:753,left,15:30:04:170,,2018_Jun_13_1527,59.9373792805,MP-Perception Experiment,xx20m31,
14,training(48).webm,False,right,0,vgpdm_dyn(30)-lvm(10)_final(1).webm,0,13,13,120,,,,,,,,15:30:05:158,15:30:05:686,15:30:08:672,right,15:30:09:022,,2018_Jun_13_1527,59.9373792805,MP-Perception Experiment,xx20m31,
15,map_cgpdm_final(7).webm,True,left,0,training(12).webm,0,14,14,121,,,,,,,,15:30:09:791,15:30:10:523,15:30:13:527,left,15:30:13:577,,2018_Jun_13_1527,59.9373792805,MP-Perception Experiment,xx20m31,
16,training(29).webm,False,right,0,vgpdm_dyn(35)-lvm(35)_final(9).webm,0,15,15,64,,,,,,,,15:30:14:343,15:30:15:078,15:30:18:066,right,15:30:18:516,,2018_Jun_13_1527,59.9373792805,MP-Perception Experiment,xx20m31,
17,training(19).webm,False,right,0,map_gpdm_final(1).webm,0,16,16,13,,,,,,,,15:30:19:452,15:30:20:017,15:30:23:020,right,15:30:23:703,,2018_Jun_13_1527,59.9373792805,MP-Perception Experiment,xx20m31,
18,vgpdm_dyn(10)-lvm(30)_final(8).webm,True,left,0,training(5).webm,0,17,17,66,,,,,,,,15:30:24:642,15:30:25:205,15:30:28:208,left,15:30:28:408,,2018_Jun_13_1527,59.9373792805,MP-Perception Experiment,xx20m31,
19,vcgpdm_dyn(35)-lvm(25)_final(7).webm,True,left,0,training(36).webm,0,18,18,65,,,,,,,,15:30:29:351,15:30:29:909,15:30:32:912,left,15:30:33:129,,2018_Jun_13_1527,59.9373792805,MP-Perception Experiment,xx20m31,
20,vcgpdm_dyn(35)-lvm(25)_final(5).webm,True,left,0,training(19).webm,0,19,19,135,,,,,,,,15:30:34:074,15:30:34:630,15:30:37:632,left,15:30:37:732,,2018_Jun_13_1527,59.9373792805,MP-Perception Experiment,xx20m31,
21,training(5).webm,True,right,0,vcgpdm_dyn(20)-lvm(25)_final(8).webm,0,20,20,86,,,,,,,,15:30:38:494,15:30:39:234,15:30:42:236,right,15:30:42:536,,2018_Jun_13_1527,59.9373792805,MP-Perception Experiment,xx20m31,
22,vgpdm_dyn(30)-lvm(35)_final(2).webm,True,left,0,training(11).webm,0,21,21,143,,,,,,,,15:30:43:293,15:30:44:037,15:30:47:041,left,15:30:47:325,,2018_Jun_13_1527,59.9373792805,MP-Perception Experiment,xx20m31,
23,training(40).webm,True,right,0,vgpdm_dyn(20)-lvm(5)_final(8).webm,0,22,22,154,,,,,,,,15:30:48:082,15:30:48:826,15:30:51:828,right,15:30:52:028,,2018_Jun_13_1527,59.9373792805,MP-Perception Experiment,xx20m31,
24,vgpdm_dyn(25)-lvm(5)_final(3).webm,True,left,0,training(41).webm,0,23,23,110,,,,,,,,15:30:52:781,15:30:53:529,15:30:56:530,left,15:30:56:880,,2018_Jun_13_1527,59.9373792805,MP-Perception Experiment,xx20m31,
25,vcgpdm_dyn(30)-lvm(20)_final(9).webm,False,left,0,training(20).webm,0,24,24,133,,,,,,,,15:30:57:639,15:30:58:382,15:31:01:384,left,15:31:01:768,,2018_Jun_13_1527,59.9373792805,MP-Perception Experiment,xx20m31,
26,vcgpdm_dyn(25)-lvm(10)_final(4).webm,True,left,0,training(20).webm,0,25,25,74,,,,,,,,15:31:02:572,15:31:03:270,15:31:06:272,left,15:31:06:573,,2018_Jun_13_1527,59.9373792805,MP-Perception Experiment,xx20m31,
27,training(21).webm,True,right,0,vgpdm_dyn(15)-lvm(20)_final(3)_out_of_screen.webm,0,26,26,12,,,,,,,,15:31:07:367,15:31:08:074,15:31:11:061,right,15:31:11:595,,2018_Jun_13_1527,59.9373792805,MP-Perception Experiment,xx20m31,
28,vgpdm_dyn(35)-lvm(5)_final(1).webm,True,left,0,training(22).webm,0,27,27,117,,,,,,,,15:31:12:532,15:31:13:096,15:31:16:099,left,15:31:16:466,,2018_Jun_13_1527,59.9373792805,MP-Perception Experiment,xx20m31,
29,training(32).webm,True,right,0,vgpdm_dyn(30)-lvm(20)_final(2).webm,0,28,28,124,,,,,,,,15:31:17:229,15:31:17:967,15:31:20:970,left,15:31:21:221,,2018_Jun_13_1527,59.9373792805,MP-Perception Experiment,xx20m31,
30,training(22).webm,False,right,0,tmp_numprim(2)_final(1).webm,0,29,29,132,,,,,,,,15:31:22:162,15:31:22:722,15:31:25:724,right,15:31:26:041,,2018_Jun_13_1527,59.9373792805,MP-Perception Experiment,xx20m31,
31,vcgpdm_dyn(25)-lvm(35)_final(4).webm,False,left,0,training(22).webm,0,30,30,99,,,,,,,,15:31:26:809,15:31:27:542,15:31:30:545,right,15:31:30:912,,2018_Jun_13_1527,59.9373792805,MP-Perception Experiment,xx20m31,
32,vgpdm_dyn(5)-lvm(10)_final(9).webm,False,left,0,training(1).webm,0,31,31,97,,,,,,,,15:31:31:852,15:31:32:413,15:31:35:415,left,15:31:35:649,,2018_Jun_13_1527,59.9373792805,MP-Perception Experiment,xx20m31,
33,training(20).webm,False,right,0,vcgpdm_dyn(10)-lvm(35)_final(7).webm,0,32,32,96,,,,,,,,15:31:36:597,15:31:37:150,15:31:40:154,left,15:31:40:287,,2018_Jun_13_1527,59.9373792805,MP-Perception Experiment,xx20m31,
34,vcgpdm_dyn(30)-lvm(5)_final(6).webm,True,left,0,training(28).webm,0,33,33,60,,,,,,,,15:31:41:224,15:31:41:788,15:31:44:791,left,15:31:45:041,,2018_Jun_13_1527,59.9373792805,MP-Perception Experiment,xx20m31,
35,map_cgpdm_final(4).webm,True,left,0,training(48).webm,0,34,34,105,,,,,,,,15:31:45:820,15:31:46:557,15:31:49:559,left,15:31:49:910,,2018_Jun_13_1527,59.9373792805,MP-Perception Experiment,xx20m31,
36,vgpdm_dyn(30)-lvm(35)_final(7).webm,False,left,0,training(26).webm,0,35,35,71,,,,,,,,15:31:50:851,15:31:51:411,15:31:54:413,left,15:31:54:980,,2018_Jun_13_1527,59.9373792805,MP-Perception Experiment,xx20m31,
37,training(19).webm,True,right,0,vgpdm_dyn(5)-lvm(25)_final(1)_out_of_screen.webm,0,36,36,136,,,,,,,,15:31:55:742,15:31:56:484,15:31:59:470,right,15:31:59:870,,2018_Jun_13_1527,59.9373792805,MP-Perception Experiment,xx20m31,
38,vcgpdm_dyn(5)-lvm(25)_final(3).webm,True,left,0,training(24).webm,0,37,37,104,,,,,,,,15:32:00:639,15:32:01:372,15:32:04:374,left,15:32:04:658,,2018_Jun_13_1527,59.9373792805,MP-Perception Experiment,xx20m31,
39,vgpdm_dyn(5)-lvm(30)_final(3).webm,True,left,0,training(0).webm,0,38,38,94,,,,,,,,15:32:05:422,15:32:06:159,15:32:09:161,left,15:32:09:428,,2018_Jun_13_1527,59.9373792805,MP-Perception Experiment,xx20m31,
40,vcgpdm_dyn(35)-lvm(25)_final(2).webm,False,left,0,training(9).webm,0,39,39,44,,,,,,,,15:32:10:211,15:32:10:929,15:32:13:933,left,15:32:14:233,,2018_Jun_13_1527,59.9373792805,MP-Perception Experiment,xx20m31,
41,vcgpdm_dyn(25)-lvm(15)_final(7).webm,False,left,0,training(34).webm,0,40,40,83,,,,,,,,15:32:15:000,15:32:15:734,15:32:18:737,left,15:32:19:020,,2018_Jun_13_1527,59.9373792805,MP-Perception Experiment,xx20m31,
42,vcgpdm_dyn(30)-lvm(30)_final(0).webm,False,left,0,training(18).webm,0,41,41,17,,,,,,,,15:32:19:782,15:32:20:521,15:32:23:524,left,15:32:23:724,,2018_Jun_13_1527,59.9373792805,MP-Perception Experiment,xx20m31,
43,training(5).webm,True,right,0,vcgpdm_dyn(30)-lvm(10)_final(2).webm,0,42,42,103,,,,,,,,15:32:24:626,15:32:25:225,15:32:28:228,right,15:32:28:578,,2018_Jun_13_1527,59.9373792805,MP-Perception Experiment,xx20m31,
44,vcgpdm_dyn(10)-lvm(15)_final(1).webm,True,left,0,training(14).webm,0,43,43,57,,,,,,,,15:32:29:510,15:32:30:079,15:32:33:083,left,15:32:33:216,,2018_Jun_13_1527,59.9373792805,MP-Perception Experiment,xx20m31,
45,training(23).webm,True,right,0,vcgpdm_dyn(25)-lvm(25)_final(3).webm,0,44,44,4,,,,,,,,15:32:34:149,15:32:34:717,15:32:37:718,left,15:32:38:335,,2018_Jun_13_1527,59.9373792805,MP-Perception Experiment,xx20m31,
46,training(9).webm,False,right,0,vgpdm_dyn(10)-lvm(5)_final(1).webm,0,45,45,61,,,,,,,,15:32:39:279,15:32:39:836,15:32:42:839,right,15:32:43:189,,2018_Jun_13_1527,59.9373792805,MP-Perception Experiment,xx20m31,
47,vcgpdm_dyn(25)-lvm(15)_final(1).webm,False,left,0,training(17).webm,0,46,46,58,,,,,,,,15:32:43:948,15:32:44:690,15:32:47:693,left,15:32:48:711,,2018_Jun_13_1527,59.9373792805,MP-Perception Experiment,xx20m31,
48,vgpdm_dyn(35)-lvm(30)_final(6).webm,False,left,0,training(36).webm,0,47,47,73,,,,,,,,15:32:49:465,15:32:50:214,15:32:53:217,left,15:32:53:617,,2018_Jun_13_1527,59.9373792805,MP-Perception Experiment,xx20m31,
49,map_cgpdm_final(6).webm,False,left,0,training(12).webm,0,48,48,147,,,,,,,,15:32:54:558,15:32:55:118,15:32:58:120,left,15:32:58:354,,2018_Jun_13_1527,59.9373792805,MP-Perception Experiment,xx20m31,
50,training(0).webm,True,right,0,vcgpdm_dyn(25)-lvm(25)_final(6).webm,0,49,49,148,,,,,,,,15:32:59:294,15:32:59:855,15:33:02:858,left,15:33:03:024,,2018_Jun_13_1527,59.9373792805,MP-Perception Experiment,xx20m31,
51,vgpdm_dyn(25)-lvm(35)_final(8).webm,False,left,0,training(12).webm,0,50,50,112,,,,,,,,15:33:03:963,15:33:04:525,15:33:07:529,left,15:33:07:813,,2018_Jun_13_1527,59.9373792805,MP-Perception Experiment,xx20m31,
52,training(33).webm,False,right,0,vgpdm_dyn(5)-lvm(5)_final(7)_out_of_screen.webm,0,51,51,43,,,,,,,,15:33:08:752,15:33:09:314,15:33:12:316,right,15:33:12:633,,2018_Jun_13_1527,59.9373792805,MP-Perception Experiment,xx20m31,
53,vcgpdm_dyn(35)-lvm(35)_final(5)_bad.webm,False,left,0,training(4).webm,0,52,52,51,,,,,,,,15:33:13:606,15:33:14:134,15:33:17:137,left,15:33:17:637,,2018_Jun_13_1527,59.9373792805,MP-Perception Experiment,xx20m31,
54,vcgpdm_dyn(30)-lvm(25)_final(9).webm,True,left,0,training(15).webm,0,53,53,1,,,,,,,,15:33:18:404,15:33:19:138,15:33:22:141,left,15:33:22:408,,2018_Jun_13_1527,59.9373792805,MP-Perception Experiment,xx20m31,
55,vgpdm_dyn(20)-lvm(25)_final(9).webm,True,left,0,training(32).webm,0,54,54,107,,,,,,,,15:33:23:356,15:33:23:910,15:33:26:910,left,15:33:27:144,,2018_Jun_13_1527,59.9373792805,MP-Perception Experiment,xx20m31,
56,vcgpdm_dyn(5)-lvm(20)_final(8).webm,False,left,0,training(1).webm,0,55,55,23,,,,,,,,15:33:27:932,15:33:28:645,15:33:31:648,left,15:33:31:764,,2018_Jun_13_1527,59.9373792805,MP-Perception Experiment,xx20m31,
57,training(21).webm,False,right,0,vcgpdm_dyn(35)-lvm(30)_final(2).webm,0,56,56,156,,,,,,,,15:33:32:526,15:33:33:266,15:33:36:268,right,15:33:36:503,,2018_Jun_13_1527,59.9373792805,MP-Perception Experiment,xx20m31,
58,vgpdm_dyn(35)-lvm(30)_final(2).webm,False,left,0,training(48).webm,0,57,57,87,,,,,,,,15:33:37:267,15:33:38:004,15:33:41:008,left,15:33:41:308,,2018_Jun_13_1527,59.9373792805,MP-Perception Experiment,xx20m31,
59,training(28).webm,True,right,0,vgpdm_dyn(10)-lvm(10)_final(1).webm,0,58,58,40,,,,,,,,15:33:42:067,15:33:42:809,15:33:45:812,left,15:33:46:212,,2018_Jun_13_1527,59.9373792805,MP-Perception Experiment,xx20m31,
60,vgpdm_dyn(15)-lvm(10)_final(9)_out_of_screen.webm,True,left,0,training(34).webm,0,59,59,127,,,,,,,,15:33:46:982,15:33:47:713,15:33:50:716,left,15:33:51:083,,2018_Jun_13_1527,59.9373792805,MP-Perception Experiment,xx20m31,
61,training(34).webm,True,right,0,vcgpdm_dyn(30)-lvm(20)_final(8).webm,0,60,60,59,,,,,,,,15:33:51:939,15:33:52:584,15:33:55:586,right,15:33:55:870,,2018_Jun_13_1527,59.9373792805,MP-Perception Experiment,xx20m31,
62,vgpdm_dyn(25)-lvm(20)_final(4).webm,False,left,0,training(22).webm,0,61,61,22,,,,,,,,15:33:56:628,15:33:57:371,15:34:00:375,left,15:34:00:725,,2018_Jun_13_1527,59.9373792805,MP-Perception Experiment,xx20m31,
63,tmp_numprim(6)_final(8).webm,True,left,0,training(24).webm,0,62,62,150,,,,,,,,15:34:01:662,15:34:02:226,15:34:05:229,left,15:34:05:679,,2018_Jun_13_1527,59.9373792805,MP-Perception Experiment,xx20m31,
64,vgpdm_dyn(35)-lvm(5)_final(3).webm,False,left,0,training(37).webm,0,63,63,108,,,,,,,,15:34:06:618,15:34:07:180,15:34:10:183,left,15:34:10:666,,2018_Jun_13_1527,59.9373792805,MP-Perception Experiment,xx20m31,
65,vcgpdm_dyn(20)-lvm(20)_final(3).webm,False,left,0,training(25).webm,0,64,64,126,,,,,,,,15:34:11:609,15:34:12:167,15:34:15:170,right,15:34:15:536,,2018_Jun_13_1527,59.9373792805,MP-Perception Experiment,xx20m31,
66,training(17).webm,False,right,0,vgpdm_dyn(5)-lvm(20)_final(3).webm,0,65,65,90,,,,,,,,15:34:16:472,15:34:17:037,15:34:20:040,right,15:34:20:357,,2018_Jun_13_1527,59.9373792805,MP-Perception Experiment,xx20m31,
67,vcgpdm_dyn(15)-lvm(15)_final(5).webm,False,left,0,training(5).webm,0,66,66,54,,,,,,,,15:34:21:322,15:34:21:858,15:34:24:860,right,15:34:25:177,,2018_Jun_13_1527,59.9373792805,MP-Perception Experiment,xx20m31,
68,vgpdm_dyn(15)-lvm(5)_final(0).webm,False,left,0,training(18).webm,0,67,67,35,,,,,,,,15:34:26:796,15:34:26:796,15:34:29:666,right,15:34:30:150,,2018_Jun_13_1527,59.9373792805,MP-Perception Experiment,xx20m31,
69,training(38).webm,False,right,0,map_cgpdm_final(3).webm,0,68,68,19,,,,,,,,15:34:31:080,15:34:31:651,15:34:34:654,right,15:34:34:988,,2018_Jun_13_1527,59.9373792805,MP-Perception Experiment,xx20m31,
70,training(26).webm,False,right,0,vcgpdm_dyn(20)-lvm(35)_final(0).webm,0,69,69,16,,,,,,,,15:34:35:919,15:34:36:489,15:34:39:492,right,15:34:39:925,,2018_Jun_13_1527,59.9373792805,MP-Perception Experiment,xx20m31,
71,training(15).webm,False,right,0,map_gpdm_final(7).webm,0,70,70,34,,,,,,,,15:34:40:856,15:34:41:426,15:34:44:429,right,15:34:44:629,,2018_Jun_13_1527,59.9373792805,MP-Perception Experiment,xx20m31,
72,vcgpdm_dyn(35)-lvm(10)_final(1).webm,True,left,0,training(27).webm,0,71,71,47,,,,,,,,15:34:45:396,15:34:46:130,15:34:49:133,right,15:34:49:533,,2018_Jun_13_1527,59.9373792805,MP-Perception Experiment,xx20m31,
73,vgpdm_dyn(25)-lvm(30)_final(8).webm,True,left,0,training(35).webm,0,72,72,109,,,,,,,,15:34:50:470,15:34:51:035,15:34:54:038,left,15:34:54:405,,2018_Jun_13_1527,59.9373792805,MP-Perception Experiment,xx20m31,
74,vgpdm_dyn(35)-lvm(15)_final(2)_out_of_screen.webm,True,left,0,training(16).webm,0,73,73,84,,,,,,,,15:34:55:163,15:34:55:906,15:34:58:908,left,15:34:59:242,,2018_Jun_13_1527,59.9373792805,MP-Perception Experiment,xx20m31,
75,dmp_npsi(15)_final(9).webm,False,left,0,training(25).webm,0,74,74,2,,,,,,,,15:35:00:012,15:35:00:743,15:35:03:745,left,15:35:03:762,,2018_Jun_13_1527,59.9373792805,MP-Perception Experiment,xx20m31,
76,training(48).webm,False,right,0,vcgpdm_dyn(15)-lvm(25)_final(3).webm,0,75,75,144,,,,,,,,15:35:04:522,15:35:05:278,15:35:08:265,right,15:35:08:548,,2018_Jun_13_1527,59.9373792805,MP-Perception Experiment,xx20m31,
77,vcgpdm_dyn(10)-lvm(5)_final(2).webm,False,left,0,training(13).webm,0,76,76,36,,,,,,,,15:35:09:309,15:35:10:050,15:35:13:052,right,15:35:13:569,,2018_Jun_13_1527,59.9373792805,MP-Perception Experiment,xx20m31,
78,vcgpdm_dyn(15)-lvm(30)_final(8).webm,False,left,0,training(30).webm,0,77,77,113,,,,,,,,15:35:14:508,15:35:15:070,15:35:18:058,left,15:35:18:508,,2018_Jun_13_1527,59.9373792805,MP-Perception Experiment,xx20m31,
79,dmp_npsi(50)_final(2).webm,True,left,0,training(8).webm,0,78,78,79,,,,,,,,15:35:19:265,15:35:20:009,15:35:23:012,left,15:35:23:446,,2018_Jun_13_1527,59.9373792805,MP-Perception Experiment,xx20m31,
80,vgpdm_dyn(15)-lvm(25)_final(8).webm,True,left,0,training(7).webm,0,79,79,119,,,,,,,,15:35:24:392,15:35:24:947,15:35:27:950,right,15:35:28:167,,2018_Jun_13_1527,59.9373792805,MP-Perception Experiment,xx20m31,
81,vgpdm_dyn(30)-lvm(5)_final(3).webm,True,left,0,training(16).webm,0,80,80,115,,,,,,,,15:35:28:935,15:35:29:668,15:35:32:671,left,15:35:32:971,,2018_Jun_13_1527,59.9373792805,MP-Perception Experiment,xx20m31,
82,training(5).webm,True,right,0,vcgpdm_dyn(25)-lvm(20)_final(4).webm,0,81,81,140,,,,,,,,15:35:33:910,15:35:34:472,15:35:37:475,right,15:35:38:108,,2018_Jun_13_1527,59.9373792805,MP-Perception Experiment,xx20m31,
83,training(28).webm,True,right,0,vgpdm_dyn(5)-lvm(20)_final(4).webm,0,82,82,152,,,,,,,,15:35:38:872,15:35:39:610,15:35:42:612,right,15:35:42:947,,2018_Jun_13_1527,59.9373792805,MP-Perception Experiment,xx20m31,
84,vcgpdm_dyn(5)-lvm(5)_final(8).webm,False,left,0,training(30).webm,0,83,83,98,,,,,,,,15:35:43:819,15:35:44:448,15:35:47:450,left,15:35:47:901,,2018_Jun_13_1527,59.9373792805,MP-Perception Experiment,xx20m31,
85,training(4).webm,True,right,0,vcgpdm_dyn(30)-lvm(35)_final(8).webm,0,84,84,5,,,,,,,,15:35:48:669,15:35:49:402,15:35:52:404,right,15:35:52:738,,2018_Jun_13_1527,59.9373792805,MP-Perception Experiment,xx20m31,
86,training(13).webm,True,right,0,vgpdm_dyn(30)-lvm(15)_final(0).webm,0,85,85,68,,,,,,,,15:35:53:670,15:35:54:239,15:35:57:240,right,15:35:57:523,,2018_Jun_13_1527,59.9373792805,MP-Perception Experiment,xx20m31,
87,vgpdm_dyn(30)-lvm(5)_final(4).webm,False,left,0,training(30).webm,0,86,86,106,,,,,,,,15:35:58:283,15:35:59:024,15:36:02:028,left,15:36:02:462,,2018_Jun_13_1527,59.9373792805,MP-Perception Experiment,xx20m31,
88,training(39).webm,False,right,0,map_cgpdm_final(9).webm,0,87,87,101,,,,,,,,15:36:03:410,15:36:03:963,15:36:06:965,right,15:36:07:232,,2018_Jun_13_1527,59.9373792805,MP-Perception Experiment,xx20m31,
89,training(32).webm,False,right,0,vcgpdm_dyn(25)-lvm(30)_final(4).webm,0,88,88,81,,,,,,,,15:36:07:992,15:36:08:733,15:36:11:721,left,15:36:12:488,,2018_Jun_13_1527,59.9373792805,MP-Perception Experiment,xx20m31,
90,training(24).webm,False,right,0,tmp_numprim(9)_final(4).webm,0,89,89,48,,,,,,,,15:36:13:457,15:36:14:006,15:36:16:992,right,15:36:17:359,,2018_Jun_13_1527,59.9373792805,MP-Perception Experiment,xx20m31,
91,vgpdm_dyn(15)-lvm(15)_final(8).webm,False,left,0,training(30).webm,0,90,90,46,,,,,,,,15:36:18:123,15:36:18:861,15:36:21:863,left,15:36:22:264,,2018_Jun_13_1527,59.9373792805,MP-Perception Experiment,xx20m31,
92,vgpdm_dyn(30)-lvm(20)_final(8).webm,True,left,0,training(7).webm,0,91,91,3,,,,,,,,15:36:23:034,15:36:23:765,15:36:26:767,left,15:36:26:901,,2018_Jun_13_1527,59.9373792805,MP-Perception Experiment,xx20m31,
93,training(12).webm,False,right,0,vcgpdm_dyn(30)-lvm(30)_final(2).webm,0,92,92,116,,,,,,,,15:36:27:662,15:36:28:402,15:36:31:404,right,15:36:31:605,,2018_Jun_13_1527,59.9373792805,MP-Perception Experiment,xx20m31,
94,training(29).webm,False,right,0,vgpdm_dyn(25)-lvm(20)_final(0).webm,0,93,93,82,,,,,,,,15:36:32:364,15:36:33:106,15:36:36:109,right,15:36:36:459,,2018_Jun_13_1527,59.9373792805,MP-Perception Experiment,xx20m31,
95,training(34).webm,False,right,0,vcgpdm_dyn(5)-lvm(15)_final(9).webm,0,94,94,26,,,,,,,,15:36:37:226,15:36:37:961,15:36:40:963,right,15:36:41:197,,2018_Jun_13_1527,59.9373792805,MP-Perception Experiment,xx20m31,
96,training(1).webm,True,right,0,vgpdm_dyn(30)-lvm(20)_final(5).webm,0,95,95,50,,,,,,,,15:36:42:129,15:36:42:698,15:36:45:698,left,15:36:45:932,,2018_Jun_13_1527,59.9373792805,MP-Perception Experiment,xx20m31,
97,training(9).webm,True,right,0,vgpdm_dyn(20)-lvm(30)_final(2).webm,0,96,96,24,,,,,,,,15:36:46:697,15:36:47:433,15:36:50:436,right,15:36:50:869,,2018_Jun_13_1527,59.9373792805,MP-Perception Experiment,xx20m31,
98,training(17).webm,True,right,0,vgpdm_dyn(20)-lvm(30)_final(0).webm,0,97,97,38,,,,,,,,15:36:51:637,15:36:52:370,15:36:55:374,right,15:36:55:691,,2018_Jun_13_1527,59.9373792805,MP-Perception Experiment,xx20m31,
99,training(39).webm,True,right,0,vcgpdm_dyn(30)-lvm(35)_final(6).webm,0,98,98,92,,,,,,,,15:36:56:627,15:36:57:194,15:37:00:180,right,15:37:00:363,,2018_Jun_13_1527,59.9373792805,MP-Perception Experiment,xx20m31,
100,training(27).webm,False,right,0,vgpdm_dyn(20)-lvm(20)_final(9).webm,0,99,99,20,,,,,,,,15:37:01:303,15:37:01:864,15:37:04:867,left,15:37:05:100,,2018_Jun_13_1527,59.9373792805,MP-Perception Experiment,xx20m31,
101,training(25).webm,False,right,0,vcgpdm_dyn(10)-lvm(25)_final(2).webm,0,100,100,149,,,,,,,,15:37:06:059,15:37:06:601,15:37:09:604,right,15:37:09:838,,2018_Jun_13_1527,59.9373792805,MP-Perception Experiment,xx20m31,
102,training(18).webm,False,right,0,vcgpdm_dyn(20)-lvm(5)_final(6).webm,0,101,101,122,,,,,,,,15:37:10:796,15:37:11:340,15:37:14:342,right,15:37:14:459,,2018_Jun_13_1527,59.9373792805,MP-Perception Experiment,xx20m31,
103,training(35).webm,True,right,0,vcgpdm_dyn(5)-lvm(10)_final(6).webm,0,102,102,80,,,,,,,,15:37:15:411,15:37:15:960,15:37:18:963,right,15:37:19:029,,2018_Jun_13_1527,59.9373792805,MP-Perception Experiment,xx20m31,
104,training(21).webm,True,right,0,vcgpdm_dyn(30)-lvm(10)_final(5).webm,0,103,103,18,,,,,,,,15:37:19:830,15:37:20:530,15:37:23:533,right,15:37:23:666,,2018_Jun_13_1527,59.9373792805,MP-Perception Experiment,xx20m31,
105,map_cgpdm_final(0).webm,True,left,0,training(14).webm,0,104,104,42,,,,,,,,15:37:24:458,15:37:25:167,15:37:28:171,left,15:37:28:471,,2018_Jun_13_1527,59.9373792805,MP-Perception Experiment,xx20m31,
106,training(32).webm,True,right,0,vcgpdm_dyn(15)-lvm(10)_final(7).webm,0,105,105,56,,,,,,,,15:37:29:293,15:37:29:972,15:37:32:975,left,15:37:32:991,,2018_Jun_13_1527,59.9373792805,MP-Perception Experiment,xx20m31,
107,training(29).webm,False,right,0,dmp_npsi(20)_final(1).webm,0,106,106,70,,,,,,,,15:37:33:762,15:37:34:493,15:37:37:493,right,15:37:37:727,,2018_Jun_13_1527,59.9373792805,MP-Perception Experiment,xx20m31,
108,vcgpdm_dyn(15)-lvm(35)_final(1).webm,False,left,0,training(13).webm,0,107,107,69,,,,,,,,15:37:38:491,15:37:39:228,15:37:42:230,left,15:37:42:247,,2018_Jun_13_1527,59.9373792805,MP-Perception Experiment,xx20m31,
109,vgpdm_dyn(5)-lvm(20)_final(0).webm,True,left,0,training(41).webm,0,108,108,27,,,,,,,,15:37:43:188,15:37:43:748,15:37:46:752,left,15:37:47:085,,2018_Jun_13_1527,59.9373792805,MP-Perception Experiment,xx20m31,
110,training(15).webm,True,right,0,tmp_numprim(10)_final(2).webm,0,109,109,75,,,,,,,,15:37:47:849,15:37:48:586,15:37:51:574,left,15:37:51:941,,2018_Jun_13_1527,59.9373792805,MP-Perception Experiment,xx20m31,
111,training(10).webm,False,right,0,vcgpdm_dyn(5)-lvm(5)_final(1).webm,0,110,110,77,,,,,,,,15:37:52:709,15:37:53:459,15:37:56:445,right,15:37:56:762,,2018_Jun_13_1527,59.9373792805,MP-Perception Experiment,xx20m31,
112,vgpdm_dyn(10)-lvm(5)_final(2).webm,False,left,0,training(16).webm,0,111,111,100,,,,,,,,15:37:57:624,15:37:58:263,15:38:01:265,left,15:38:01:499,,2018_Jun_13_1527,59.9373792805,MP-Perception Experiment,xx20m31,
113,training(7).webm,False,right,0,vcgpdm_dyn(10)-lvm(30)_final(0).webm,0,112,112,89,,,,,,,,15:38:02:262,15:38:03:001,15:38:06:004,right,15:38:06:437,,2018_Jun_13_1527,59.9373792805,MP-Perception Experiment,xx20m31,
114,training(4).webm,False,right,0,vcgpdm_dyn(5)-lvm(20)_final(5).webm,0,113,113,85,,,,,,,,15:38:07:372,15:38:07:938,15:38:10:941,right,15:38:11:208,,2018_Jun_13_1527,59.9373792805,MP-Perception Experiment,xx20m31,
115,training(25).webm,False,right,0,tmp_numprim(2)_final(1).webm,0,114,114,31,,,,,,,,15:38:12:156,15:38:12:709,15:38:15:711,right,15:38:15:978,,2018_Jun_13_1527,59.9373792805,MP-Perception Experiment,xx20m31,
116,vgpdm_dyn(5)-lvm(15)_final(9).webm,True,left,0,training(21).webm,0,115,115,102,,,,,,,,15:38:16:934,15:38:17:479,15:38:20:483,right,15:38:20:916,,2018_Jun_13_1527,59.9373792805,MP-Perception Experiment,xx20m31,
117,training(21).webm,True,right,0,vcgpdm_dyn(20)-lvm(5)_final(0).webm,0,116,116,91,,,,,,,,15:38:21:869,15:38:22:418,15:38:25:418,left,15:38:25:835,,2018_Jun_13_1527,59.9373792805,MP-Perception Experiment,xx20m31,
118,vcgpdm_dyn(30)-lvm(15)_final(4).webm,True,left,0,training(12).webm,0,117,117,137,,,,,,,,15:38:26:708,15:38:27:336,15:38:30:339,left,15:38:30:422,,2018_Jun_13_1527,59.9373792805,MP-Perception Experiment,xx20m31,
119,vgpdm_dyn(10)-lvm(35)_final(6).webm,True,left,0,training(29).webm,0,118,118,125,,,,,,,,15:38:31:213,15:38:31:923,15:38:34:926,left,15:38:35:093,,2018_Jun_13_1527,59.9373792805,MP-Perception Experiment,xx20m31,
120,vcgpdm_dyn(5)-lvm(25)_final(9).webm,True,left,0,training(3).webm,0,119,119,128,,,,,,,,15:38:35:854,15:38:36:596,15:38:39:582,left,15:38:39:883,,2018_Jun_13_1527,59.9373792805,MP-Perception Experiment,xx20m31,
121,vcgpdm_dyn(20)-lvm(25)_final(4).webm,False,left,0,training(9).webm,0,120,120,49,,,,,,,,15:38:40:643,15:38:41:384,15:38:44:386,left,15:38:44:420,,2018_Jun_13_1527,59.9373792805,MP-Perception Experiment,xx20m31,
122,vcgpdm_dyn(35)-lvm(30)_final(5).webm,True,left,0,training(0).webm,0,121,121,139,,,,,,,,15:38:45:181,15:38:45:921,15:38:48:923,left,15:38:49:324,,2018_Jun_13_1527,59.9373792805,MP-Perception Experiment,xx20m31,
123,vcgpdm_dyn(15)-lvm(25)_final(5).webm,True,left,0,training(16).webm,0,122,122,114,,,,,,,,15:38:50:261,15:38:50:825,15:38:53:827,left,15:38:54:244,,2018_Jun_13_1527,59.9373792805,MP-Perception Experiment,xx20m31,
124,training(21).webm,True,right,0,dmp_npsi(20)_final(3).webm,0,123,123,151,,,,,,,,15:38:55:187,15:38:55:746,15:38:58:749,right,15:38:59:133,,2018_Jun_13_1527,59.9373792805,MP-Perception Experiment,xx20m31,
125,training(25).webm,False,right,0,map_gpdm_final(5).webm,0,124,124,32,,,,,,,,15:39:00:069,15:39:00:634,15:39:03:636,right,15:39:03:886,,2018_Jun_13_1527,59.9373792805,MP-Perception Experiment,xx20m31,
126,training(41).webm,False,right,0,vgpdm_dyn(10)-lvm(30)_final(9).webm,0,125,125,130,,,,,,,,15:39:04:822,15:39:05:387,15:39:08:390,right,15:39:08:674,,2018_Jun_13_1527,59.9373792805,MP-Perception Experiment,xx20m31,
127,training(35).webm,False,right,0,vgpdm_dyn(10)-lvm(5)_final(7).webm,0,126,126,63,,,,,,,,15:39:09:435,15:39:10:175,15:39:13:178,right,15:39:13:328,,2018_Jun_13_1527,59.9373792805,MP-Perception Experiment,xx20m31,
128,vgpdm_dyn(30)-lvm(25)_final(2).webm,False,left,0,training(6).webm,0,127,127,93,,,,,,,,15:39:14:270,15:39:14:829,15:39:17:830,right,15:39:18:247,,2018_Jun_13_1527,59.9373792805,MP-Perception Experiment,xx20m31,
129,training(24).webm,True,right,0,vcgpdm_dyn(20)-lvm(20)_final(5).webm,0,128,128,88,,,,,,,,15:39:19:015,15:39:19:748,15:39:22:751,left,15:39:22:784,,2018_Jun_13_1527,59.9373792805,MP-Perception Experiment,xx20m31,
130,vcgpdm_dyn(10)-lvm(25)_final(8).webm,True,left,0,training(21).webm,0,129,129,53,,,,,,,,15:39:23:733,15:39:24:285,15:39:27:288,left,15:39:27:538,,2018_Jun_13_1527,59.9373792805,MP-Perception Experiment,xx20m31,
131,tmp_numprim(4)_final(3).webm,True,left,0,training(11).webm,0,130,130,41,,,,,,,,15:39:28:304,15:39:29:039,15:39:32:028,left,15:39:32:261,,2018_Jun_13_1527,59.9373792805,MP-Perception Experiment,xx20m31,
132,training(31).webm,True,right,0,vcgpdm_dyn(5)-lvm(20)_final(1).webm,0,131,131,131,,,,,,,,15:39:33:058,15:39:33:762,15:39:36:765,right,15:39:37:032,,2018_Jun_13_1527,59.9373792805,MP-Perception Experiment,xx20m31,
133,vcgpdm_dyn(20)-lvm(35)_final(8).webm,False,left,0,training(3).webm,0,132,132,95,,,,,,,,15:39:37:794,15:39:38:533,15:39:41:536,left,15:39:41:786,,2018_Jun_13_1527,59.9373792805,MP-Perception Experiment,xx20m31,
134,training(29).webm,False,right,0,vcgpdm_dyn(25)-lvm(20)_final(5).webm,0,133,133,15,,,,,,,,15:39:42:548,15:39:43:287,15:39:46:289,right,15:39:46:473,,2018_Jun_13_1527,59.9373792805,MP-Perception Experiment,xx20m31,
135,training(41).webm,True,right,0,vgpdm_dyn(10)-lvm(35)_final(5).webm,0,134,134,55,,,,,,,,15:39:47:240,15:39:47:975,15:39:50:977,right,15:39:51:278,,2018_Jun_13_1527,59.9373792805,MP-Perception Experiment,xx20m31,
136,vcgpdm_dyn(15)-lvm(25)_final(0).webm,False,left,0,training(29).webm,0,135,135,7,,,,,,,,15:39:52:134,15:39:52:779,15:39:55:781,left,15:39:55:881,,2018_Jun_13_1527,59.9373792805,MP-Perception Experiment,xx20m31,
137,training(39).webm,False,right,0,vcgpdm_dyn(10)-lvm(20)_final(7).webm,0,136,136,72,,,,,,,,15:39:56:822,15:39:57:382,15:40:00:385,right,15:40:00:602,,2018_Jun_13_1527,59.9373792805,MP-Perception Experiment,xx20m31,
138,training(3).webm,False,right,0,vgpdm_dyn(25)-lvm(30)_final(0).webm,0,137,137,62,,,,,,,,15:40:01:548,15:40:02:103,15:40:05:106,right,15:40:05:355,,2018_Jun_13_1527,59.9373792805,MP-Perception Experiment,xx20m31,
139,training(40).webm,True,right,0,vcgpdm_dyn(30)-lvm(20)_final(4).webm,0,138,138,145,,,,,,,,15:40:06:295,15:40:06:856,15:40:09:858,right,15:40:10:159,,2018_Jun_13_1527,59.9373792805,MP-Perception Experiment,xx20m31,
140,vgpdm_dyn(10)-lvm(35)_final(8).webm,False,left,0,training(32).webm,0,139,139,158,,,,,,,,15:40:10:931,15:40:11:660,15:40:14:662,left,15:40:14:946,,2018_Jun_13_1527,59.9373792805,MP-Perception Experiment,xx20m31,
141,vcgpdm_dyn(30)-lvm(30)_final(8).webm,True,left,0,training(32).webm,0,140,140,39,,,,,,,,15:40:15:884,15:40:16:447,15:40:19:435,left,15:40:19:668,,2018_Jun_13_1527,59.9373792805,MP-Perception Experiment,xx20m31,
142,training(9).webm,True,right,0,vgpdm_dyn(5)-lvm(10)_final(0).webm,0,141,141,118,,,,,,,,15:40:20:604,15:40:21:169,15:40:24:173,right,15:40:24:323,,2018_Jun_13_1527,59.9373792805,MP-Perception Experiment,xx20m31,
143,vcgpdm_dyn(15)-lvm(10)_final(2).webm,True,left,0,training(5).webm,0,142,142,37,,,,,,,,15:40:25:261,15:40:25:824,15:40:28:827,right,15:40:29:077,,2018_Jun_13_1527,59.9373792805,MP-Perception Experiment,xx20m31,
144,training(37).webm,True,right,0,vcgpdm_dyn(10)-lvm(20)_final(7).webm,0,143,143,157,,,,,,,,15:40:29:842,15:40:30:578,15:40:33:580,right,15:40:33:864,,2018_Jun_13_1527,59.9373792805,MP-Perception Experiment,xx20m31,
145,training(37).webm,False,right,0,vcgpdm_dyn(10)-lvm(35)_final(4).webm,0,144,144,9,,,,,,,,15:40:34:656,15:40:35:365,15:40:38:368,right,15:40:38:701,,2018_Jun_13_1527,59.9373792805,MP-Perception Experiment,xx20m31,
146,vgpdm_dyn(35)-lvm(25)_final(1).webm,False,left,0,training(33).webm,0,145,145,25,,,,,,,,15:40:39:465,15:40:40:203,15:40:43:206,left,15:40:43:589,,2018_Jun_13_1527,59.9373792805,MP-Perception Experiment,xx20m31,
147,vgpdm_dyn(15)-lvm(30)_final(8).webm,True,left,0,training(39).webm,0,146,146,6,,,,,,,,15:40:44:347,15:40:45:091,15:40:48:093,left,15:40:48:477,,2018_Jun_13_1527,59.9373792805,MP-Perception Experiment,xx20m31,
148,vcgpdm_dyn(5)-lvm(10)_final(6).webm,True,left,0,training(23).webm,0,147,147,111,,,,,,,,15:40:49:231,15:40:49:978,15:40:52:980,left,15:40:53:197,,2018_Jun_13_1527,59.9373792805,MP-Perception Experiment,xx20m31,
149,training(48).webm,True,right,0,dmp_npsi(15)_final(4).webm,0,148,148,45,,,,,,,,15:40:53:956,15:40:54:698,15:40:57:700,right,15:40:57:900,,2018_Jun_13_1527,59.9373792805,MP-Perception Experiment,xx20m31,
150,vgpdm_dyn(35)-lvm(35)_final(9).webm,True,left,0,training(17).webm,0,149,149,129,,,,,,,,15:40:58:654,15:40:59:401,15:41:02:404,left,15:41:02:737,,2018_Jun_13_1527,59.9373792805,MP-Perception Experiment,xx20m31,
151,training(21).webm,False,right,0,vgpdm_dyn(5)-lvm(20)_final(3).webm,0,150,150,29,,,,,,,,15:41:03:669,15:41:04:255,15:41:07:241,right,15:41:07:458,,2018_Jun_13_1527,59.9373792805,MP-Perception Experiment,xx20m31,
152,vgpdm_dyn(25)-lvm(5)_final(0).webm,True,left,0,training(29).webm,0,151,151,14,,,,,,,,15:41:08:229,15:41:08:959,15:41:11:947,left,15:41:12:197,,2018_Jun_13_1527,59.9373792805,MP-Perception Experiment,xx20m31,
153,vgpdm_dyn(5)-lvm(15)_final(5).webm,False,left,0,training(22).webm,0,152,152,33,,,,,,,,15:41:13:142,15:41:13:698,15:41:16:702,left,15:41:17:002,,2018_Jun_13_1527,59.9373792805,MP-Perception Experiment,xx20m31,
154,vgpdm_dyn(35)-lvm(30)_final(7).webm,False,left,0,training(3).webm,0,153,153,78,,,,,,,,15:41:17:762,15:41:18:503,15:41:21:505,left,15:41:21:822,,2018_Jun_13_1527,59.9373792805,MP-Perception Experiment,xx20m31,
155,map_gpdm_final(0).webm,True,left,0,training(6).webm,0,154,154,141,,,,,,,,15:41:22:754,15:41:23:323,15:41:26:326,left,15:41:26:509,,2018_Jun_13_1527,59.9373792805,MP-Perception Experiment,xx20m31,
156,training(35).webm,True,right,0,vgpdm_dyn(15)-lvm(15)_final(9).webm,0,155,155,153,,,,,,,,15:41:27:300,15:41:28:011,15:41:31:013,left,15:41:31:297,,2018_Jun_13_1527,59.9373792805,MP-Perception Experiment,xx20m31,
157,vgpdm_dyn(15)-lvm(30)_final(6).webm,False,left,0,training(11).webm,0,156,156,30,,,,,,,,15:41:32:232,15:41:32:799,15:41:35:801,left,15:41:36:268,,2018_Jun_13_1527,59.9373792805,MP-Perception Experiment,xx20m31,
158,dmp_npsi(25)_final(2).webm,True,left,0,training(5).webm,0,157,157,123,,,,,,,,15:41:37:235,15:41:37:769,15:41:40:772,left,15:41:40:855,,2018_Jun_13_1527,59.9373792805,MP-Perception Experiment,xx20m31,
159,vcgpdm_dyn(15)-lvm(5)_final(2).webm,False,left,0,training(5).webm,0,158,158,67,,,,,,,,15:41:41:623,15:41:42:356,15:41:45:357,left,15:41:45:407,,2018_Jun_13_1527,59.9373792805,MP-Perception Experiment,xx20m31,
160,training(28).webm,False,right,1,vcgpdm_dyn(20)-lvm(30)_final(8).webm,0,0,0,131,,,,,,,,15:42:13:923,15:42:14:501,15:42:17:487,right,15:42:18:004,,2018_Jun_13_1527,59.9373792805,MP-Perception Experiment,xx20m31,
161,vcgpdm_dyn(5)-lvm(10)_final(7).webm,False,left,1,training(6).webm,0,1,1,10,,,,,,,,15:42:18:767,15:42:19:522,15:42:22:508,right,15:42:22:758,,2018_Jun_13_1527,59.9373792805,MP-Perception Experiment,xx20m31,
162,vgpdm_dyn(35)-lvm(10)_final(3).webm,True,left,1,training(34).webm,0,2,2,93,,,,,,,,15:42:23:701,15:42:24:259,15:42:27:262,right,15:42:27:496,,2018_Jun_13_1527,59.9373792805,MP-Perception Experiment,xx20m31,
163,training(18).webm,False,right,1,vcgpdm_dyn(25)-lvm(25)_final(3).webm,0,3,3,120,,,,,,,,15:42:28:250,15:42:28:997,15:42:32:000,right,15:42:32:166,,2018_Jun_13_1527,59.9373792805,MP-Perception Experiment,xx20m31,
164,training(16).webm,True,right,1,vcgpdm_dyn(20)-lvm(5)_final(7).webm,0,4,4,71,,,,,,,,15:42:32:926,15:42:33:667,15:42:36:668,right,15:42:36:918,,2018_Jun_13_1527,59.9373792805,MP-Perception Experiment,xx20m31,
165,training(5).webm,False,right,1,tmp_numprim(5)_final(9).webm,0,5,5,41,,,,,,,,15:42:37:706,15:42:38:420,15:42:41:422,right,15:42:41:872,,2018_Jun_13_1527,59.9373792805,MP-Perception Experiment,xx20m31,
166,vcgpdm_dyn(20)-lvm(15)_final(6).webm,False,left,1,training(4).webm,0,6,6,75,,,,,,,,15:42:42:642,15:42:43:375,15:42:46:377,right,15:42:46:844,,2018_Jun_13_1527,59.9373792805,MP-Perception Experiment,xx20m31,
167,vcgpdm_dyn(15)-lvm(35)_final(1).webm,False,left,1,training(39).webm,0,7,7,96,,,,,,,,15:42:47:604,15:42:48:345,15:42:51:333,left,15:42:51:666,,2018_Jun_13_1527,59.9373792805,MP-Perception Experiment,xx20m31,
168,training(41).webm,True,right,1,dmp_npsi(30)_final(9).webm,0,8,8,88,,,,,,,,15:42:52:425,15:42:53:168,15:42:56:170,right,15:42:56:404,,2018_Jun_13_1527,59.9373792805,MP-Perception Experiment,xx20m31,
169,training(6).webm,True,right,1,vcgpdm_dyn(30)-lvm(15)_final(4).webm,0,9,9,109,,,,,,,,15:42:57:165,15:42:57:905,15:43:00:908,right,15:43:01:325,,2018_Jun_13_1527,59.9373792805,MP-Perception Experiment,xx20m31,
170,vcgpdm_dyn(5)-lvm(15)_final(0).webm,True,left,1,training(13).webm,0,10,10,23,,,,,,,,15:43:02:273,15:43:02:826,15:43:05:829,left,15:43:06:196,,2018_Jun_13_1527,59.9373792805,MP-Perception Experiment,xx20m31,
171,vgpdm_dyn(30)-lvm(5)_final(7).webm,False,left,1,training(32).webm,0,11,11,112,,,,,,,,15:43:07:140,15:43:07:697,15:43:10:700,right,15:43:11:133,,2018_Jun_13_1527,59.9373792805,MP-Perception Experiment,xx20m31,
172,training(27).webm,True,right,1,vgpdm_dyn(10)-lvm(15)_final(4).webm,0,12,12,17,,,,,,,,15:43:12:072,15:43:12:634,15:43:15:637,right,15:43:15:970,,2018_Jun_13_1527,59.9373792805,MP-Perception Experiment,xx20m31,
173,training(14).webm,False,right,1,tmp_numprim(4)_final(1).webm,0,13,13,97,,,,,,,,15:43:16:913,15:43:17:472,15:43:20:475,right,15:43:20:842,,2018_Jun_13_1527,59.9373792805,MP-Perception Experiment,xx20m31,
174,training(26).webm,False,right,1,vgpdm_dyn(10)-lvm(25)_final(7).webm,0,14,14,9,,,,,,,,15:43:21:630,15:43:22:343,15:43:25:344,right,15:43:25:677,,2018_Jun_13_1527,59.9373792805,MP-Perception Experiment,xx20m31,
175,training(27).webm,False,right,1,vgpdm_dyn(10)-lvm(25)_final(6).webm,0,15,15,155,,,,,,,,15:43:26:612,15:43:27:179,15:43:30:181,right,15:43:30:848,,2018_Jun_13_1527,59.9373792805,MP-Perception Experiment,xx20m31,
176,training(11).webm,False,right,1,vcgpdm_dyn(20)-lvm(15)_final(8).webm,0,16,16,26,,,,,,,,15:43:31:779,15:43:32:349,15:43:35:353,right,15:43:35:803,,2018_Jun_13_1527,59.9373792805,MP-Perception Experiment,xx20m31,
177,training(31).webm,False,right,1,vcgpdm_dyn(35)-lvm(30)_final(9).webm,0,17,17,141,,,,,,,,15:43:36:738,15:43:37:304,15:43:40:292,right,15:43:40:676,,2018_Jun_13_1527,59.9373792805,MP-Perception Experiment,xx20m31,
178,vgpdm_dyn(30)-lvm(10)_final(8).webm,True,left,1,training(10).webm,0,18,18,105,,,,,,,,15:43:41:637,15:43:42:177,15:43:45:179,left,15:43:45:446,,2018_Jun_13_1527,59.9373792805,MP-Perception Experiment,xx20m31,
179,training(3).webm,True,right,1,tmp_numprim(3)_final(5).webm,0,19,19,25,,,,,,,,15:43:46:381,15:43:46:947,15:43:49:950,right,15:43:50:250,,2018_Jun_13_1527,59.9373792805,MP-Perception Experiment,xx20m31,
180,training(33).webm,False,right,1,vgpdm_dyn(30)-lvm(10)_final(5).webm,0,20,20,3,,,,,,,,15:43:51:183,15:43:51:751,15:43:54:755,right,15:43:54:871,,2018_Jun_13_1527,59.9373792805,MP-Perception Experiment,xx20m31,
181,vgpdm_dyn(25)-lvm(15)_final(0)_out_of_screen.webm,True,left,1,training(13).webm,0,21,21,59,,,,,,,,15:43:55:810,15:43:56:372,15:43:59:375,left,15:43:59:842,,2018_Jun_13_1527,59.9373792805,MP-Perception Experiment,xx20m31,
182,vgpdm_dyn(30)-lvm(35)_final(9).webm,False,left,1,training(31).webm,0,22,22,51,,,,,,,,15:44:00:601,15:44:01:343,15:44:04:346,right,15:44:04:679,,2018_Jun_13_1527,59.9373792805,MP-Perception Experiment,xx20m31,
183,vcgpdm_dyn(35)-lvm(30)_final(6).webm,False,left,1,training(21).webm,0,23,23,79,,,,,,,,15:44:05:448,15:44:06:180,15:44:09:183,left,15:44:09:533,,2018_Jun_13_1527,59.9373792805,MP-Perception Experiment,xx20m31,
184,vcgpdm_dyn(35)-lvm(25)_final(8).webm,True,left,1,training(4).webm,0,24,24,158,,,,,,,,15:44:10:304,15:44:11:035,15:44:14:038,left,15:44:14:355,,2018_Jun_13_1527,59.9373792805,MP-Perception Experiment,xx20m31,
185,training(40).webm,True,right,1,dmp_npsi(20)_final(8).webm,0,25,25,80,,,,,,,,15:44:15:125,15:44:15:871,15:44:18:857,right,15:44:19:958,,2018_Jun_13_1527,59.9373792805,MP-Perception Experiment,xx20m31,
186,training(10).webm,True,right,1,vcgpdm_dyn(30)-lvm(15)_final(5).webm,0,26,26,129,,,,,,,,15:44:20:726,15:44:21:459,15:44:24:461,right,15:44:24:962,,2018_Jun_13_1527,59.9373792805,MP-Perception Experiment,xx20m31,
187,training(36).webm,False,right,1,vgpdm_dyn(15)-lvm(15)_final(7).webm,0,27,27,102,,,,,,,,15:44:27:091,15:44:27:091,15:44:29:451,right,15:44:30:102,,2018_Jun_13_1527,59.9373792805,MP-Perception Experiment,xx20m31,
188,training(31).webm,False,right,1,dmp_npsi(15)_final(8).webm,0,28,28,151,,,,,,,,15:44:30:868,15:44:31:603,15:44:34:606,right,15:44:35:056,,2018_Jun_13_1527,59.9373792805,MP-Perception Experiment,xx20m31,
189,training(26).webm,False,right,1,vcgpdm_dyn(10)-lvm(5)_final(4).webm,0,29,29,124,,,,,,,,15:44:35:818,15:44:36:557,15:44:39:560,right,15:44:39:876,,2018_Jun_13_1527,59.9373792805,MP-Perception Experiment,xx20m31,
190,training(3).webm,True,right,1,vcgpdm_dyn(10)-lvm(20)_final(8).webm,0,30,30,58,,,,,,,,15:44:40:656,15:44:41:377,15:44:44:380,right,15:44:44:781,,2018_Jun_13_1527,59.9373792805,MP-Perception Experiment,xx20m31,
191,training(34).webm,False,right,1,vgpdm_dyn(15)-lvm(30)_final(2).webm,0,31,31,146,,,,,,,,15:44:45:577,15:44:46:282,15:44:49:285,right,15:44:49:585,,2018_Jun_13_1527,59.9373792805,MP-Perception Experiment,xx20m31,
192,training(13).webm,False,right,1,vcgpdm_dyn(35)-lvm(10)_final(5).webm,0,32,32,78,,,,,,,,15:44:50:345,15:44:51:086,15:44:54:089,right,15:44:54:406,,2018_Jun_13_1527,59.9373792805,MP-Perception Experiment,xx20m31,
193,vcgpdm_dyn(30)-lvm(35)_final(3).webm,False,left,1,training(39).webm,0,33,33,35,,,,,,,,15:44:55:173,15:44:55:907,15:44:58:909,left,15:45:00:311,,2018_Jun_13_1527,59.9373792805,MP-Perception Experiment,xx20m31,
194,vgpdm_dyn(15)-lvm(35)_final(4).webm,True,left,1,training(16).webm,0,34,34,84,,,,,,,,15:45:01:089,15:45:01:828,15:45:04:815,left,15:45:05:132,,2018_Jun_13_1527,59.9373792805,MP-Perception Experiment,xx20m31,
195,training(6).webm,False,right,1,vgpdm_dyn(25)-lvm(5)_final(7).webm,0,35,35,148,,,,,,,,15:45:05:890,15:45:06:648,15:45:09:634,right,15:45:09:968,,2018_Jun_13_1527,59.9373792805,MP-Perception Experiment,xx20m31,
196,training(6).webm,False,right,1,tmp_numprim(7)_final(0).webm,0,36,36,56,,,,,,,,15:45:10:723,15:45:11:469,15:45:14:471,right,15:45:15:088,,2018_Jun_13_1527,59.9373792805,MP-Perception Experiment,xx20m31,
197,dmp_npsi(5)_final(9)_bad.webm,True,left,1,training(31).webm,0,37,37,2,,,,,,,,15:45:15:936,15:45:16:589,15:45:19:577,left,15:45:19:978,,2018_Jun_13_1527,59.9373792805,MP-Perception Experiment,xx20m31,
198,vgpdm_dyn(20)-lvm(30)_final(7).webm,False,left,1,training(3).webm,0,38,38,130,,,,,,,,15:45:20:930,15:45:21:479,15:45:24:482,left,15:45:25:016,,2018_Jun_13_1527,59.9373792805,MP-Perception Experiment,xx20m31,
199,training(9).webm,False,right,1,vgpdm_dyn(15)-lvm(5)_final(7).webm,0,39,39,153,,,,,,,,15:45:26:720,15:45:26:720,15:45:29:519,left,15:45:30:687,,2018_Jun_13_1527,59.9373792805,MP-Perception Experiment,xx20m31,
200,training(14).webm,True,right,1,vcgpdm_dyn(30)-lvm(5)_final(5).webm,0,40,40,100,,,,,,,,15:45:31:454,15:45:32:188,15:45:35:191,left,15:45:35:474,,2018_Jun_13_1527,59.9373792805,MP-Perception Experiment,xx20m31,
201,training(2).webm,False,right,1,vgpdm_dyn(10)-lvm(30)_final(1).webm,0,41,41,108,,,,,,,,15:45:36:415,15:45:36:975,15:45:39:979,right,15:45:40:346,,2018_Jun_13_1527,59.9373792805,MP-Perception Experiment,xx20m31,
202,training(10).webm,False,right,1,dmp_npsi(40)_final(9).webm,0,42,42,91,,,,,,,,15:45:41:112,15:45:41:847,15:45:44:849,right,15:45:45:316,,2018_Jun_13_1527,59.9373792805,MP-Perception Experiment,xx20m31,
203,training(27).webm,True,right,1,dmp_npsi(40)_final(0).webm,0,43,43,125,,,,,,,,15:45:46:111,15:45:46:818,15:45:49:820,right,15:45:50:154,,2018_Jun_13_1527,59.9373792805,MP-Perception Experiment,xx20m31,
204,training(48).webm,False,right,1,vcgpdm_dyn(20)-lvm(10)_final(6).webm,0,44,44,21,,,,,,,,15:45:51:097,15:45:51:655,15:45:54:657,left,15:45:55:009,,2018_Jun_13_1527,59.9373792805,MP-Perception Experiment,xx20m31,
205,dmp_npsi(50)_final(2).webm,False,left,1,training(13).webm,0,45,45,145,,,,,,,,15:45:55:950,15:45:56:525,15:45:59:510,right,15:45:59:811,,2018_Jun_13_1527,59.9373792805,MP-Perception Experiment,xx20m31,
206,vgpdm_dyn(5)-lvm(35)_final(9)_bad.webm,True,left,1,training(40).webm,0,46,46,101,,,,,,,,15:46:00:757,15:46:01:312,15:46:04:314,left,15:46:04:648,,2018_Jun_13_1527,59.9373792805,MP-Perception Experiment,xx20m31,
207,training(22).webm,True,right,1,vcgpdm_dyn(15)-lvm(5)_final(0).webm,0,47,47,31,,,,,,,,15:46:05:605,15:46:06:149,15:46:09:137,left,15:46:09:387,,2018_Jun_13_1527,59.9373792805,MP-Perception Experiment,xx20m31,
208,training(30).webm,False,right,1,vgpdm_dyn(5)-lvm(10)_final(8).webm,0,48,48,77,,,,,,,,15:46:10:349,15:46:10:888,15:46:13:892,right,15:46:14:375,,2018_Jun_13_1527,59.9373792805,MP-Perception Experiment,xx20m31,
209,training(12).webm,False,right,1,vcgpdm_dyn(15)-lvm(10)_final(8).webm,0,49,49,86,,,,,,,,15:46:15:339,15:46:15:876,15:46:18:879,right,15:46:19:212,,2018_Jun_13_1527,59.9373792805,MP-Perception Experiment,xx20m31,
210,training(39).webm,False,right,1,vgpdm_dyn(5)-lvm(10)_final(6).webm,0,50,50,152,,,,,,,,15:46:20:184,15:46:20:714,15:46:23:716,right,15:46:23:933,,2018_Jun_13_1527,59.9373792805,MP-Perception Experiment,xx20m31,
211,vcgpdm_dyn(35)-lvm(20)_final(3).webm,False,left,1,training(3).webm,0,51,51,122,,,,,,,,15:46:24:878,15:46:25:434,15:46:28:437,left,15:46:28:570,,2018_Jun_13_1527,59.9373792805,MP-Perception Experiment,xx20m31,
212,vgpdm_dyn(20)-lvm(25)_final(7).webm,False,left,1,training(4).webm,0,52,52,61,,,,,,,,15:46:29:331,15:46:30:072,15:46:33:075,right,15:46:33:291,,2018_Jun_13_1527,59.9373792805,MP-Perception Experiment,xx20m31,
213,training(40).webm,True,right,1,vcgpdm_dyn(5)-lvm(15)_final(5).webm,0,53,53,82,,,,,,,,15:46:34:062,15:46:34:793,15:46:37:795,left,15:46:37:828,,2018_Jun_13_1527,59.9373792805,MP-Perception Experiment,xx20m31,
214,vcgpdm_dyn(15)-lvm(5)_final(4).webm,False,left,1,training(39).webm,0,54,54,1,,,,,,,,15:46:38:587,15:46:39:330,15:46:42:349,left,15:46:42:466,,2018_Jun_13_1527,59.9373792805,MP-Perception Experiment,xx20m31,
215,training(20).webm,True,right,1,vcgpdm_dyn(10)-lvm(25)_final(9).webm,0,55,55,81,,,,,,,,15:46:43:221,15:46:43:967,15:46:46:967,right,15:46:47:435,,2018_Jun_13_1527,59.9373792805,MP-Perception Experiment,xx20m31,
216,vcgpdm_dyn(5)-lvm(10)_final(8).webm,False,left,1,training(16).webm,0,56,56,113,,,,,,,,15:46:48:218,15:46:48:937,15:46:51:939,left,15:46:52:439,,2018_Jun_13_1527,59.9373792805,MP-Perception Experiment,xx20m31,
217,training(31).webm,True,right,1,vgpdm_dyn(20)-lvm(5)_final(1).webm,0,57,57,99,,,,,,,,15:46:53:389,15:46:53:941,15:46:56:943,right,15:46:57:243,,2018_Jun_13_1527,59.9373792805,MP-Perception Experiment,xx20m31,
218,training(22).webm,True,right,1,tmp_numprim(8)_final(2).webm,0,58,58,121,,,,,,,,15:46:58:009,15:46:58:745,15:47:01:732,left,15:47:02:032,,2018_Jun_13_1527,59.9373792805,MP-Perception Experiment,xx20m31,
219,training(38).webm,False,right,1,vgpdm_dyn(15)-lvm(5)_final(0).webm,0,59,59,6,,,,,,,,15:47:02:971,15:47:03:533,15:47:06:537,left,15:47:06:854,,2018_Jun_13_1527,59.9373792805,MP-Perception Experiment,xx20m31,
220,dmp_npsi(35)_final(6).webm,True,left,1,training(32).webm,0,60,60,115,,,,,,,,15:47:07:642,15:47:08:355,15:47:11:358,left,15:47:11:708,,2018_Jun_13_1527,59.9373792805,MP-Perception Experiment,xx20m31,
221,training(36).webm,True,right,1,vcgpdm_dyn(25)-lvm(15)_final(3).webm,0,61,61,20,,,,,,,,15:47:12:643,15:47:13:209,15:47:16:212,right,15:47:16:495,,2018_Jun_13_1527,59.9373792805,MP-Perception Experiment,xx20m31,
222,vgpdm_dyn(5)-lvm(30)_final(4).webm,False,left,1,training(21).webm,0,62,62,64,,,,,,,,15:47:17:442,15:47:17:996,15:47:20:999,left,15:47:21:399,,2018_Jun_13_1527,59.9373792805,MP-Perception Experiment,xx20m31,
223,vcgpdm_dyn(10)-lvm(30)_final(7).webm,False,left,1,training(24).webm,0,63,63,44,,,,,,,,15:47:22:357,15:47:22:901,15:47:25:903,left,15:47:26:471,,2018_Jun_13_1527,59.9373792805,MP-Perception Experiment,xx20m31,
224,training(0).webm,False,right,1,tmp_numprim(4)_final(5).webm,0,64,64,95,,,,,,,,15:47:27:252,15:47:27:972,15:47:30:974,right,15:47:31:008,,2018_Jun_13_1527,59.9373792805,MP-Perception Experiment,xx20m31,
225,training(27).webm,False,right,1,vcgpdm_dyn(10)-lvm(10)_final(3).webm,0,65,65,43,,,,,,,,15:47:31:939,15:47:32:509,15:47:35:511,right,15:47:35:845,,2018_Jun_13_1527,59.9373792805,MP-Perception Experiment,xx20m31,
226,dmp_npsi(30)_final(3).webm,True,left,1,training(35).webm,0,66,66,4,,,,,,,,15:47:36:801,15:47:37:361,15:47:40:364,left,15:47:40:681,,2018_Jun_13_1527,59.9373792805,MP-Perception Experiment,xx20m31,
227,training(5).webm,False,right,1,vcgpdm_dyn(30)-lvm(10)_final(5).webm,0,67,67,157,,,,,,,,15:47:41:460,15:47:42:183,15:47:45:185,right,15:47:45:602,,2018_Jun_13_1527,59.9373792805,MP-Perception Experiment,xx20m31,
228,vgpdm_dyn(15)-lvm(25)_final(3).webm,False,left,1,training(29).webm,0,68,68,68,,,,,,,,15:47:46:365,15:47:47:103,15:47:50:091,left,15:47:50:341,,2018_Jun_13_1527,59.9373792805,MP-Perception Experiment,xx20m31,
229,vcgpdm_dyn(20)-lvm(30)_final(9).webm,False,left,1,training(10).webm,0,69,69,118,,,,,,,,15:47:51:164,15:47:51:842,15:47:54:845,left,15:47:55:028,,2018_Jun_13_1527,59.9373792805,MP-Perception Experiment,xx20m31,
230,training(10).webm,False,right,1,tmp_numprim(6)_final(1).webm,0,70,70,32,,,,,,,,15:47:55:797,15:47:56:529,15:47:59:533,right,15:47:59:649,,2018_Jun_13_1527,59.9373792805,MP-Perception Experiment,xx20m31,
231,vgpdm_dyn(10)-lvm(35)_final(7).webm,False,left,1,training(20).webm,0,71,71,55,,,,,,,,15:48:00:416,15:48:01:151,15:48:04:153,left,15:48:04:420,,2018_Jun_13_1527,59.9373792805,MP-Perception Experiment,xx20m31,
232,training(5).webm,False,right,1,vgpdm_dyn(35)-lvm(5)_final(2).webm,0,72,72,52,,,,,,,,15:48:05:187,15:48:05:921,15:48:08:924,right,15:48:09:557,,2018_Jun_13_1527,59.9373792805,MP-Perception Experiment,xx20m31,
233,tmp_numprim(2)_final(9).webm,True,left,1,training(31).webm,0,73,73,29,,,,,,,,15:48:10:503,15:48:11:059,15:48:14:061,left,15:48:14:395,,2018_Jun_13_1527,59.9373792805,MP-Perception Experiment,xx20m31,
234,training(5).webm,False,right,1,vcgpdm_dyn(15)-lvm(35)_final(6).webm,0,74,74,7,,,,,,,,15:48:15:349,15:48:15:897,15:48:18:899,right,15:48:19:150,,2018_Jun_13_1527,59.9373792805,MP-Perception Experiment,xx20m31,
235,vgpdm_dyn(25)-lvm(20)_final(9).webm,False,left,1,training(5).webm,0,75,75,156,,,,,,,,15:48:20:104,15:48:20:651,15:48:23:653,right,15:48:23:920,,2018_Jun_13_1527,59.9373792805,MP-Perception Experiment,xx20m31,
236,vcgpdm_dyn(5)-lvm(25)_final(9).webm,False,left,1,training(2).webm,0,76,76,65,,,,,,,,15:48:24:871,15:48:25:421,15:48:28:422,left,15:48:28:789,,2018_Jun_13_1527,59.9373792805,MP-Perception Experiment,xx20m31,
237,vcgpdm_dyn(5)-lvm(5)_final(2).webm,False,left,1,training(20).webm,0,77,77,143,,,,,,,,15:48:29:735,15:48:30:290,15:48:33:294,left,15:48:34:161,,2018_Jun_13_1527,59.9373792805,MP-Perception Experiment,xx20m31,
238,training(38).webm,True,right,1,vcgpdm_dyn(20)-lvm(10)_final(3).webm,0,78,78,89,,,,,,,,15:48:35:098,15:48:35:662,15:48:38:665,right,15:48:38:881,,2018_Jun_13_1527,59.9373792805,MP-Perception Experiment,xx20m31,
239,training(27).webm,False,right,1,vgpdm_dyn(20)-lvm(25)_final(8).webm,0,79,79,133,,,,,,,,15:48:39:816,15:48:40:384,15:48:43:370,right,15:48:43:620,,2018_Jun_13_1527,59.9373792805,MP-Perception Experiment,xx20m31,
240,training(6).webm,True,right,1,vcgpdm_dyn(25)-lvm(20)_final(0).webm,0,80,80,38,,,,,,,,15:48:44:393,15:48:45:138,15:48:48:124,right,15:48:48:424,,2018_Jun_13_1527,59.9373792805,MP-Perception Experiment,xx20m31,
241,training(15).webm,False,right,1,dmp_npsi(20)_final(9).webm,0,81,81,28,,,,,,,,15:48:49:190,15:48:49:926,15:48:52:929,right,15:48:53:162,,2018_Jun_13_1527,59.9373792805,MP-Perception Experiment,xx20m31,
242,vgpdm_dyn(30)-lvm(20)_final(5).webm,True,left,1,training(10).webm,0,82,82,74,,,,,,,,15:48:54:113,15:48:54:663,15:48:57:666,left,15:48:57:916,,2018_Jun_13_1527,59.9373792805,MP-Perception Experiment,xx20m31,
243,tmp_numprim(7)_final(7).webm,False,left,1,training(13).webm,0,83,83,36,,,,,,,,15:48:58:708,15:48:59:417,15:49:02:420,right,15:49:02:503,,2018_Jun_13_1527,59.9373792805,MP-Perception Experiment,xx20m31,
244,training(19).webm,True,right,1,vgpdm_dyn(35)-lvm(25)_final(2).webm,0,84,84,30,,,,,,,,15:49:03:267,15:49:04:004,15:49:07:007,right,15:49:07:425,,2018_Jun_13_1527,59.9373792805,MP-Perception Experiment,xx20m31,
245,training(40).webm,True,right,1,vcgpdm_dyn(10)-lvm(25)_final(2).webm,0,85,85,13,,,,,,,,15:49:08:184,15:49:08:926,15:49:11:929,right,15:49:12:179,,2018_Jun_13_1527,59.9373792805,MP-Perception Experiment,xx20m31,
246,dmp_npsi(45)_final(8).webm,True,left,1,training(0).webm,0,86,86,45,,,,,,,,15:49:12:942,15:49:13:680,15:49:16:680,left,15:49:17:031,,2018_Jun_13_1527,59.9373792805,MP-Perception Experiment,xx20m31,
247,vcgpdm_dyn(25)-lvm(35)_final(9).webm,True,left,1,training(12).webm,0,87,87,90,,,,,,,,15:49:17:798,15:49:18:532,15:49:21:534,left,15:49:21:551,,2018_Jun_13_1527,59.9373792805,MP-Perception Experiment,xx20m31,
248,vcgpdm_dyn(10)-lvm(15)_final(5).webm,True,left,1,training(26).webm,0,88,88,19,,,,,,,,15:49:22:327,15:49:23:052,15:49:26:056,left,15:49:26:606,,2018_Jun_13_1527,59.9373792805,MP-Perception Experiment,xx20m31,
249,vcgpdm_dyn(25)-lvm(5)_final(4).webm,False,left,1,training(25).webm,0,89,89,34,,,,,,,,15:49:27:373,15:49:28:107,15:49:31:095,left,15:49:31:495,,2018_Jun_13_1527,59.9373792805,MP-Perception Experiment,xx20m31,
250,training(0).webm,True,right,1,vcgpdm_dyn(15)-lvm(25)_final(1).webm,0,90,90,8,,,,,,,,15:49:32:442,15:49:32:996,15:49:35:999,left,15:49:36:449,,2018_Jun_13_1527,59.9373792805,MP-Perception Experiment,xx20m31,
251,training(41).webm,False,right,1,vgpdm_dyn(10)-lvm(20)_final(7).webm,0,91,91,149,,,,,,,,15:49:37:398,15:49:37:950,15:49:40:953,right,15:49:41:236,,2018_Jun_13_1527,59.9373792805,MP-Perception Experiment,xx20m31,
252,vgpdm_dyn(15)-lvm(35)_final(2).webm,True,left,1,training(20).webm,0,92,92,16,,,,,,,,15:49:42:185,15:49:42:739,15:49:45:741,left,15:49:45:941,,2018_Jun_13_1527,59.9373792805,MP-Perception Experiment,xx20m31,
253,vcgpdm_dyn(35)-lvm(10)_final(1).webm,False,left,1,training(25).webm,0,93,93,66,,,,,,,,15:49:46:883,15:49:47:442,15:49:50:445,left,15:49:50:812,,2018_Jun_13_1527,59.9373792805,MP-Perception Experiment,xx20m31,
254,training(39).webm,False,right,1,map_gpdm_final(6).webm,0,94,94,154,,,,,,,,15:49:51:745,15:49:52:313,15:49:55:316,right,15:49:55:416,,2018_Jun_13_1527,59.9373792805,MP-Perception Experiment,xx20m31,
255,training(3).webm,False,right,1,vgpdm_dyn(25)-lvm(20)_final(7).webm,0,95,95,69,,,,,,,,15:49:56:351,15:49:56:917,15:49:59:920,right,15:50:00:187,,2018_Jun_13_1527,59.9373792805,MP-Perception Experiment,xx20m31,
256,training(31).webm,True,right,1,vcgpdm_dyn(25)-lvm(5)_final(9).webm,0,96,96,138,,,,,,,,15:50:01:145,15:50:01:688,15:50:04:691,right,15:50:05:008,,2018_Jun_13_1527,59.9373792805,MP-Perception Experiment,xx20m31,
257,vgpdm_dyn(10)-lvm(25)_final(9).webm,False,left,1,training(36).webm,0,97,97,54,,,,,,,,15:50:05:942,15:50:06:524,15:50:09:509,right,15:50:09:793,,2018_Jun_13_1527,59.9373792805,MP-Perception Experiment,xx20m31,
258,vgpdm_dyn(10)-lvm(15)_final(9).webm,True,left,1,training(17).webm,0,98,98,47,,,,,,,,15:50:10:556,15:50:11:294,15:50:14:297,left,15:50:14:363,,2018_Jun_13_1527,59.9373792805,MP-Perception Experiment,xx20m31,
259,vcgpdm_dyn(30)-lvm(35)_final(8).webm,True,left,1,training(35).webm,0,99,99,134,,,,,,,,15:50:15:125,15:50:15:864,15:50:18:853,left,15:50:19:353,,2018_Jun_13_1527,59.9373792805,MP-Perception Experiment,xx20m31,
260,vcgpdm_dyn(30)-lvm(30)_final(3).webm,False,left,1,training(40).webm,0,100,100,57,,,,,,,,15:50:20:113,15:50:20:855,15:50:23:857,left,15:50:24:241,,2018_Jun_13_1527,59.9373792805,MP-Perception Experiment,xx20m31,
261,vcgpdm_dyn(25)-lvm(30)_final(9).webm,False,left,1,training(5).webm,0,101,101,103,,,,,,,,15:50:25:008,15:50:25:742,15:50:28:745,left,15:50:29:228,,2018_Jun_13_1527,59.9373792805,MP-Perception Experiment,xx20m31,
262,vgpdm_dyn(20)-lvm(20)_final(2).webm,False,left,1,training(39).webm,0,102,102,85,,,,,,,,15:50:29:990,15:50:30:729,15:50:33:732,right,15:50:35:000,,2018_Jun_13_1527,59.9373792805,MP-Perception Experiment,xx20m31,
263,vcgpdm_dyn(35)-lvm(5)_final(1).webm,True,left,1,training(11).webm,0,103,103,48,,,,,,,,15:50:35:761,15:50:36:502,15:50:39:504,left,15:50:40:038,,2018_Jun_13_1527,59.9373792805,MP-Perception Experiment,xx20m31,
264,map_cgpdm_final(2).webm,True,left,1,training(22).webm,0,104,104,42,,,,,,,,15:50:40:802,15:50:41:539,15:50:44:542,right,15:50:45:526,,2018_Jun_13_1527,59.9373792805,MP-Perception Experiment,xx20m31,
265,tmp_numprim(4)_final(0).webm,True,left,1,training(21).webm,0,105,105,140,,,,,,,,15:50:46:287,15:50:47:027,15:50:50:029,left,15:50:50:446,,2018_Jun_13_1527,59.9373792805,MP-Perception Experiment,xx20m31,
266,tmp_numprim(9)_final(5).webm,True,left,1,training(7).webm,0,106,106,37,,,,,,,,15:50:51:209,15:50:51:947,15:50:54:951,left,15:50:55:218,,2018_Jun_13_1527,59.9373792805,MP-Perception Experiment,xx20m31,
267,vgpdm_dyn(30)-lvm(5)_final(8).webm,False,left,1,training(48).webm,0,107,107,87,,,,,,,,15:50:55:985,15:50:56:734,15:50:59:720,left,15:51:00:003,,2018_Jun_13_1527,59.9373792805,MP-Perception Experiment,xx20m31,
268,vgpdm_dyn(5)-lvm(10)_final(2).webm,False,left,1,training(25).webm,0,108,108,142,,,,,,,,15:51:00:770,15:51:01:504,15:51:04:507,left,15:51:04:890,,2018_Jun_13_1527,59.9373792805,MP-Perception Experiment,xx20m31,
269,training(34).webm,False,right,1,vcgpdm_dyn(5)-lvm(10)_final(3).webm,0,109,109,110,,,,,,,,15:51:05:658,15:51:06:392,15:51:09:379,right,15:51:09:814,,2018_Jun_13_1527,59.9373792805,MP-Perception Experiment,xx20m31,
270,training(39).webm,False,right,1,vgpdm_dyn(10)-lvm(30)_final(0).webm,0,110,110,14,,,,,,,,15:51:10:582,15:51:11:315,15:51:14:318,right,15:51:14:584,,2018_Jun_13_1527,59.9373792805,MP-Perception Experiment,xx20m31,
271,vgpdm_dyn(30)-lvm(25)_final(1).webm,True,left,1,training(6).webm,0,111,111,92,,,,,,,,15:51:15:543,15:51:16:085,15:51:19:088,left,15:51:19:422,,2018_Jun_13_1527,59.9373792805,MP-Perception Experiment,xx20m31,
272,training(26).webm,True,right,1,dmp_npsi(25)_final(6).webm,0,112,112,22,,,,,,,,15:51:20:373,15:51:20:923,15:51:23:925,left,15:51:24:426,,2018_Jun_13_1527,59.9373792805,MP-Perception Experiment,xx20m31,
273,vcgpdm_dyn(10)-lvm(15)_final(3).webm,False,left,1,training(29).webm,0,113,113,67,,,,,,,,15:51:25:368,15:51:25:927,15:51:28:930,right,15:51:29:314,,2018_Jun_13_1527,59.9373792805,MP-Perception Experiment,xx20m31,
274,vcgpdm_dyn(25)-lvm(25)_final(3).webm,False,left,1,training(32).webm,0,114,114,114,,,,,,,,15:51:30:246,15:51:30:815,15:51:33:818,right,15:51:34:235,,2018_Jun_13_1527,59.9373792805,MP-Perception Experiment,xx20m31,
275,map_gpdm_final(2).webm,False,left,1,training(32).webm,0,115,115,132,,,,,,,,15:51:35:174,15:51:35:736,15:51:38:738,left,15:51:39:155,,2018_Jun_13_1527,59.9373792805,MP-Perception Experiment,xx20m31,
276,training(40).webm,True,right,1,vcgpdm_dyn(25)-lvm(5)_final(8).webm,0,116,116,63,,,,,,,,15:51:39:924,15:51:40:656,15:51:43:659,left,15:51:43:859,,2018_Jun_13_1527,59.9373792805,MP-Perception Experiment,xx20m31,
277,vgpdm_dyn(10)-lvm(10)_final(2).webm,True,left,1,training(35).webm,0,117,117,106,,,,,,,,15:51:44:619,15:51:45:361,15:51:48:362,left,15:51:48:629,,2018_Jun_13_1527,59.9373792805,MP-Perception Experiment,xx20m31,
278,vgpdm_dyn(25)-lvm(35)_final(2).webm,False,left,1,training(36).webm,0,118,118,12,,,,,,,,15:51:49:394,15:51:50:130,15:51:53:132,left,15:51:53:266,,2018_Jun_13_1527,59.9373792805,MP-Perception Experiment,xx20m31,
279,vgpdm_dyn(25)-lvm(5)_final(0).webm,True,left,1,training(16).webm,0,119,119,135,,,,,,,,15:51:54:199,15:51:54:767,15:51:57:769,left,15:51:58:287,,2018_Jun_13_1527,59.9373792805,MP-Perception Experiment,xx20m31,
280,training(8).webm,True,right,1,vgpdm_dyn(30)-lvm(35)_final(6).webm,0,120,120,40,,,,,,,,15:51:59:234,15:51:59:789,15:52:02:793,right,15:52:03:110,,2018_Jun_13_1527,59.9373792805,MP-Perception Experiment,xx20m31,
281,vgpdm_dyn(30)-lvm(30)_final(5).webm,False,left,1,training(24).webm,0,121,121,46,,,,,,,,15:52:04:055,15:52:04:611,15:52:07:614,left,15:52:08:114,,2018_Jun_13_1527,59.9373792805,MP-Perception Experiment,xx20m31,
282,tmp_numprim(8)_final(8).webm,False,left,1,training(29).webm,0,122,122,72,,,,,,,,15:52:08:909,15:52:09:615,15:52:12:618,right,15:52:12:768,,2018_Jun_13_1527,59.9373792805,MP-Perception Experiment,xx20m31,
283,vcgpdm_dyn(10)-lvm(15)_final(8).webm,False,left,1,training(36).webm,0,123,123,50,,,,,,,,15:52:13:534,15:52:14:269,15:52:17:271,left,15:52:17:605,,2018_Jun_13_1527,59.9373792805,MP-Perception Experiment,xx20m31,
284,training(33).webm,False,right,1,dmp_npsi(30)_final(7).webm,0,124,124,111,,,,,,,,15:52:18:377,15:52:19:106,15:52:22:110,right,15:52:22:226,,2018_Jun_13_1527,59.9373792805,MP-Perception Experiment,xx20m31,
285,vgpdm_dyn(25)-lvm(30)_final(5).webm,False,left,1,training(23).webm,0,125,125,60,,,,,,,,15:52:22:991,15:52:23:727,15:52:26:730,right,15:52:26:830,,2018_Jun_13_1527,59.9373792805,MP-Perception Experiment,xx20m31,
286,vcgpdm_dyn(20)-lvm(10)_final(4).webm,True,left,1,training(18).webm,0,126,126,116,,,,,,,,15:52:27:592,15:52:28:331,15:52:31:334,left,15:52:31:651,,2018_Jun_13_1527,59.9373792805,MP-Perception Experiment,xx20m31,
287,vcgpdm_dyn(25)-lvm(10)_final(2).webm,True,left,1,training(12).webm,0,127,127,150,,,,,,,,15:52:32:601,15:52:33:152,15:52:36:154,left,15:52:36:321,,2018_Jun_13_1527,59.9373792805,MP-Perception Experiment,xx20m31,
288,training(33).webm,True,right,1,vcgpdm_dyn(25)-lvm(35)_final(6).webm,0,128,128,27,,,,,,,,15:52:37:272,15:52:37:838,15:52:40:840,right,15:52:41:157,,2018_Jun_13_1527,59.9373792805,MP-Perception Experiment,xx20m31,
289,vgpdm_dyn(25)-lvm(35)_final(4).webm,True,left,1,training(30).webm,0,129,129,15,,,,,,,,15:52:41:916,15:52:42:659,15:52:45:661,left,15:52:46:045,,2018_Jun_13_1527,59.9373792805,MP-Perception Experiment,xx20m31,
290,vgpdm_dyn(20)-lvm(30)_final(0).webm,False,left,1,training(34).webm,0,130,130,104,,,,,,,,15:52:46:978,15:52:47:546,15:52:50:533,right,15:52:50:650,,2018_Jun_13_1527,59.9373792805,MP-Perception Experiment,xx20m31,
291,training(4).webm,False,right,1,tmp_numprim(6)_final(7).webm,0,131,131,39,,,,,,,,15:52:51:414,15:52:52:151,15:52:55:155,right,15:52:55:422,,2018_Jun_13_1527,59.9373792805,MP-Perception Experiment,xx20m31,
292,training(5).webm,False,right,1,vcgpdm_dyn(5)-lvm(5)_final(4).webm,0,132,132,136,,,,,,,,15:52:56:356,15:52:56:923,15:52:59:926,right,15:53:00:326,,2018_Jun_13_1527,59.9373792805,MP-Perception Experiment,xx20m31,
293,vgpdm_dyn(20)-lvm(5)_final(3).webm,False,left,1,training(33).webm,0,133,133,18,,,,,,,,15:53:01:090,15:53:01:827,15:53:04:829,right,15:53:05:763,,2018_Jun_13_1527,59.9373792805,MP-Perception Experiment,xx20m31,
294,training(37).webm,False,right,1,vgpdm_dyn(10)-lvm(25)_final(4).webm,0,134,134,73,,,,,,,,15:53:06:701,15:53:07:264,15:53:10:267,right,15:53:10:617,,2018_Jun_13_1527,59.9373792805,MP-Perception Experiment,xx20m31,
295,training(18).webm,False,right,1,dmp_npsi(20)_final(3).webm,0,135,135,128,,,,,,,,15:53:11:385,15:53:12:119,15:53:15:122,right,15:53:15:456,,2018_Jun_13_1527,59.9373792805,MP-Perception Experiment,xx20m31,
296,training(15).webm,False,right,1,dmp_npsi(30)_final(9).webm,0,136,136,127,,,,,,,,15:53:16:393,15:53:16:957,15:53:19:959,right,15:53:20:076,,2018_Jun_13_1527,59.9373792805,MP-Perception Experiment,xx20m31,
297,vgpdm_dyn(35)-lvm(25)_final(6).webm,True,left,1,training(13).webm,0,137,137,83,,,,,,,,15:53:20:864,15:53:21:577,15:53:24:580,left,15:53:24:947,,2018_Jun_13_1527,59.9373792805,MP-Perception Experiment,xx20m31,
298,dmp_npsi(15)_final(7).webm,True,left,1,training(36).webm,0,138,138,107,,,,,,,,15:53:26:580,15:53:26:580,15:53:29:449,left,15:53:29:916,,2018_Jun_13_1527,59.9373792805,MP-Perception Experiment,xx20m31,
299,vcgpdm_dyn(20)-lvm(30)_final(7).webm,False,left,1,training(13).webm,0,139,139,24,,,,,,,,15:53:30:685,15:53:31:418,15:53:34:420,left,15:53:34:854,,2018_Jun_13_1527,59.9373792805,MP-Perception Experiment,xx20m31,
300,training(10).webm,True,right,1,vgpdm_dyn(10)-lvm(25)_final(1).webm,0,140,140,62,,,,,,,,15:53:35:619,15:53:36:355,15:53:39:342,left,15:53:39:776,,2018_Jun_13_1527,59.9373792805,MP-Perception Experiment,xx20m31,
301,training(31).webm,True,right,1,vcgpdm_dyn(5)-lvm(25)_final(2).webm,0,141,141,11,,,,,,,,15:53:40:543,15:53:41:277,15:53:44:280,right,15:53:44:713,,2018_Jun_13_1527,59.9373792805,MP-Perception Experiment,xx20m31,
302,training(3).webm,True,right,1,tmp_numprim(5)_final(3).webm,0,142,142,76,,,,,,,,15:53:45:478,15:53:46:215,15:53:49:218,right,15:53:49:585,,2018_Jun_13_1527,59.9373792805,MP-Perception Experiment,xx20m31,
303,vgpdm_dyn(30)-lvm(15)_final(0).webm,True,left,1,training(35).webm,0,143,143,117,,,,,,,,15:53:50:347,15:53:51:086,15:53:54:089,right,15:53:54:339,,2018_Jun_13_1527,59.9373792805,MP-Perception Experiment,xx20m31,
304,training(8).webm,False,right,1,vcgpdm_dyn(25)-lvm(30)_final(5).webm,0,144,144,147,,,,,,,,15:53:55:110,15:53:55:840,15:53:58:843,right,15:53:58:876,,2018_Jun_13_1527,59.9373792805,MP-Perception Experiment,xx20m31,
305,training(30).webm,False,right,1,vcgpdm_dyn(15)-lvm(25)_final(6).webm,0,145,145,137,,,,,,,,15:53:59:641,15:54:00:377,15:54:03:380,right,15:54:03:563,,2018_Jun_13_1527,59.9373792805,MP-Perception Experiment,xx20m31,
306,training(5).webm,False,right,1,vcgpdm_dyn(30)-lvm(25)_final(1).webm,0,146,146,33,,,,,,,,15:54:04:514,15:54:05:065,15:54:08:068,right,15:54:08:301,,2018_Jun_13_1527,59.9373792805,MP-Perception Experiment,xx20m31,
307,training(38).webm,True,right,1,vcgpdm_dyn(30)-lvm(25)_final(0).webm,0,147,147,53,,,,,,,,15:54:09:252,15:54:09:819,15:54:12:805,right,15:54:13:072,,2018_Jun_13_1527,59.9373792805,MP-Perception Experiment,xx20m31,
308,training(13).webm,True,right,1,vcgpdm_dyn(35)-lvm(30)_final(7).webm,0,148,148,49,,,,,,,,15:54:14:012,15:54:14:573,15:54:17:574,right,15:54:17:674,,2018_Jun_13_1527,59.9373792805,MP-Perception Experiment,xx20m31,
309,training(3).webm,False,right,1,dmp_npsi(30)_final(0).webm,0,149,149,123,,,,,,,,15:54:18:609,15:54:19:175,15:54:22:178,right,15:54:22:428,,2018_Jun_13_1527,59.9373792805,MP-Perception Experiment,xx20m31,
310,map_cgpdm_final(1).webm,False,left,1,training(8).webm,0,150,150,70,,,,,,,,15:54:23:363,15:54:23:930,15:54:26:932,left,15:54:27:316,,2018_Jun_13_1527,59.9373792805,MP-Perception Experiment,xx20m31,
311,training(31).webm,False,right,1,vcgpdm_dyn(20)-lvm(5)_final(7).webm,0,151,151,119,,,,,,,,15:54:28:069,15:54:28:819,15:54:31:804,right,15:54:32:288,,2018_Jun_13_1527,59.9373792805,MP-Perception Experiment,xx20m31,
312,vgpdm_dyn(10)-lvm(5)_final(6).webm,False,left,1,training(11).webm,0,152,152,5,,,,,,,,15:54:33:074,15:54:33:789,15:54:36:792,left,15:54:37:159,,2018_Jun_13_1527,59.9373792805,MP-Perception Experiment,xx20m31,
313,vgpdm_dyn(20)-lvm(25)_final(8).webm,True,left,1,training(10).webm,0,153,153,0,,,,,,,,15:54:38:103,15:54:38:660,15:54:41:663,left,15:54:42:014,,2018_Jun_13_1527,59.9373792805,MP-Perception Experiment,xx20m31,
314,vgpdm_dyn(15)-lvm(35)_final(0).webm,False,left,1,training(11).webm,0,154,154,144,,,,,,,,15:54:42:782,15:54:43:515,15:54:46:517,right,15:54:46:818,,2018_Jun_13_1527,59.9373792805,MP-Perception Experiment,xx20m31,
315,vcgpdm_dyn(20)-lvm(35)_final(0).webm,False,left,1,training(22).webm,0,155,155,94,,,,,,,,15:54:47:579,15:54:48:319,15:54:51:321,left,15:54:51:655,,2018_Jun_13_1527,59.9373792805,MP-Perception Experiment,xx20m31,
316,vcgpdm_dyn(35)-lvm(5)_final(1).webm,False,left,1,training(14).webm,0,156,156,98,,,,,,,,15:54:52:442,15:54:53:156,15:54:56:158,left,15:54:56:309,,2018_Jun_13_1527,59.9373792805,MP-Perception Experiment,xx20m31,
317,training(10).webm,True,right,1,vcgpdm_dyn(15)-lvm(20)_final(5).webm,0,157,157,126,,,,,,,,15:54:57:073,15:54:57:811,15:55:00:813,left,15:55:01:330,,2018_Jun_13_1527,59.9373792805,MP-Perception Experiment,xx20m31,
318,vgpdm_dyn(30)-lvm(5)_final(6).webm,True,left,1,training(0).webm,0,158,158,139,,,,,,,,15:55:02:091,15:55:02:831,15:55:05:834,left,15:55:06:117,,2018_Jun_13_1527,59.9373792805,MP-Perception Experiment,xx20m31,
319,vcgpdm_dyn(30)-lvm(10)_final(9).webm,False,left,2,training(36).webm,0,0,0,45,,,,,,,,15:55:18:374,15:55:18:945,15:55:21:931,left,15:55:22:198,,2018_Jun_13_1527,59.9373792805,MP-Perception Experiment,xx20m31,
320,training(7).webm,True,right,2,vgpdm_dyn(20)-lvm(20)_final(4).webm,0,1,1,66,,,,,,,,15:55:22:968,15:55:23:699,15:55:26:702,right,15:55:26:868,,2018_Jun_13_1527,59.9373792805,MP-Perception Experiment,xx20m31,
321,vcgpdm_dyn(10)-lvm(20)_final(4).webm,True,left,2,training(4).webm,0,2,2,149,,,,,,,,15:55:27:668,15:55:28:370,15:55:31:372,left,15:55:31:556,,2018_Jun_13_1527,59.9373792805,MP-Perception Experiment,xx20m31,
322,vgpdm_dyn(10)-lvm(30)_final(2).webm,True,left,2,training(7).webm,0,3,3,3,,,,,,,,15:55:32:331,15:55:33:074,15:55:36:060,left,15:55:36:077,,2018_Jun_13_1527,59.9373792805,MP-Perception Experiment,xx20m31,
323,training(5).webm,False,right,2,dmp_npsi(45)_final(4).webm,0,4,4,62,,,,,,,,15:55:36:861,15:55:37:578,15:55:40:581,right,15:55:40:814,,2018_Jun_13_1527,59.9373792805,MP-Perception Experiment,xx20m31,
324,training(13).webm,True,right,2,tmp_numprim(3)_final(9).webm,0,5,5,68,,,,,,,,15:55:41:575,15:55:42:315,15:55:45:318,right,15:55:45:685,,2018_Jun_13_1527,59.9373792805,MP-Perception Experiment,xx20m31,
325,vgpdm_dyn(25)-lvm(5)_final(2).webm,False,left,2,training(4).webm,0,6,6,98,,,,,,,,15:55:46:622,15:55:47:186,15:55:50:189,left,15:55:50:623,,2018_Jun_13_1527,59.9373792805,MP-Perception Experiment,xx20m31,
326,training(8).webm,True,right,2,dmp_npsi(35)_final(7).webm,0,7,7,87,,,,,,,,15:55:51:566,15:55:52:124,15:55:55:127,left,15:55:55:494,,2018_Jun_13_1527,59.9373792805,MP-Perception Experiment,xx20m31,
327,vgpdm_dyn(35)-lvm(30)_final(4).webm,True,left,2,training(26).webm,0,8,8,78,,,,,,,,15:55:56:444,15:55:57:010,15:55:59:995,left,15:56:02:197,,2018_Jun_13_1527,59.9373792805,MP-Perception Experiment,xx20m31,
328,training(40).webm,True,right,2,vcgpdm_dyn(15)-lvm(15)_final(4).webm,0,9,9,64,,,,,,,,15:56:02:953,15:56:03:698,15:56:06:701,right,15:56:06:952,,2018_Jun_13_1527,59.9373792805,MP-Perception Experiment,xx20m31,
329,vgpdm_dyn(10)-lvm(20)_final(7).webm,False,left,2,training(26).webm,0,10,10,110,,,,,,,,15:56:07:712,15:56:08:453,15:56:11:441,left,15:56:11:741,,2018_Jun_13_1527,59.9373792805,MP-Perception Experiment,xx20m31,
330,training(10).webm,True,right,2,vcgpdm_dyn(5)-lvm(5)_final(8).webm,0,11,11,129,,,,,,,,15:56:12:687,15:56:13:242,15:56:16:245,right,15:56:16:528,,2018_Jun_13_1527,59.9373792805,MP-Perception Experiment,xx20m31,
331,vcgpdm_dyn(10)-lvm(5)_final(3).webm,False,left,2,training(12).webm,0,12,12,5,,,,,,,,15:56:17:483,15:56:18:029,15:56:21:032,left,15:56:21:365,,2018_Jun_13_1527,59.9373792805,MP-Perception Experiment,xx20m31,
332,tmp_numprim(7)_final(9).webm,True,left,2,training(17).webm,0,13,13,12,,,,,,,,15:56:22:313,15:56:22:867,15:56:25:870,left,15:56:26:154,,2018_Jun_13_1527,59.9373792805,MP-Perception Experiment,xx20m31,
333,vgpdm_dyn(30)-lvm(15)_final(0).webm,False,left,2,training(24).webm,0,14,14,11,,,,,,,,15:56:26:917,15:56:27:655,15:56:30:657,left,15:56:31:074,,2018_Jun_13_1527,59.9373792805,MP-Perception Experiment,xx20m31,
334,vgpdm_dyn(20)-lvm(15)_final(0).webm,False,left,2,training(25).webm,0,15,15,89,,,,,,,,15:56:32:025,15:56:32:575,15:56:35:578,right,15:56:36:062,,2018_Jun_13_1527,59.9373792805,MP-Perception Experiment,xx20m31,
335,training(33).webm,True,right,2,vcgpdm_dyn(25)-lvm(5)_final(2).webm,0,16,16,39,,,,,,,,15:56:36:834,15:56:37:563,15:56:40:565,right,15:56:41:016,,2018_Jun_13_1527,59.9373792805,MP-Perception Experiment,xx20m31,
336,vgpdm_dyn(10)-lvm(30)_final(4).webm,False,left,2,training(10).webm,0,17,17,37,,,,,,,,15:56:42:031,15:56:42:534,15:56:45:520,left,15:56:45:937,,2018_Jun_13_1527,59.9373792805,MP-Perception Experiment,xx20m31,
337,training(10).webm,True,right,2,vcgpdm_dyn(25)-lvm(30)_final(1).webm,0,18,18,155,,,,,,,,15:56:46:872,15:56:47:453,15:56:50:439,left,15:56:50:990,,2018_Jun_13_1527,59.9373792805,MP-Perception Experiment,xx20m31,
338,training(27).webm,True,right,2,vgpdm_dyn(15)-lvm(5)_final(4).webm,0,19,19,135,,,,,,,,15:56:51:930,15:56:52:491,15:56:55:493,right,15:56:55:843,,2018_Jun_13_1527,59.9373792805,MP-Perception Experiment,xx20m31,
339,dmp_npsi(50)_final(5).webm,True,left,2,training(18).webm,0,20,20,51,,,,,,,,15:56:56:776,15:56:57:345,15:57:00:333,left,15:57:00:667,,2018_Jun_13_1527,59.9373792805,MP-Perception Experiment,xx20m31,
340,vcgpdm_dyn(20)-lvm(5)_final(2).webm,True,left,2,training(2).webm,0,21,21,56,,,,,,,,15:57:01:621,15:57:02:168,15:57:05:171,left,15:57:05:437,,2018_Jun_13_1527,59.9373792805,MP-Perception Experiment,xx20m31,
341,vcgpdm_dyn(35)-lvm(5)_final(3).webm,False,left,2,training(27).webm,0,22,22,146,,,,,,,,15:57:06:389,15:57:06:938,15:57:09:941,left,15:57:10:325,,2018_Jun_13_1527,59.9373792805,MP-Perception Experiment,xx20m31,
342,training(39).webm,True,right,2,vgpdm_dyn(30)-lvm(35)_final(3).webm,0,23,23,8,,,,,,,,15:57:11:084,15:57:11:826,15:57:14:828,right,15:57:15:095,,2018_Jun_13_1527,59.9373792805,MP-Perception Experiment,xx20m31,
343,vgpdm_dyn(35)-lvm(5)_final(2).webm,True,left,2,training(1).webm,0,24,24,139,,,,,,,,15:57:15:853,15:57:16:613,15:57:19:600,left,15:57:20:083,,2018_Jun_13_1527,59.9373792805,MP-Perception Experiment,xx20m31,
344,training(38).webm,True,right,2,dmp_npsi(45)_final(0).webm,0,25,25,123,,,,,,,,15:57:20:843,15:57:21:585,15:57:24:587,left,15:57:25:004,,2018_Jun_13_1527,59.9373792805,MP-Perception Experiment,xx20m31,
345,vcgpdm_dyn(25)-lvm(10)_final(2).webm,True,left,2,training(37).webm,0,26,26,40,,,,,,,,15:57:26:628,15:57:26:628,15:57:29:508,left,15:57:29:991,,2018_Jun_13_1527,59.9373792805,MP-Perception Experiment,xx20m31,
346,vcgpdm_dyn(20)-lvm(35)_final(6).webm,True,left,2,training(2).webm,0,27,27,112,,,,,,,,15:57:30:753,15:57:31:493,15:57:34:496,left,15:57:35:414,,2018_Jun_13_1527,59.9373792805,MP-Perception Experiment,xx20m31,
347,training(4).webm,False,right,2,vgpdm_dyn(30)-lvm(15)_final(2).webm,0,28,28,86,,,,,,,,15:57:36:174,15:57:36:915,15:57:39:915,right,15:57:40:015,,2018_Jun_13_1527,59.9373792805,MP-Perception Experiment,xx20m31,
348,training(17).webm,True,right,2,vcgpdm_dyn(35)-lvm(10)_final(9).webm,0,29,29,119,,,,,,,,15:57:40:782,15:57:41:517,15:57:44:519,left,15:57:44:602,,2018_Jun_13_1527,59.9373792805,MP-Perception Experiment,xx20m31,
349,training(36).webm,False,right,2,vcgpdm_dyn(25)-lvm(10)_final(6).webm,0,30,30,70,,,,,,,,15:57:45:385,15:57:46:104,15:57:49:106,right,15:57:49:406,,2018_Jun_13_1527,59.9373792805,MP-Perception Experiment,xx20m31,
350,training(17).webm,True,right,2,vgpdm_dyn(5)-lvm(15)_final(0).webm,0,31,31,81,,,,,,,,15:57:50:173,15:57:50:907,15:57:53:896,right,15:57:54:013,,2018_Jun_13_1527,59.9373792805,MP-Perception Experiment,xx20m31,
351,tmp_numprim(7)_final(9).webm,True,left,2,training(39).webm,0,32,32,143,,,,,,,,15:57:54:946,15:57:55:514,15:57:58:517,right,15:57:58:567,,2018_Jun_13_1527,59.9373792805,MP-Perception Experiment,xx20m31,
352,training(27).webm,True,right,2,vgpdm_dyn(15)-lvm(5)_final(2).webm,0,33,33,76,,,,,,,,15:57:59:336,15:58:00:068,15:58:03:070,right,15:58:03:304,,2018_Jun_13_1527,59.9373792805,MP-Perception Experiment,xx20m31,
353,training(22).webm,False,right,2,vgpdm_dyn(20)-lvm(5)_final(4).webm,0,34,34,128,,,,,,,,15:58:04:067,15:58:04:805,15:58:07:807,right,15:58:08:308,,2018_Jun_13_1527,59.9373792805,MP-Perception Experiment,xx20m31,
354,vgpdm_dyn(15)-lvm(5)_final(9).webm,True,left,2,training(36).webm,0,35,35,72,,,,,,,,15:58:09:089,15:58:09:810,15:58:12:812,left,15:58:13:046,,2018_Jun_13_1527,59.9373792805,MP-Perception Experiment,xx20m31,
355,vgpdm_dyn(15)-lvm(30)_final(9).webm,True,left,2,training(12).webm,0,36,36,75,,,,,,,,15:58:13:815,15:58:14:547,15:58:17:550,left,15:58:17:917,,2018_Jun_13_1527,59.9373792805,MP-Perception Experiment,xx20m31,
356,training(6).webm,True,right,2,vcgpdm_dyn(10)-lvm(30)_final(3).webm,0,37,37,60,,,,,,,,15:58:18:676,15:58:19:418,15:58:22:420,right,15:58:22:720,,2018_Jun_13_1527,59.9373792805,MP-Perception Experiment,xx20m31,
357,training(37).webm,True,right,2,vgpdm_dyn(15)-lvm(35)_final(6).webm,0,38,38,157,,,,,,,,15:58:23:663,15:58:24:221,15:58:27:225,left,15:58:27:523,,2018_Jun_13_1527,59.9373792805,MP-Perception Experiment,xx20m31,
358,training(33).webm,False,right,2,vgpdm_dyn(20)-lvm(35)_final(2).webm,0,39,39,114,,,,,,,,15:58:28:288,15:58:29:025,15:58:32:027,right,15:58:32:511,,2018_Jun_13_1527,59.9373792805,MP-Perception Experiment,xx20m31,
359,training(18).webm,True,right,2,dmp_npsi(35)_final(7).webm,0,40,40,82,,,,,,,,15:58:33:460,15:58:34:012,15:58:37:014,right,15:58:37:465,,2018_Jun_13_1527,59.9373792805,MP-Perception Experiment,xx20m31,
360,training(23).webm,False,right,2,vcgpdm_dyn(35)-lvm(20)_final(8).webm,0,41,41,61,,,,,,,,15:58:38:240,15:58:38:966,15:58:41:953,right,15:58:42:404,,2018_Jun_13_1527,59.9373792805,MP-Perception Experiment,xx20m31,
361,training(2).webm,False,right,2,vgpdm_dyn(35)-lvm(35)_final(7).webm,0,42,42,28,,,,,,,,15:58:43:161,15:58:43:905,15:58:46:925,right,15:58:47:326,,2018_Jun_13_1527,59.9373792805,MP-Perception Experiment,xx20m31,
362,vgpdm_dyn(25)-lvm(10)_final(6)_out_of_screen.webm,False,left,2,training(25).webm,0,43,43,1,,,,,,,,15:58:48:111,15:58:48:827,15:58:51:829,left,15:58:52:213,,2018_Jun_13_1527,59.9373792805,MP-Perception Experiment,xx20m31,
363,vcgpdm_dyn(20)-lvm(10)_final(5).webm,False,left,2,training(14).webm,0,44,44,113,,,,,,,,15:58:52:979,15:58:53:714,15:58:56:717,left,15:58:56:967,,2018_Jun_13_1527,59.9373792805,MP-Perception Experiment,xx20m31,
364,training(21).webm,True,right,2,vcgpdm_dyn(30)-lvm(20)_final(3).webm,0,45,45,130,,,,,,,,15:58:57:726,15:58:58:468,15:59:01:470,left,15:59:01:922,,2018_Jun_13_1527,59.9373792805,MP-Perception Experiment,xx20m31,
365,dmp_npsi(45)_final(3).webm,False,left,2,training(22).webm,0,46,46,53,,,,,,,,15:59:02:685,15:59:03:423,15:59:06:425,left,15:59:06:709,,2018_Jun_13_1527,59.9373792805,MP-Perception Experiment,xx20m31,
366,dmp_npsi(40)_final(8).webm,False,left,2,training(33).webm,0,47,47,122,,,,,,,,15:59:07:476,15:59:08:210,15:59:11:213,left,15:59:11:546,,2018_Jun_13_1527,59.9373792805,MP-Perception Experiment,xx20m31,
367,training(26).webm,True,right,2,vgpdm_dyn(35)-lvm(25)_final(1).webm,0,48,48,127,,,,,,,,15:59:12:489,15:59:13:047,15:59:16:050,right,15:59:16:350,,2018_Jun_13_1527,59.9373792805,MP-Perception Experiment,xx20m31,
368,vcgpdm_dyn(15)-lvm(5)_final(3).webm,False,left,2,training(34).webm,0,49,49,55,,,,,,,,15:59:17:286,15:59:17:866,15:59:20:853,right,15:59:21:170,,2018_Jun_13_1527,59.9373792805,MP-Perception Experiment,xx20m31,
369,training(26).webm,True,right,2,vgpdm_dyn(10)-lvm(10)_final(9).webm,0,50,50,0,,,,,,,,15:59:22:115,15:59:22:671,15:59:25:673,right,15:59:26:240,,2018_Jun_13_1527,59.9373792805,MP-Perception Experiment,xx20m31,
370,training(33).webm,True,right,2,vcgpdm_dyn(5)-lvm(25)_final(9).webm,0,51,51,23,,,,,,,,15:59:27:026,15:59:27:742,15:59:30:729,right,15:59:31:096,,2018_Jun_13_1527,59.9373792805,MP-Perception Experiment,xx20m31,
371,vgpdm_dyn(25)-lvm(5)_final(9).webm,True,left,2,training(12).webm,0,52,52,95,,,,,,,,15:59:32:056,15:59:32:597,15:59:35:617,left,15:59:35:883,,2018_Jun_13_1527,59.9373792805,MP-Perception Experiment,xx20m31,
372,training(39).webm,True,right,2,vcgpdm_dyn(35)-lvm(20)_final(1).webm,0,53,53,30,,,,,,,,15:59:36:837,15:59:37:385,15:59:40:388,right,15:59:40:505,,2018_Jun_13_1527,59.9373792805,MP-Perception Experiment,xx20m31,
373,training(35).webm,False,right,2,vgpdm_dyn(30)-lvm(25)_final(7).webm,0,54,54,151,,,,,,,,15:59:41:275,15:59:42:006,15:59:45:008,right,15:59:45:209,,2018_Jun_13_1527,59.9373792805,MP-Perception Experiment,xx20m31,
374,vgpdm_dyn(20)-lvm(35)_final(8).webm,False,left,2,training(38).webm,0,55,55,103,,,,,,,,15:59:46:146,15:59:46:710,15:59:49:712,left,15:59:50:012,,2018_Jun_13_1527,59.9373792805,MP-Perception Experiment,xx20m31,
375,tmp_numprim(9)_final(7).webm,True,left,2,training(48).webm,0,56,56,10,,,,,,,,15:59:50:993,15:59:51:514,15:59:54:517,left,15:59:54:534,,2018_Jun_13_1527,59.9373792805,MP-Perception Experiment,xx20m31,
376,vgpdm_dyn(25)-lvm(20)_final(1).webm,False,left,2,training(28).webm,0,57,57,7,,,,,,,,15:59:55:317,15:59:56:035,15:59:59:037,left,15:59:59:371,,2018_Jun_13_1527,59.9373792805,MP-Perception Experiment,xx20m31,
377,training(33).webm,True,right,2,tmp_numprim(10)_final(0).webm,0,58,58,52,,,,,,,,16:00:00:145,16:00:00:872,16:00:03:875,right,16:00:03:941,,2018_Jun_13_1527,59.9373792805,MP-Perception Experiment,xx20m31,
378,training(14).webm,False,right,2,vcgpdm_dyn(25)-lvm(35)_final(4).webm,0,59,59,125,,,,,,,,16:00:04:699,16:00:05:442,16:00:08:443,right,16:00:08:760,,2018_Jun_13_1527,59.9373792805,MP-Perception Experiment,xx20m31,
379,training(17).webm,False,right,2,vgpdm_dyn(35)-lvm(25)_final(9).webm,0,60,60,132,,,,,,,,16:00:09:527,16:00:10:261,16:00:13:265,right,16:00:13:565,,2018_Jun_13_1527,59.9373792805,MP-Perception Experiment,xx20m31,
380,training(29).webm,True,right,2,vgpdm_dyn(10)-lvm(25)_final(9).webm,0,61,61,26,,,,,,,,16:00:14:332,16:00:15:066,16:00:18:069,right,16:00:18:352,,2018_Jun_13_1527,59.9373792805,MP-Perception Experiment,xx20m31,
381,vcgpdm_dyn(35)-lvm(25)_final(2).webm,False,left,2,training(5).webm,0,62,62,69,,,,,,,,16:00:19:108,16:00:19:855,16:00:22:841,left,16:00:23:291,,2018_Jun_13_1527,59.9373792805,MP-Perception Experiment,xx20m31,
382,training(32).webm,True,right,2,vcgpdm_dyn(15)-lvm(10)_final(8).webm,0,63,63,148,,,,,,,,16:00:24:055,16:00:24:792,16:00:27:795,left,16:00:28:696,,2018_Jun_13_1527,59.9373792805,MP-Perception Experiment,xx20m31,
383,vgpdm_dyn(10)-lvm(35)_final(4).webm,True,left,2,training(17).webm,0,64,64,96,,,,,,,,16:00:29:463,16:00:30:198,16:00:33:200,left,16:00:33:968,,2018_Jun_13_1527,59.9373792805,MP-Perception Experiment,xx20m31,
384,training(22).webm,False,right,2,vgpdm_dyn(20)-lvm(5)_final(7).webm,0,65,65,108,,,,,,,,16:00:34:728,16:00:35:469,16:00:38:471,left,16:00:38:855,,2018_Jun_13_1527,59.9373792805,MP-Perception Experiment,xx20m31,
385,training(27).webm,True,right,2,vcgpdm_dyn(15)-lvm(10)_final(9).webm,0,66,66,111,,,,,,,,16:00:39:624,16:00:40:356,16:00:43:358,right,16:00:43:592,,2018_Jun_13_1527,59.9373792805,MP-Perception Experiment,xx20m31,
386,vgpdm_dyn(30)-lvm(30)_final(4).webm,False,left,2,training(31).webm,0,67,67,83,,,,,,,,16:00:44:353,16:00:45:093,16:00:48:097,right,16:00:48:147,,2018_Jun_13_1527,59.9373792805,MP-Perception Experiment,xx20m31,
387,training(16).webm,True,right,2,vgpdm_dyn(30)-lvm(15)_final(2).webm,0,68,68,18,,,,,,,,16:00:48:919,16:00:49:648,16:00:52:650,right,16:00:52:934,,2018_Jun_13_1527,59.9373792805,MP-Perception Experiment,xx20m31,
388,training(5).webm,True,right,2,vcgpdm_dyn(15)-lvm(30)_final(6).webm,0,69,69,42,,,,,,,,16:00:53:904,16:00:54:435,16:00:57:438,right,16:00:58:019,,2018_Jun_13_1527,59.9373792805,MP-Perception Experiment,xx20m31,
389,training(14).webm,False,right,2,vcgpdm_dyn(10)-lvm(5)_final(6).webm,0,70,70,93,,,,,,,,16:00:58:783,16:00:59:521,16:01:02:523,right,16:01:02:657,,2018_Jun_13_1527,59.9373792805,MP-Perception Experiment,xx20m31,
390,vcgpdm_dyn(35)-lvm(10)_final(6).webm,False,left,2,training(8).webm,0,71,71,158,,,,,,,,16:01:03:602,16:01:04:159,16:01:07:161,left,16:01:07:511,,2018_Jun_13_1527,59.9373792805,MP-Perception Experiment,xx20m31,
391,training(6).webm,True,right,2,vgpdm_dyn(10)-lvm(5)_final(3).webm,0,72,72,67,,,,,,,,16:01:08:449,16:01:09:013,16:01:12:000,right,16:01:12:300,,2018_Jun_13_1527,59.9373792805,MP-Perception Experiment,xx20m31,
392,vgpdm_dyn(30)-lvm(20)_final(8).webm,True,left,2,training(20).webm,0,73,73,152,,,,,,,,16:01:13:066,16:01:13:802,16:01:16:804,right,16:01:17:238,,2018_Jun_13_1527,59.9373792805,MP-Perception Experiment,xx20m31,
393,dmp_npsi(40)_final(1).webm,True,left,2,training(9).webm,0,74,74,101,,,,,,,,16:01:17:998,16:01:18:739,16:01:21:742,left,16:01:21:926,,2018_Jun_13_1527,59.9373792805,MP-Perception Experiment,xx20m31,
394,vgpdm_dyn(10)-lvm(20)_final(0).webm,False,left,2,training(21).webm,0,75,75,77,,,,,,,,16:01:22:694,16:01:23:427,16:01:26:430,left,16:01:26:596,,2018_Jun_13_1527,59.9373792805,MP-Perception Experiment,xx20m31,
395,training(18).webm,False,right,2,vgpdm_dyn(15)-lvm(25)_final(4).webm,0,76,76,2,,,,,,,,16:01:27:356,16:01:28:097,16:01:31:100,right,16:01:31:233,,2018_Jun_13_1527,59.9373792805,MP-Perception Experiment,xx20m31,
396,training(30).webm,False,right,2,vcgpdm_dyn(10)-lvm(30)_final(1).webm,0,77,77,90,,,,,,,,16:01:31:999,16:01:32:734,16:01:35:737,right,16:01:36:054,,2018_Jun_13_1527,59.9373792805,MP-Perception Experiment,xx20m31,
397,training(14).webm,False,right,2,vgpdm_dyn(30)-lvm(25)_final(7).webm,0,78,78,141,,,,,,,,16:01:36:823,16:01:37:555,16:01:40:559,left,16:01:41:092,,2018_Jun_13_1527,59.9373792805,MP-Perception Experiment,xx20m31,
398,training(21).webm,True,right,2,vcgpdm_dyn(35)-lvm(15)_final(5)_out_of_screen.webm,0,79,79,92,,,,,,,,16:01:41:853,16:01:42:593,16:01:45:596,right,16:01:45:913,,2018_Jun_13_1527,59.9373792805,MP-Perception Experiment,xx20m31,
399,vcgpdm_dyn(20)-lvm(25)_final(4).webm,False,left,2,training(36).webm,0,80,80,147,,,,,,,,16:01:46:671,16:01:47:414,16:01:50:415,left,16:01:50:765,,2018_Jun_13_1527,59.9373792805,MP-Perception Experiment,xx20m31,
400,vcgpdm_dyn(25)-lvm(30)_final(3).webm,False,left,2,training(34).webm,0,81,81,21,,,,,,,,16:01:51:736,16:01:52:266,16:01:55:269,left,16:01:55:452,,2018_Jun_13_1527,59.9373792805,MP-Perception Experiment,xx20m31,
401,training(8).webm,True,right,2,vgpdm_dyn(15)-lvm(25)_final(9).webm,0,82,82,35,,,,,,,,16:01:56:238,16:01:56:954,16:01:59:942,right,16:02:00:175,,2018_Jun_13_1527,59.9373792805,MP-Perception Experiment,xx20m31,
402,vcgpdm_dyn(5)-lvm(15)_final(7).webm,False,left,2,training(14).webm,0,83,83,59,,,,,,,,16:02:00:945,16:02:01:676,16:02:04:679,right,16:02:05:079,,2018_Jun_13_1527,59.9373792805,MP-Perception Experiment,xx20m31,
403,training(25).webm,False,right,2,vcgpdm_dyn(20)-lvm(10)_final(4).webm,0,84,84,102,,,,,,,,16:02:06:018,16:02:06:580,16:02:09:583,right,16:02:09:733,,2018_Jun_13_1527,59.9373792805,MP-Perception Experiment,xx20m31,
404,training(37).webm,False,right,2,vgpdm_dyn(30)-lvm(30)_final(7).webm,0,85,85,118,,,,,,,,16:02:10:693,16:02:11:234,16:02:14:238,left,16:02:14:655,,2018_Jun_13_1527,59.9373792805,MP-Perception Experiment,xx20m31,
405,training(14).webm,False,right,2,vcgpdm_dyn(20)-lvm(15)_final(9).webm,0,86,86,134,,,,,,,,16:02:15:595,16:02:16:156,16:02:19:158,right,16:02:19:359,,2018_Jun_13_1527,59.9373792805,MP-Perception Experiment,xx20m31,
406,dmp_npsi(50)_final(9).webm,True,left,2,training(23).webm,0,87,87,154,,,,,,,,16:02:20:125,16:02:20:860,16:02:23:862,left,16:02:24:046,,2018_Jun_13_1527,59.9373792805,MP-Perception Experiment,xx20m31,
407,training(2).webm,False,right,2,vcgpdm_dyn(20)-lvm(20)_final(0).webm,0,88,88,109,,,,,,,,16:02:24:980,16:02:25:547,16:02:28:549,right,16:02:28:816,,2018_Jun_13_1527,59.9373792805,MP-Perception Experiment,xx20m31,
408,training(1).webm,False,right,2,vcgpdm_dyn(10)-lvm(20)_final(0).webm,0,89,89,17,,,,,,,,16:02:29:576,16:02:30:317,16:02:33:321,right,16:02:33:654,,2018_Jun_13_1527,59.9373792805,MP-Perception Experiment,xx20m31,
409,training(31).webm,False,right,2,vcgpdm_dyn(30)-lvm(15)_final(7).webm,0,90,90,41,,,,,,,,16:02:34:434,16:02:35:155,16:02:38:156,right,16:02:38:206,,2018_Jun_13_1527,59.9373792805,MP-Perception Experiment,xx20m31,
410,tmp_numprim(7)_final(4).webm,False,left,2,training(30).webm,0,91,91,133,,,,,,,,16:02:38:973,16:02:39:707,16:02:42:710,right,16:02:43:027,,2018_Jun_13_1527,59.9373792805,MP-Perception Experiment,xx20m31,
411,vgpdm_dyn(10)-lvm(15)_final(6).webm,True,left,2,training(48).webm,0,92,92,145,,,,,,,,16:02:43:790,16:02:44:528,16:02:47:530,left,16:02:47:864,,2018_Jun_13_1527,59.9373792805,MP-Perception Experiment,xx20m31,
412,training(31).webm,False,right,2,vcgpdm_dyn(15)-lvm(25)_final(0).webm,0,93,93,121,,,,,,,,16:02:48:626,16:02:49:366,16:02:52:354,right,16:02:52:571,,2018_Jun_13_1527,59.9373792805,MP-Perception Experiment,xx20m31,
413,training(40).webm,False,right,2,vcgpdm_dyn(25)-lvm(20)_final(9).webm,0,94,94,49,,,,,,,,16:02:53:513,16:02:54:072,16:02:57:074,right,16:02:58:058,,2018_Jun_13_1527,59.9373792805,MP-Perception Experiment,xx20m31,
414,vcgpdm_dyn(5)-lvm(5)_final(3).webm,False,left,2,training(18).webm,0,95,95,107,,,,,,,,16:02:58:854,16:02:59:559,16:03:02:562,left,16:03:02:929,,2018_Jun_13_1527,59.9373792805,MP-Perception Experiment,xx20m31,
415,training(11).webm,True,right,2,dmp_npsi(15)_final(3).webm,0,96,96,27,,,,,,,,16:03:03:870,16:03:04:430,16:03:07:434,right,16:03:07:717,,2018_Jun_13_1527,59.9373792805,MP-Perception Experiment,xx20m31,
416,tmp_numprim(5)_final(4).webm,True,left,2,training(48).webm,0,97,97,94,,,,,,,,16:03:08:624,16:03:09:218,16:03:12:221,left,16:03:12:705,,2018_Jun_13_1527,59.9373792805,MP-Perception Experiment,xx20m31,
417,vgpdm_dyn(30)-lvm(10)_final(4).webm,False,left,2,training(15).webm,0,98,98,46,,,,,,,,16:03:13:643,16:03:14:206,16:03:17:208,left,16:03:17:508,,2018_Jun_13_1527,59.9373792805,MP-Perception Experiment,xx20m31,
418,dmp_npsi(35)_final(4).webm,True,left,2,training(14).webm,0,99,99,65,,,,,,,,16:03:18:438,16:03:19:010,16:03:22:012,left,16:03:22:112,,2018_Jun_13_1527,59.9373792805,MP-Perception Experiment,xx20m31,
419,training(17).webm,False,right,2,map_gpdm_final(3).webm,0,100,100,131,,,,,,,,16:03:23:064,16:03:23:613,16:03:26:617,right,16:03:26:934,,2018_Jun_13_1527,59.9373792805,MP-Perception Experiment,xx20m31,
420,vcgpdm_dyn(10)-lvm(10)_final(1).webm,False,left,2,training(26).webm,0,101,101,15,,,,,,,,16:03:27:726,16:03:28:450,16:03:31:436,right,16:03:31:769,,2018_Jun_13_1527,59.9373792805,MP-Perception Experiment,xx20m31,
421,training(8).webm,True,right,2,vgpdm_dyn(25)-lvm(30)_final(7).webm,0,102,102,73,,,,,,,,16:03:32:719,16:03:33:270,16:03:36:273,left,16:03:36:656,,2018_Jun_13_1527,59.9373792805,MP-Perception Experiment,xx20m31,
422,training(27).webm,False,right,2,tmp_numprim(9)_final(9).webm,0,103,103,79,,,,,,,,16:03:37:418,16:03:38:158,16:03:41:145,right,16:03:41:513,,2018_Jun_13_1527,59.9373792805,MP-Perception Experiment,xx20m31,
423,dmp_npsi(25)_final(5).webm,False,left,2,training(19).webm,0,104,104,104,,,,,,,,16:03:42:462,16:03:43:014,16:03:46:017,left,16:03:46:334,,2018_Jun_13_1527,59.9373792805,MP-Perception Experiment,xx20m31,
424,vcgpdm_dyn(35)-lvm(5)_final(3).webm,True,left,2,training(38).webm,0,105,105,115,,,,,,,,16:03:47:101,16:03:47:835,16:03:50:837,left,16:03:51:221,,2018_Jun_13_1527,59.9373792805,MP-Perception Experiment,xx20m31,
425,training(41).webm,True,right,2,vgpdm_dyn(35)-lvm(10)_final(5).webm,0,106,106,99,,,,,,,,16:03:51:981,16:03:52:722,16:03:55:725,left,16:03:56:175,,2018_Jun_13_1527,59.9373792805,MP-Perception Experiment,xx20m31,
426,training(6).webm,True,right,2,vcgpdm_dyn(25)-lvm(25)_final(4).webm,0,107,107,117,,,,,,,,16:03:56:938,16:03:57:676,16:04:00:680,left,16:04:00:963,,2018_Jun_13_1527,59.9373792805,MP-Perception Experiment,xx20m31,
427,vgpdm_dyn(30)-lvm(10)_final(6).webm,False,left,2,training(30).webm,0,108,108,140,,,,,,,,16:04:01:791,16:04:02:464,16:04:05:467,left,16:04:05:850,,2018_Jun_13_1527,59.9373792805,MP-Perception Experiment,xx20m31,
428,training(36).webm,False,right,2,vcgpdm_dyn(5)-lvm(10)_final(0).webm,0,109,109,43,,,,,,,,16:04:06:616,16:04:07:352,16:04:10:354,right,16:04:10:738,,2018_Jun_13_1527,59.9373792805,MP-Perception Experiment,xx20m31,
429,training(29).webm,True,right,2,vcgpdm_dyn(25)-lvm(30)_final(3).webm,0,110,110,80,,,,,,,,16:04:11:495,16:04:12:239,16:04:15:241,right,16:04:15:708,,2018_Jun_13_1527,59.9373792805,MP-Perception Experiment,xx20m31,
430,vcgpdm_dyn(10)-lvm(35)_final(1).webm,True,left,2,training(26).webm,0,111,111,63,,,,,,,,16:04:16:474,16:04:17:210,16:04:20:211,left,16:04:20:695,,2018_Jun_13_1527,59.9373792805,MP-Perception Experiment,xx20m31,
431,training(3).webm,False,right,2,dmp_npsi(50)_final(6).webm,0,112,112,142,,,,,,,,16:04:21:463,16:04:22:196,16:04:25:199,right,16:04:25:966,,2018_Jun_13_1527,59.9373792805,MP-Perception Experiment,xx20m31,
432,training(24).webm,False,right,2,tmp_numprim(7)_final(2).webm,0,113,113,144,,,,,,,,16:04:26:727,16:04:27:467,16:04:30:469,left,16:04:30:953,,2018_Jun_13_1527,59.9373792805,MP-Perception Experiment,xx20m31,
433,vgpdm_dyn(30)-lvm(30)_final(3).webm,True,left,2,training(6).webm,0,114,114,20,,,,,,,,16:04:31:718,16:04:32:456,16:04:35:443,right,16:04:36:277,,2018_Jun_13_1527,59.9373792805,MP-Perception Experiment,xx20m31,
434,training(15).webm,False,right,2,tmp_numprim(4)_final(7).webm,0,115,115,57,,,,,,,,16:04:37:042,16:04:37:778,16:04:40:781,right,16:04:41:164,,2018_Jun_13_1527,59.9373792805,MP-Perception Experiment,xx20m31,
435,training(12).webm,True,right,2,vcgpdm_dyn(15)-lvm(15)_final(7).webm,0,116,116,84,,,,,,,,16:04:41:919,16:04:42:665,16:04:45:668,right,16:04:45:735,,2018_Jun_13_1527,59.9373792805,MP-Perception Experiment,xx20m31,
436,training(5).webm,False,right,2,dmp_npsi(30)_final(4).webm,0,117,117,47,,,,,,,,16:04:46:667,16:04:47:236,16:04:50:255,right,16:04:50:538,,2018_Jun_13_1527,59.9373792805,MP-Perception Experiment,xx20m31,
437,training(3).webm,False,right,2,tmp_numprim(3)_final(2).webm,0,118,118,34,,,,,,,,16:04:51:484,16:04:52:041,16:04:55:043,right,16:04:55:293,,2018_Jun_13_1527,59.9373792805,MP-Perception Experiment,xx20m31,
438,vgpdm_dyn(5)-lvm(30)_final(2).webm,True,left,2,training(8).webm,0,119,119,138,,,,,,,,16:04:56:065,16:04:56:794,16:04:59:797,left,16:05:00:030,,2018_Jun_13_1527,59.9373792805,MP-Perception Experiment,xx20m31,
439,training(34).webm,False,right,2,map_gpdm_final(4).webm,0,120,120,137,,,,,,,,16:05:00:966,16:05:01:532,16:05:04:534,right,16:05:04:768,,2018_Jun_13_1527,59.9373792805,MP-Perception Experiment,xx20m31,
440,vcgpdm_dyn(5)-lvm(25)_final(2).webm,True,left,2,training(17).webm,0,121,121,25,,,,,,,,16:05:05:532,16:05:06:269,16:05:09:270,left,16:05:09:521,,2018_Jun_13_1527,59.9373792805,MP-Perception Experiment,xx20m31,
441,training(20).webm,False,right,2,vcgpdm_dyn(20)-lvm(20)_final(4).webm,0,122,122,50,,,,,,,,16:05:10:302,16:05:11:022,16:05:14:024,left,16:05:14:608,,2018_Jun_13_1527,59.9373792805,MP-Perception Experiment,xx20m31,
442,training(21).webm,False,right,2,vgpdm_dyn(30)-lvm(30)_final(8).webm,0,123,123,88,,,,,,,,16:05:15:559,16:05:16:109,16:05:19:112,left,16:05:19:414,,2018_Jun_13_1527,59.9373792805,MP-Perception Experiment,xx20m31,
443,training(3).webm,True,right,2,vcgpdm_dyn(30)-lvm(35)_final(0).webm,0,124,124,156,,,,,,,,16:05:20:200,16:05:20:915,16:05:23:917,left,16:05:24:218,,2018_Jun_13_1527,59.9373792805,MP-Perception Experiment,xx20m31,
444,vcgpdm_dyn(25)-lvm(20)_final(3).webm,False,left,2,training(9).webm,0,125,125,31,,,,,,,,16:05:25:154,16:05:25:719,16:05:28:722,left,16:05:29:173,,2018_Jun_13_1527,59.9373792805,MP-Perception Experiment,xx20m31,
445,vgpdm_dyn(35)-lvm(30)_final(7).webm,False,left,2,training(6).webm,0,126,126,6,,,,,,,,16:05:29:932,16:05:30:674,16:05:33:676,left,16:05:33:793,,2018_Jun_13_1527,59.9373792805,MP-Perception Experiment,xx20m31,
446,vgpdm_dyn(5)-lvm(15)_final(2).webm,True,left,2,training(9).webm,0,127,127,58,,,,,,,,16:05:34:551,16:05:35:294,16:05:38:297,left,16:05:38:430,,2018_Jun_13_1527,59.9373792805,MP-Perception Experiment,xx20m31,
447,vgpdm_dyn(25)-lvm(20)_final(0).webm,True,left,2,training(36).webm,0,128,128,106,,,,,,,,16:05:39:186,16:05:39:948,16:05:42:934,left,16:05:43:167,,2018_Jun_13_1527,59.9373792805,MP-Perception Experiment,xx20m31,
448,vcgpdm_dyn(15)-lvm(20)_final(0).webm,False,left,2,training(38).webm,0,129,129,54,,,,,,,,16:05:43:933,16:05:44:669,16:05:47:672,left,16:05:47:855,,2018_Jun_13_1527,59.9373792805,MP-Perception Experiment,xx20m31,
449,vgpdm_dyn(20)-lvm(15)_final(0).webm,False,left,2,training(37).webm,0,130,130,85,,,,,,,,16:05:48:613,16:05:49:356,16:05:52:359,left,16:05:52:726,,2018_Jun_13_1527,59.9373792805,MP-Perception Experiment,xx20m31,
450,vcgpdm_dyn(10)-lvm(10)_final(3).webm,True,left,2,training(25).webm,0,131,131,48,,,,,,,,16:05:53:491,16:05:54:227,16:05:57:230,left,16:05:57:730,,2018_Jun_13_1527,59.9373792805,MP-Perception Experiment,xx20m31,
451,tmp_numprim(4)_final(2).webm,False,left,2,training(16).webm,0,132,132,24,,,,,,,,16:05:58:621,16:05:59:246,16:06:02:233,left,16:06:02:450,,2018_Jun_13_1527,59.9373792805,MP-Perception Experiment,xx20m31,
452,training(26).webm,False,right,2,vcgpdm_dyn(5)-lvm(35)_final(7)_bad.webm,0,133,133,136,,,,,,,,16:06:03:395,16:06:03:951,16:06:06:953,right,16:06:07:387,,2018_Jun_13_1527,59.9373792805,MP-Perception Experiment,xx20m31,
453,training(22).webm,False,right,2,vcgpdm_dyn(15)-lvm(35)_final(2).webm,0,134,134,153,,,,,,,,16:06:08:340,16:06:08:888,16:06:11:876,right,16:06:12:226,,2018_Jun_13_1527,59.9373792805,MP-Perception Experiment,xx20m31,
454,training(33).webm,False,right,2,vcgpdm_dyn(25)-lvm(35)_final(8).webm,0,135,135,13,,,,,,,,16:06:13:195,16:06:13:727,16:06:16:730,right,16:06:17:063,,2018_Jun_13_1527,59.9373792805,MP-Perception Experiment,xx20m31,
455,training(3).webm,False,right,2,vgpdm_dyn(20)-lvm(25)_final(0).webm,0,136,136,97,,,,,,,,16:06:18:009,16:06:18:564,16:06:21:585,right,16:06:22:318,,2018_Jun_13_1527,59.9373792805,MP-Perception Experiment,xx20m31,
456,training(34).webm,True,right,2,vgpdm_dyn(20)-lvm(15)_final(0).webm,0,137,137,32,,,,,,,,16:06:23:251,16:06:23:820,16:06:26:822,right,16:06:27:172,,2018_Jun_13_1527,59.9373792805,MP-Perception Experiment,xx20m31,
457,training(23).webm,False,right,2,vcgpdm_dyn(10)-lvm(10)_final(9).webm,0,138,138,71,,,,,,,,16:06:27:964,16:06:28:690,16:06:31:676,right,16:06:32:026,,2018_Jun_13_1527,59.9373792805,MP-Perception Experiment,xx20m31,
458,training(25).webm,True,right,2,vcgpdm_dyn(30)-lvm(25)_final(7).webm,0,139,139,33,,,,,,,,16:06:32:976,16:06:33:527,16:06:36:531,right,16:06:36:848,,2018_Jun_13_1527,59.9373792805,MP-Perception Experiment,xx20m31,
459,training(27).webm,True,right,2,tmp_numprim(8)_final(5).webm,0,140,140,124,,,,,,,,16:06:37:793,16:06:38:349,16:06:41:352,left,16:06:41:518,,2018_Jun_13_1527,59.9373792805,MP-Perception Experiment,xx20m31,
460,training(14).webm,False,right,2,vgpdm_dyn(10)-lvm(5)_final(9).webm,0,141,141,16,,,,,,,,16:06:42:456,16:06:43:019,16:06:46:022,right,16:06:46:372,,2018_Jun_13_1527,59.9373792805,MP-Perception Experiment,xx20m31,
461,training(37).webm,False,right,2,vcgpdm_dyn(15)-lvm(5)_final(1).webm,0,142,142,9,,,,,,,,16:06:47:313,16:06:47:873,16:06:50:874,right,16:06:51:191,,2018_Jun_13_1527,59.9373792805,MP-Perception Experiment,xx20m31,
462,training(0).webm,False,right,2,tmp_numprim(8)_final(4).webm,0,143,143,116,,,,,,,,16:06:52:132,16:06:52:692,16:06:55:696,right,16:06:55:712,,2018_Jun_13_1527,59.9373792805,MP-Perception Experiment,xx20m31,
463,training(14).webm,False,right,2,vgpdm_dyn(30)-lvm(15)_final(7).webm,0,144,144,150,,,,,,,,16:06:56:469,16:06:57:213,16:07:00:216,right,16:07:00:583,,2018_Jun_13_1527,59.9373792805,MP-Perception Experiment,xx20m31,
464,tmp_numprim(10)_final(8).webm,True,left,2,training(2).webm,0,145,145,19,,,,,,,,16:07:01:342,16:07:02:084,16:07:05:072,left,16:07:05:138,,2018_Jun_13_1527,59.9373792805,MP-Perception Experiment,xx20m31,
465,vcgpdm_dyn(20)-lvm(15)_final(0).webm,True,left,2,training(23).webm,0,146,146,120,,,,,,,,16:07:05:894,16:07:06:639,16:07:09:642,left,16:07:09:742,,2018_Jun_13_1527,59.9373792805,MP-Perception Experiment,xx20m31,
466,training(7).webm,False,right,2,vcgpdm_dyn(25)-lvm(15)_final(1).webm,0,147,147,74,,,,,,,,16:07:10:501,16:07:11:261,16:07:14:247,left,16:07:14:580,,2018_Jun_13_1527,59.9373792805,MP-Perception Experiment,xx20m31,
467,vgpdm_dyn(20)-lvm(20)_final(5).webm,True,left,2,training(4).webm,0,148,148,36,,,,,,,,16:07:15:545,16:07:16:081,16:07:19:084,left,16:07:19:134,,2018_Jun_13_1527,59.9373792805,MP-Perception Experiment,xx20m31,
468,vgpdm_dyn(30)-lvm(30)_final(6).webm,True,left,2,training(2).webm,0,149,149,91,,,,,,,,16:07:19:903,16:07:20:635,16:07:23:638,left,16:07:24:455,,2018_Jun_13_1527,59.9373792805,MP-Perception Experiment,xx20m31,
