trial_number,right,flipped,correct,block,left,trials.thisRepN,trials.thisTrialN,trials.thisN,trials.thisIndex,flipwelcome.keys,flipwelcome.corr,flipwelcome.rt,flippreparations.keys,flippreparations.rt,flipInstructions.keys,flipInstructions.rt,time_at_fixation_cross_onset,time_at_videoonset,time_at_videoend,participant_key_response,time_at_key_response,key_resp_4.keys,date,frameRate,expName,participant,
,,,,,,,,,,space,0,76.1667558641,,,,,,,,,,,2018_Jun_13_1635,59.9520975599,MP-Perception Experiment,xx21w20,
,,,,,,,,,,,,,space,7.89018660979,,,,,,,,,2018_Jun_13_1635,59.9520975599,MP-Perception Experiment,xx21w20,
,,,,,,,,,,,,,,,space,11.7267731634,,,,,,,2018_Jun_13_1635,59.9520975599,MP-Perception Experiment,xx21w20,
1,vcgpdm_dyn(20)-lvm(15)_final(8).webm,True,left,0,training(31).webm,0,0,0,72,,,,,,,,16:37:15:001,16:37:15:652,16:37:18:636,left,16:37:18:853,,2018_Jun_13_1635,59.9520975599,MP-Perception Experiment,xx21w20,
2,training(8).webm,True,right,0,vgpdm_dyn(20)-lvm(35)_final(9).webm,0,1,1,123,,,,,,,,16:37:19:663,16:37:20:354,16:37:23:357,right,16:37:24:474,,2018_Jun_13_1635,59.9520975599,MP-Perception Experiment,xx21w20,
3,vgpdm_dyn(35)-lvm(10)_final(2).webm,True,left,0,training(2).webm,0,2,2,56,,,,,,,,16:37:25:428,16:37:25:976,16:37:28:978,left,16:37:29:848,,2018_Jun_13_1635,59.9520975599,MP-Perception Experiment,xx21w20,
4,training(20).webm,True,right,0,vcgpdm_dyn(35)-lvm(20)_final(1).webm,0,3,3,35,,,,,,,,16:37:30:600,16:37:31:349,16:37:34:352,right,16:37:35:720,,2018_Jun_13_1635,59.9520975599,MP-Perception Experiment,xx21w20,
5,vgpdm_dyn(10)-lvm(10)_final(8).webm,False,left,0,training(28).webm,0,4,4,117,,,,,,,,16:37:36:486,16:37:37:221,16:37:40:223,left,16:37:41:191,,2018_Jun_13_1635,59.9520975599,MP-Perception Experiment,xx21w20,
6,vcgpdm_dyn(5)-lvm(30)_final(3)_bad.webm,False,left,0,training(34).webm,0,5,5,67,,,,,,,,16:37:41:952,16:37:42:692,16:37:45:694,left,16:37:46:361,,2018_Jun_13_1635,59.9520975599,MP-Perception Experiment,xx21w20,
7,training(2).webm,False,right,0,vgpdm_dyn(30)-lvm(35)_final(2).webm,0,6,6,61,,,,,,,,16:37:47:124,16:37:47:864,16:37:50:866,right,16:37:51:950,,2018_Jun_13_1635,59.9520975599,MP-Perception Experiment,xx21w20,
8,training(27).webm,False,right,0,vcgpdm_dyn(10)-lvm(30)_final(4).webm,0,7,7,50,,,,,,,,16:37:52:728,16:37:53:451,16:37:56:454,right,16:37:58:639,,2018_Jun_13_1635,59.9520975599,MP-Perception Experiment,xx21w20,
9,training(7).webm,False,right,0,vgpdm_dyn(15)-lvm(25)_final(6).webm,0,8,8,45,,,,,,,,16:37:59:583,16:38:00:140,16:38:03:143,right,16:38:03:960,,2018_Jun_13_1635,59.9520975599,MP-Perception Experiment,xx21w20,
10,training(6).webm,True,right,0,dmp_npsi(50)_final(4).webm,0,9,9,4,,,,,,,,16:38:04:914,16:38:05:462,16:38:08:463,left,16:38:09:097,,2018_Jun_13_1635,59.9520975599,MP-Perception Experiment,xx21w20,
11,training(25).webm,False,right,0,dmp_npsi(20)_final(4).webm,0,10,10,13,,,,,,,,16:38:10:039,16:38:10:598,16:38:13:600,right,16:38:14:601,,2018_Jun_13_1635,59.9520975599,MP-Perception Experiment,xx21w20,
12,dmp_npsi(40)_final(2).webm,False,left,0,training(4).webm,0,11,11,139,,,,,,,,16:38:15:546,16:38:16:102,16:38:19:105,left,16:38:20:156,,2018_Jun_13_1635,59.9520975599,MP-Perception Experiment,xx21w20,
13,training(8).webm,True,right,0,vgpdm_dyn(20)-lvm(25)_final(9).webm,0,12,12,3,,,,,,,,16:38:21:093,16:38:21:657,16:38:24:645,right,16:38:25:696,,2018_Jun_13_1635,59.9520975599,MP-Perception Experiment,xx21w20,
14,vcgpdm_dyn(35)-lvm(10)_final(7).webm,False,left,0,training(24).webm,0,13,13,74,,,,,,,,16:38:26:673,16:38:27:197,16:38:30:200,left,16:38:31:301,,2018_Jun_13_1635,59.9520975599,MP-Perception Experiment,xx21w20,
15,training(41).webm,True,right,0,vgpdm_dyn(30)-lvm(5)_final(7).webm,0,14,14,27,,,,,,,,16:38:32:064,16:38:32:802,16:38:35:804,right,16:38:36:438,,2018_Jun_13_1635,59.9520975599,MP-Perception Experiment,xx21w20,
16,vgpdm_dyn(30)-lvm(20)_final(7).webm,True,left,0,training(5).webm,0,15,15,141,,,,,,,,16:38:37:371,16:38:37:939,16:38:40:943,left,16:38:41:360,,2018_Jun_13_1635,59.9520975599,MP-Perception Experiment,xx21w20,
17,vcgpdm_dyn(20)-lvm(20)_final(1).webm,True,left,0,training(32).webm,0,16,16,82,,,,,,,,16:38:42:149,16:38:42:861,16:38:45:864,left,16:38:46:397,,2018_Jun_13_1635,59.9520975599,MP-Perception Experiment,xx21w20,
18,vgpdm_dyn(35)-lvm(25)_final(1).webm,True,left,0,training(17).webm,0,17,17,118,,,,,,,,16:38:47:330,16:38:47:898,16:38:50:901,left,16:38:51:518,,2018_Jun_13_1635,59.9520975599,MP-Perception Experiment,xx21w20,
19,vgpdm_dyn(20)-lvm(15)_final(2).webm,True,left,0,training(17).webm,0,18,18,31,,,,,,,,16:38:52:283,16:38:53:019,16:38:56:022,left,16:38:56:940,,2018_Jun_13_1635,59.9520975599,MP-Perception Experiment,xx21w20,
20,training(35).webm,True,right,0,tmp_numprim(10)_final(8).webm,0,19,19,99,,,,,,,,16:38:57:702,16:38:58:456,16:39:01:442,right,16:39:01:959,,2018_Jun_13_1635,59.9520975599,MP-Perception Experiment,xx21w20,
21,vcgpdm_dyn(5)-lvm(20)_final(4).webm,True,left,0,training(31).webm,0,20,20,5,,,,,,,,16:39:02:725,16:39:03:460,16:39:06:463,left,16:39:07:297,,2018_Jun_13_1635,59.9520975599,MP-Perception Experiment,xx21w20,
22,vcgpdm_dyn(20)-lvm(5)_final(8).webm,True,left,0,training(26).webm,0,21,21,68,,,,,,,,16:39:08:224,16:39:08:798,16:39:11:785,left,16:39:12:336,,2018_Jun_13_1635,59.9520975599,MP-Perception Experiment,xx21w20,
23,dmp_npsi(45)_final(8).webm,True,left,0,training(17).webm,0,22,22,130,,,,,,,,16:39:13:097,16:39:13:837,16:39:16:840,left,16:39:17:224,,2018_Jun_13_1635,59.9520975599,MP-Perception Experiment,xx21w20,
24,dmp_npsi(35)_final(0).webm,True,left,0,training(16).webm,0,23,23,60,,,,,,,,16:39:18:177,16:39:18:725,16:39:21:728,right,16:39:22:895,,2018_Jun_13_1635,59.9520975599,MP-Perception Experiment,xx21w20,
25,training(19).webm,True,right,0,vcgpdm_dyn(10)-lvm(15)_final(1).webm,0,24,24,126,,,,,,,,16:39:23:731,16:39:24:396,16:39:27:399,right,16:39:28:033,,2018_Jun_13_1635,59.9520975599,MP-Perception Experiment,xx21w20,
26,vgpdm_dyn(10)-lvm(35)_final(8).webm,False,left,0,training(17).webm,0,25,25,15,,,,,,,,16:39:28:957,16:39:29:534,16:39:32:538,left,16:39:33:171,,2018_Jun_13_1635,59.9520975599,MP-Perception Experiment,xx21w20,
27,vgpdm_dyn(35)-lvm(5)_final(3).webm,True,left,0,training(10).webm,0,26,26,131,,,,,,,,16:39:34:112,16:39:34:672,16:39:37:675,left,16:39:38:426,,2018_Jun_13_1635,59.9520975599,MP-Perception Experiment,xx21w20,
28,tmp_numprim(8)_final(5).webm,True,left,0,training(0).webm,0,27,27,93,,,,,,,,16:39:39:367,16:39:39:927,16:39:42:929,left,16:39:43:563,,2018_Jun_13_1635,59.9520975599,MP-Perception Experiment,xx21w20,
29,training(35).webm,True,right,0,vgpdm_dyn(25)-lvm(20)_final(4).webm,0,28,28,9,,,,,,,,16:39:44:322,16:39:45:064,16:39:48:065,right,16:39:48:899,,2018_Jun_13_1635,59.9520975599,MP-Perception Experiment,xx21w20,
30,training(22).webm,True,right,0,vcgpdm_dyn(30)-lvm(35)_final(6).webm,0,29,29,127,,,,,,,,16:39:49:736,16:39:50:418,16:39:53:404,right,16:39:54:104,,2018_Jun_13_1635,59.9520975599,MP-Perception Experiment,xx21w20,
31,training(38).webm,False,right,0,tmp_numprim(8)_final(4).webm,0,30,30,108,,,,,,,,16:39:54:927,16:39:55:605,16:39:58:608,right,16:39:59:325,,2018_Jun_13_1635,59.9520975599,MP-Perception Experiment,xx21w20,
32,vgpdm_dyn(35)-lvm(5)_final(4).webm,False,left,0,training(8).webm,0,31,31,145,,,,,,,,16:40:00:122,16:40:00:826,16:40:03:814,left,16:40:04:548,,2018_Jun_13_1635,59.9520975599,MP-Perception Experiment,xx21w20,
33,training(40).webm,False,right,0,vcgpdm_dyn(20)-lvm(30)_final(9).webm,0,32,32,53,,,,,,,,16:40:05:308,16:40:06:049,16:40:09:052,right,16:40:09:936,,2018_Jun_13_1635,59.9520975599,MP-Perception Experiment,xx21w20,
34,tmp_numprim(4)_final(2).webm,False,left,0,training(35).webm,0,33,33,78,,,,,,,,16:40:10:701,16:40:11:437,16:40:14:440,left,16:40:15:107,,2018_Jun_13_1635,59.9520975599,MP-Perception Experiment,xx21w20,
35,vcgpdm_dyn(5)-lvm(10)_final(3).webm,False,left,0,training(29).webm,0,34,34,71,,,,,,,,16:40:15:875,16:40:16:608,16:40:19:611,left,16:40:19:944,,2018_Jun_13_1635,59.9520975599,MP-Perception Experiment,xx21w20,
36,map_gpdm_final(7).webm,False,left,0,training(32).webm,0,35,35,112,,,,,,,,16:40:20:877,16:40:21:445,16:40:24:449,left,16:40:24:499,,2018_Jun_13_1635,59.9520975599,MP-Perception Experiment,xx21w20,
37,vcgpdm_dyn(25)-lvm(35)_final(2).webm,False,left,0,training(16).webm,0,36,36,132,,,,,,,,16:40:26:311,16:40:26:311,16:40:29:003,left,16:40:29:887,,2018_Jun_13_1635,59.9520975599,MP-Perception Experiment,xx21w20,
38,training(40).webm,False,right,0,vcgpdm_dyn(15)-lvm(10)_final(2).webm,0,37,37,106,,,,,,,,16:40:30:821,16:40:31:388,16:40:34:390,right,16:40:35:124,,2018_Jun_13_1635,59.9520975599,MP-Perception Experiment,xx21w20,
39,vgpdm_dyn(5)-lvm(20)_final(7).webm,False,left,0,training(16).webm,0,38,38,95,,,,,,,,16:40:35:912,16:40:36:625,16:40:39:626,left,16:40:40:143,,2018_Jun_13_1635,59.9520975599,MP-Perception Experiment,xx21w20,
40,vcgpdm_dyn(10)-lvm(30)_final(6).webm,True,left,0,training(21).webm,0,39,39,144,,,,,,,,16:40:41:095,16:40:41:644,16:40:44:648,right,16:40:45:348,,2018_Jun_13_1635,59.9520975599,MP-Perception Experiment,xx21w20,
41,vgpdm_dyn(25)-lvm(35)_final(0).webm,True,left,0,training(29).webm,0,40,40,147,,,,,,,,16:40:46:289,16:40:46:850,16:40:49:852,left,16:40:50:236,,2018_Jun_13_1635,59.9520975599,MP-Perception Experiment,xx21w20,
42,training(16).webm,False,right,0,vgpdm_dyn(30)-lvm(20)_final(2).webm,0,41,41,111,,,,,,,,16:40:51:167,16:40:51:737,16:40:54:724,right,16:40:55:325,,2018_Jun_13_1635,59.9520975599,MP-Perception Experiment,xx21w20,
43,vgpdm_dyn(10)-lvm(25)_final(9).webm,True,left,0,training(39).webm,0,42,42,44,,,,,,,,16:40:56:264,16:40:56:826,16:40:59:830,left,16:41:00:497,,2018_Jun_13_1635,59.9520975599,MP-Perception Experiment,xx21w20,
44,vcgpdm_dyn(20)-lvm(5)_final(2).webm,False,left,0,training(4).webm,0,43,43,24,,,,,,,,16:41:01:433,16:41:01:998,16:41:05:000,left,16:41:05:834,,2018_Jun_13_1635,59.9520975599,MP-Perception Experiment,xx21w20,
45,vcgpdm_dyn(30)-lvm(25)_final(1).webm,True,left,0,training(0).webm,0,44,44,157,,,,,,,,16:41:06:779,16:41:07:335,16:41:10:338,left,16:41:10:922,,2018_Jun_13_1635,59.9520975599,MP-Perception Experiment,xx21w20,
46,training(39).webm,False,right,0,tmp_numprim(6)_final(9).webm,0,45,45,120,,,,,,,,16:41:11:695,16:41:12:423,16:41:15:426,right,16:41:15:976,,2018_Jun_13_1635,59.9520975599,MP-Perception Experiment,xx21w20,
47,map_gpdm_final(2).webm,False,left,0,training(30).webm,0,46,46,7,,,,,,,,16:41:16:777,16:41:17:478,16:41:20:481,left,16:41:21:014,,2018_Jun_13_1635,59.9520975599,MP-Perception Experiment,xx21w20,
48,vgpdm_dyn(25)-lvm(20)_final(9).webm,False,left,0,training(33).webm,0,47,47,47,,,,,,,,16:41:21:778,16:41:22:515,16:41:25:518,left,16:41:26:102,,2018_Jun_13_1635,59.9520975599,MP-Perception Experiment,xx21w20,
49,training(18).webm,True,right,0,vcgpdm_dyn(20)-lvm(25)_final(6).webm,0,48,48,116,,,,,,,,16:41:26:954,16:41:27:603,16:41:30:604,right,16:41:31:171,,2018_Jun_13_1635,59.9520975599,MP-Perception Experiment,xx21w20,
50,training(16).webm,True,right,0,vgpdm_dyn(10)-lvm(10)_final(1).webm,0,49,49,57,,,,,,,,16:41:31:932,16:41:32:672,16:41:35:675,left,16:41:36:259,,2018_Jun_13_1635,59.9520975599,MP-Perception Experiment,xx21w20,
51,training(16).webm,True,right,0,vgpdm_dyn(15)-lvm(15)_final(0).webm,0,50,50,148,,,,,,,,16:41:37:234,16:41:37:760,16:41:40:763,right,16:41:41:480,,2018_Jun_13_1635,59.9520975599,MP-Perception Experiment,xx21w20,
52,training(13).webm,False,right,0,vgpdm_dyn(35)-lvm(25)_final(9).webm,0,51,51,14,,,,,,,,16:41:42:236,16:41:42:983,16:41:45:969,right,16:41:46:736,,2018_Jun_13_1635,59.9520975599,MP-Perception Experiment,xx21w20,
53,training(4).webm,False,right,0,vgpdm_dyn(25)-lvm(35)_final(5).webm,0,52,52,22,,,,,,,,16:41:47:669,16:41:48:237,16:41:51:240,right,16:41:51:925,,2018_Jun_13_1635,59.9520975599,MP-Perception Experiment,xx21w20,
54,training(8).webm,True,right,0,vcgpdm_dyn(20)-lvm(30)_final(9).webm,0,53,53,49,,,,,,,,16:41:52:856,16:41:53:426,16:41:56:428,right,16:41:56:929,,2018_Jun_13_1635,59.9520975599,MP-Perception Experiment,xx21w20,
55,vgpdm_dyn(10)-lvm(25)_final(7).webm,False,left,0,training(28).webm,0,54,54,18,,,,,,,,16:41:57:863,16:41:58:430,16:42:01:432,right,16:42:01:983,,2018_Jun_13_1635,59.9520975599,MP-Perception Experiment,xx21w20,
56,vgpdm_dyn(35)-lvm(30)_final(9).webm,False,left,0,training(7).webm,0,55,55,125,,,,,,,,16:42:02:923,16:42:03:484,16:42:06:486,left,16:42:07:003,,2018_Jun_13_1635,59.9520975599,MP-Perception Experiment,xx21w20,
57,vcgpdm_dyn(15)-lvm(20)_final(7).webm,False,left,0,training(11).webm,0,56,56,143,,,,,,,,16:42:07:949,16:42:08:505,16:42:11:508,left,16:42:12:159,,2018_Jun_13_1635,59.9520975599,MP-Perception Experiment,xx21w20,
58,training(1).webm,False,right,0,vcgpdm_dyn(30)-lvm(25)_final(7).webm,0,57,57,62,,,,,,,,16:42:13:094,16:42:13:660,16:42:16:662,right,16:42:17:012,,2018_Jun_13_1635,59.9520975599,MP-Perception Experiment,xx21w20,
59,training(31).webm,False,right,0,vgpdm_dyn(20)-lvm(5)_final(8).webm,0,58,58,46,,,,,,,,16:42:17:964,16:42:18:528,16:42:21:514,right,16:42:22:115,,2018_Jun_13_1635,59.9520975599,MP-Perception Experiment,xx21w20,
60,dmp_npsi(15)_final(8).webm,True,left,0,training(38).webm,0,59,59,66,,,,,,,,16:42:23:051,16:42:23:616,16:42:26:619,left,16:42:26:953,,2018_Jun_13_1635,59.9520975599,MP-Perception Experiment,xx21w20,
61,vgpdm_dyn(5)-lvm(20)_final(4).webm,True,left,0,training(8).webm,0,60,60,28,,,,,,,,16:42:27:724,16:42:28:454,16:42:31:442,left,16:42:32:042,,2018_Jun_13_1635,59.9520975599,MP-Perception Experiment,xx21w20,
62,vcgpdm_dyn(5)-lvm(20)_final(0).webm,True,left,0,training(14).webm,0,61,61,63,,,,,,,,16:42:33:002,16:42:33:543,16:42:36:546,left,16:42:37:063,,2018_Jun_13_1635,59.9520975599,MP-Perception Experiment,xx21w20,
63,tmp_numprim(5)_final(4).webm,True,left,0,training(29).webm,0,62,62,26,,,,,,,,16:42:38:007,16:42:38:564,16:42:41:567,left,16:42:42:184,,2018_Jun_13_1635,59.9520975599,MP-Perception Experiment,xx21w20,
64,vgpdm_dyn(10)-lvm(35)_final(1).webm,True,left,0,training(39).webm,0,63,63,124,,,,,,,,16:42:43:161,16:42:43:685,16:42:46:688,left,16:42:47:456,,2018_Jun_13_1635,59.9520975599,MP-Perception Experiment,xx21w20,
65,vcgpdm_dyn(25)-lvm(30)_final(8).webm,True,left,0,training(8).webm,0,64,64,59,,,,,,,,16:42:48:393,16:42:48:957,16:42:51:959,left,16:42:52:443,,2018_Jun_13_1635,59.9520975599,MP-Perception Experiment,xx21w20,
66,vgpdm_dyn(25)-lvm(35)_final(3).webm,False,left,0,training(17).webm,0,65,65,96,,,,,,,,16:42:53:396,16:42:53:944,16:42:56:947,right,16:42:57:464,,2018_Jun_13_1635,59.9520975599,MP-Perception Experiment,xx21w20,
67,vcgpdm_dyn(10)-lvm(10)_final(2).webm,True,left,0,training(31).webm,0,66,66,102,,,,,,,,16:42:58:420,16:42:58:965,16:43:01:968,left,16:43:02:435,,2018_Jun_13_1635,59.9520975599,MP-Perception Experiment,xx21w20,
68,vcgpdm_dyn(10)-lvm(10)_final(3).webm,True,left,0,training(4).webm,0,67,67,138,,,,,,,,16:43:03:380,16:43:03:937,16:43:06:939,left,16:43:07:106,,2018_Jun_13_1635,59.9520975599,MP-Perception Experiment,xx21w20,
69,training(37).webm,True,right,0,vcgpdm_dyn(30)-lvm(20)_final(4).webm,0,68,68,128,,,,,,,,16:43:08:049,16:43:08:622,16:43:11:608,right,16:43:12:208,,2018_Jun_13_1635,59.9520975599,MP-Perception Experiment,xx21w20,
70,vgpdm_dyn(25)-lvm(35)_final(9).webm,True,left,0,training(10).webm,0,69,69,1,,,,,,,,16:43:13:152,16:43:13:709,16:43:16:712,left,16:43:17:095,,2018_Jun_13_1635,59.9520975599,MP-Perception Experiment,xx21w20,
71,training(36).webm,False,right,0,vcgpdm_dyn(35)-lvm(25)_final(0).webm,0,70,70,75,,,,,,,,16:43:18:040,16:43:18:597,16:43:21:585,right,16:43:22:403,,2018_Jun_13_1635,59.9520975599,MP-Perception Experiment,xx21w20,
72,training(40).webm,True,right,0,vgpdm_dyn(20)-lvm(30)_final(7).webm,0,71,71,23,,,,,,,,16:43:23:338,16:43:23:904,16:43:26:906,left,16:43:27:173,,2018_Jun_13_1635,59.9520975599,MP-Perception Experiment,xx21w20,
73,vcgpdm_dyn(15)-lvm(30)_final(2).webm,False,left,0,training(10).webm,0,72,72,134,,,,,,,,16:43:27:936,16:43:28:674,16:43:31:677,right,16:43:32:194,,2018_Jun_13_1635,59.9520975599,MP-Perception Experiment,xx21w20,
74,training(15).webm,False,right,0,vgpdm_dyn(15)-lvm(35)_final(1).webm,0,73,73,69,,,,,,,,16:43:33:133,16:43:33:695,16:43:36:715,right,16:43:37:282,,2018_Jun_13_1635,59.9520975599,MP-Perception Experiment,xx21w20,
75,training(5).webm,False,right,0,vgpdm_dyn(25)-lvm(5)_final(2).webm,0,74,74,152,,,,,,,,16:43:38:041,16:43:38:783,16:43:41:786,right,16:43:42:436,,2018_Jun_13_1635,59.9520975599,MP-Perception Experiment,xx21w20,
76,training(34).webm,False,right,0,vgpdm_dyn(20)-lvm(5)_final(8).webm,0,75,75,52,,,,,,,,16:43:43:199,16:43:43:937,16:43:46:940,right,16:43:47:474,,2018_Jun_13_1635,59.9520975599,MP-Perception Experiment,xx21w20,
77,training(7).webm,True,right,0,dmp_npsi(50)_final(7).webm,0,76,76,88,,,,,,,,16:43:48:232,16:43:48:975,16:43:51:977,right,16:43:52:528,,2018_Jun_13_1635,59.9520975599,MP-Perception Experiment,xx21w20,
78,vgpdm_dyn(15)-lvm(15)_final(2).webm,True,left,0,training(36).webm,0,77,77,51,,,,,,,,16:43:53:503,16:43:54:030,16:43:57:033,left,16:43:57:466,,2018_Jun_13_1635,59.9520975599,MP-Perception Experiment,xx21w20,
79,training(1).webm,True,right,0,tmp_numprim(3)_final(9).webm,0,78,78,85,,,,,,,,16:43:58:405,16:43:58:982,16:44:01:968,right,16:44:02:368,,2018_Jun_13_1635,59.9520975599,MP-Perception Experiment,xx21w20,
80,training(19).webm,False,right,0,vgpdm_dyn(30)-lvm(15)_final(7).webm,0,79,79,149,,,,,,,,16:44:03:122,16:44:03:869,16:44:06:872,right,16:44:07:139,,2018_Jun_13_1635,59.9520975599,MP-Perception Experiment,xx21w20,
81,training(25).webm,True,right,0,vcgpdm_dyn(30)-lvm(35)_final(6).webm,0,80,80,155,,,,,,,,16:44:07:893,16:44:08:640,16:44:11:629,right,16:44:12:312,,2018_Jun_13_1635,59.9520975599,MP-Perception Experiment,xx21w20,
82,vgpdm_dyn(35)-lvm(30)_final(3).webm,False,left,0,training(48).webm,0,81,81,40,,,,,,,,16:44:13:076,16:44:13:814,16:44:16:816,left,16:44:17:266,,2018_Jun_13_1635,59.9520975599,MP-Perception Experiment,xx21w20,
83,training(36).webm,False,right,0,vgpdm_dyn(15)-lvm(15)_final(7).webm,0,82,82,156,,,,,,,,16:44:18:024,16:44:18:768,16:44:21:770,right,16:44:22:237,,2018_Jun_13_1635,59.9520975599,MP-Perception Experiment,xx21w20,
84,vgpdm_dyn(10)-lvm(5)_final(8).webm,True,left,0,training(30).webm,0,83,83,92,,,,,,,,16:44:22:995,16:44:23:738,16:44:26:741,left,16:44:27:291,,2018_Jun_13_1635,59.9520975599,MP-Perception Experiment,xx21w20,
85,vcgpdm_dyn(10)-lvm(35)_final(6).webm,False,left,0,training(29).webm,0,84,84,115,,,,,,,,16:44:28:060,16:44:28:792,16:44:31:796,left,16:44:32:063,,2018_Jun_13_1635,59.9520975599,MP-Perception Experiment,xx21w20,
86,training(20).webm,False,right,0,vcgpdm_dyn(5)-lvm(25)_final(6).webm,0,85,85,70,,,,,,,,16:44:32:820,16:44:33:564,16:44:36:566,right,16:44:36:983,,2018_Jun_13_1635,59.9520975599,MP-Perception Experiment,xx21w20,
87,training(15).webm,True,right,0,vgpdm_dyn(25)-lvm(10)_final(6)_out_of_screen.webm,0,86,86,25,,,,,,,,16:44:37:740,16:44:38:484,16:44:41:487,right,16:44:41:720,,2018_Jun_13_1635,59.9520975599,MP-Perception Experiment,xx21w20,
88,vcgpdm_dyn(20)-lvm(25)_final(6).webm,False,left,0,training(6).webm,0,87,87,64,,,,,,,,16:44:42:476,16:44:43:222,16:44:46:224,left,16:44:46:726,,2018_Jun_13_1635,59.9520975599,MP-Perception Experiment,xx21w20,
89,vcgpdm_dyn(20)-lvm(30)_final(2).webm,False,left,0,training(18).webm,0,88,88,114,,,,,,,,16:44:47:495,16:44:48:227,16:44:51:227,left,16:44:51:778,,2018_Jun_13_1635,59.9520975599,MP-Perception Experiment,xx21w20,
90,vgpdm_dyn(30)-lvm(5)_final(5).webm,True,left,0,training(11).webm,0,89,89,54,,,,,,,,16:44:52:548,16:44:53:279,16:44:56:281,left,16:44:56:999,,2018_Jun_13_1635,59.9520975599,MP-Perception Experiment,xx21w20,
91,vgpdm_dyn(30)-lvm(25)_final(7).webm,True,left,0,training(20).webm,0,90,90,19,,,,,,,,16:44:57:756,16:44:58:500,16:45:01:502,left,16:45:02:103,,2018_Jun_13_1635,59.9520975599,MP-Perception Experiment,xx21w20,
92,training(15).webm,True,right,0,vcgpdm_dyn(35)-lvm(20)_final(6).webm,0,91,91,100,,,,,,,,16:45:02:913,16:45:03:606,16:45:06:609,right,16:45:07:343,,2018_Jun_13_1635,59.9520975599,MP-Perception Experiment,xx21w20,
93,training(48).webm,False,right,0,vcgpdm_dyn(30)-lvm(25)_final(6).webm,0,92,92,87,,,,,,,,16:45:08:142,16:45:08:844,16:45:11:847,right,16:45:12:597,,2018_Jun_13_1635,59.9520975599,MP-Perception Experiment,xx21w20,
94,training(4).webm,True,right,0,vgpdm_dyn(20)-lvm(35)_final(0).webm,0,93,93,91,,,,,,,,16:45:13:386,16:45:14:099,16:45:17:101,left,16:45:17:568,,2018_Jun_13_1635,59.9520975599,MP-Perception Experiment,xx21w20,
95,vcgpdm_dyn(25)-lvm(25)_final(1).webm,False,left,0,training(15).webm,0,94,94,37,,,,,,,,16:45:18:508,16:45:19:069,16:45:22:073,right,16:45:22:940,,2018_Jun_13_1635,59.9520975599,MP-Perception Experiment,xx21w20,
96,vgpdm_dyn(25)-lvm(20)_final(5).webm,True,left,0,training(25).webm,0,95,95,153,,,,,,,,16:45:23:733,16:45:24:441,16:45:27:443,left,16:45:28:178,,2018_Jun_13_1635,59.9520975599,MP-Perception Experiment,xx21w20,
97,vcgpdm_dyn(15)-lvm(10)_final(3).webm,True,left,0,training(8).webm,0,96,96,158,,,,,,,,16:45:28:939,16:45:29:679,16:45:32:681,left,16:45:33:198,,2018_Jun_13_1635,59.9520975599,MP-Perception Experiment,xx21w20,
98,dmp_npsi(45)_final(4).webm,False,left,0,training(48).webm,0,97,97,48,,,,,,,,16:45:34:125,16:45:34:699,16:45:37:702,right,16:45:38:534,,2018_Jun_13_1635,59.9520975599,MP-Perception Experiment,xx21w20,
99,training(19).webm,False,right,0,vcgpdm_dyn(15)-lvm(5)_final(0).webm,0,98,98,30,,,,,,,,16:45:39:383,16:45:40:036,16:45:43:039,right,16:45:43:656,,2018_Jun_13_1635,59.9520975599,MP-Perception Experiment,xx21w20,
100,vcgpdm_dyn(25)-lvm(35)_final(5).webm,True,left,0,training(34).webm,0,99,99,29,,,,,,,,16:45:44:413,16:45:45:157,16:45:48:160,left,16:45:48:777,,2018_Jun_13_1635,59.9520975599,MP-Perception Experiment,xx21w20,
101,training(29).webm,False,right,0,vcgpdm_dyn(5)-lvm(25)_final(9).webm,0,100,100,16,,,,,,,,16:45:49:719,16:45:50:280,16:45:53:266,right,16:45:53:683,,2018_Jun_13_1635,59.9520975599,MP-Perception Experiment,xx21w20,
102,vgpdm_dyn(30)-lvm(20)_final(7).webm,True,left,0,training(11).webm,0,101,101,97,,,,,,,,16:45:54:633,16:45:55:184,16:45:58:187,left,16:45:58:738,,2018_Jun_13_1635,59.9520975599,MP-Perception Experiment,xx21w20,
103,vcgpdm_dyn(30)-lvm(20)_final(5).webm,False,left,0,training(48).webm,0,102,102,89,,,,,,,,16:45:59:674,16:46:00:239,16:46:03:241,left,16:46:03:875,,2018_Jun_13_1635,59.9520975599,MP-Perception Experiment,xx21w20,
104,training(31).webm,True,right,0,vgpdm_dyn(25)-lvm(35)_final(1).webm,0,103,103,90,,,,,,,,16:46:04:845,16:46:05:376,16:46:08:379,left,16:46:08:779,,2018_Jun_13_1635,59.9520975599,MP-Perception Experiment,xx21w20,
105,training(13).webm,True,right,0,vgpdm_dyn(25)-lvm(30)_final(3).webm,0,104,104,76,,,,,,,,16:46:09:716,16:46:10:280,16:46:13:283,right,16:46:13:984,,2018_Jun_13_1635,59.9520975599,MP-Perception Experiment,xx21w20,
106,training(22).webm,False,right,0,vcgpdm_dyn(5)-lvm(25)_final(8).webm,0,105,105,119,,,,,,,,16:46:14:740,16:46:15:485,16:46:18:488,right,16:46:19:038,,2018_Jun_13_1635,59.9520975599,MP-Perception Experiment,xx21w20,
107,training(14).webm,True,right,0,vcgpdm_dyn(30)-lvm(5)_final(6).webm,0,106,106,65,,,,,,,,16:46:19:966,16:46:20:539,16:46:23:542,right,16:46:24:209,,2018_Jun_13_1635,59.9520975599,MP-Perception Experiment,xx21w20,
108,tmp_numprim(6)_final(5).webm,False,left,0,training(17).webm,0,107,107,101,,,,,,,,16:46:25:150,16:46:25:710,16:46:28:711,right,16:46:29:445,,2018_Jun_13_1635,59.9520975599,MP-Perception Experiment,xx21w20,
109,training(35).webm,True,right,0,vcgpdm_dyn(15)-lvm(25)_final(6).webm,0,108,108,33,,,,,,,,16:46:30:396,16:46:30:946,16:46:33:950,right,16:46:34:533,,2018_Jun_13_1635,59.9520975599,MP-Perception Experiment,xx21w20,
110,dmp_npsi(35)_final(5).webm,False,left,0,training(33).webm,0,109,109,73,,,,,,,,16:46:35:476,16:46:36:035,16:46:39:037,left,16:46:39:604,,2018_Jun_13_1635,59.9520975599,MP-Perception Experiment,xx21w20,
111,map_cgpdm_final(5).webm,True,left,0,training(6).webm,0,110,110,103,,,,,,,,16:46:40:544,16:46:41:105,16:46:44:093,left,16:46:44:426,,2018_Jun_13_1635,59.9520975599,MP-Perception Experiment,xx21w20,
112,training(10).webm,False,right,0,vcgpdm_dyn(30)-lvm(15)_final(0).webm,0,111,111,55,,,,,,,,16:46:45:196,16:46:45:928,16:46:48:931,right,16:46:49:365,,2018_Jun_13_1635,59.9520975599,MP-Perception Experiment,xx21w20,
113,training(17).webm,True,right,0,vcgpdm_dyn(10)-lvm(20)_final(0).webm,0,112,112,6,,,,,,,,16:46:50:300,16:46:50:866,16:46:53:869,right,16:46:54:652,,2018_Jun_13_1635,59.9520975599,MP-Perception Experiment,xx21w20,
114,vgpdm_dyn(30)-lvm(20)_final(4).webm,False,left,0,training(41).webm,0,113,113,0,,,,,,,,16:46:55:607,16:46:56:153,16:46:59:156,right,16:46:59:623,,2018_Jun_13_1635,59.9520975599,MP-Perception Experiment,xx21w20,
115,training(11).webm,True,right,0,tmp_numprim(5)_final(5).webm,0,114,114,104,,,,,,,,16:47:00:566,16:47:01:124,16:47:04:127,right,16:47:04:660,,2018_Jun_13_1635,59.9520975599,MP-Perception Experiment,xx21w20,
116,vcgpdm_dyn(15)-lvm(5)_final(0).webm,False,left,0,training(8).webm,0,115,115,20,,,,,,,,16:47:05:594,16:47:06:162,16:47:09:165,left,16:47:09:599,,2018_Jun_13_1635,59.9520975599,MP-Perception Experiment,xx21w20,
117,vgpdm_dyn(30)-lvm(10)_final(4).webm,False,left,0,training(14).webm,0,116,116,154,,,,,,,,16:47:10:531,16:47:11:100,16:47:14:102,left,16:47:14:670,,2018_Jun_13_1635,59.9520975599,MP-Perception Experiment,xx21w20,
118,training(22).webm,False,right,0,vcgpdm_dyn(15)-lvm(10)_final(1).webm,0,117,117,133,,,,,,,,16:47:15:630,16:47:16:171,16:47:19:171,right,16:47:19:638,,2018_Jun_13_1635,59.9520975599,MP-Perception Experiment,xx21w20,
119,vcgpdm_dyn(15)-lvm(15)_final(6).webm,False,left,0,training(40).webm,0,118,118,79,,,,,,,,16:47:20:405,16:47:21:140,16:47:24:143,left,16:47:24:627,,2018_Jun_13_1635,59.9520975599,MP-Perception Experiment,xx21w20,
120,training(4).webm,True,right,0,tmp_numprim(6)_final(1).webm,0,119,119,135,,,,,,,,16:47:26:463,16:47:26:463,16:47:29:130,right,16:47:30:016,,2018_Jun_13_1635,59.9520975599,MP-Perception Experiment,xx21w20,
121,vgpdm_dyn(35)-lvm(35)_final(9).webm,False,left,0,training(48).webm,0,120,120,129,,,,,,,,16:47:30:781,16:47:31:517,16:47:34:520,left,16:47:35:004,,2018_Jun_13_1635,59.9520975599,MP-Perception Experiment,xx21w20,
122,vcgpdm_dyn(20)-lvm(35)_final(3).webm,False,left,0,training(32).webm,0,121,121,136,,,,,,,,16:47:35:944,16:47:36:505,16:47:39:507,left,16:47:40:058,,2018_Jun_13_1635,59.9520975599,MP-Perception Experiment,xx21w20,
123,training(29).webm,True,right,0,vcgpdm_dyn(20)-lvm(25)_final(1).webm,0,122,122,34,,,,,,,,16:47:40:829,16:47:41:560,16:47:44:562,right,16:47:45:029,,2018_Jun_13_1635,59.9520975599,MP-Perception Experiment,xx21w20,
124,training(17).webm,False,right,0,vgpdm_dyn(15)-lvm(35)_final(7).webm,0,123,123,150,,,,,,,,16:47:45:962,16:47:46:530,16:47:49:533,right,16:47:50:000,,2018_Jun_13_1635,59.9520975599,MP-Perception Experiment,xx21w20,
125,training(12).webm,False,right,0,vgpdm_dyn(30)-lvm(10)_final(6).webm,0,124,124,94,,,,,,,,16:47:50:755,16:47:51:501,16:47:54:504,right,16:47:54:887,,2018_Jun_13_1635,59.9520975599,MP-Perception Experiment,xx21w20,
126,vgpdm_dyn(15)-lvm(30)_final(1).webm,False,left,0,training(27).webm,0,125,125,8,,,,,,,,16:47:55:656,16:47:56:388,16:47:59:392,left,16:48:00:026,,2018_Jun_13_1635,59.9520975599,MP-Perception Experiment,xx21w20,
127,training(0).webm,True,right,0,vcgpdm_dyn(5)-lvm(10)_final(8).webm,0,126,126,83,,,,,,,,16:48:00:795,16:48:01:527,16:48:04:529,right,16:48:05:063,,2018_Jun_13_1635,59.9520975599,MP-Perception Experiment,xx21w20,
128,vgpdm_dyn(10)-lvm(35)_final(1).webm,True,left,0,training(26).webm,0,127,127,98,,,,,,,,16:48:06:001,16:48:06:564,16:48:09:565,left,16:48:10:032,,2018_Jun_13_1635,59.9520975599,MP-Perception Experiment,xx21w20,
129,training(18).webm,False,right,0,vcgpdm_dyn(10)-lvm(35)_final(2).webm,0,128,128,42,,,,,,,,16:48:10:796,16:48:11:533,16:48:14:536,right,16:48:14:969,,2018_Jun_13_1635,59.9520975599,MP-Perception Experiment,xx21w20,
130,vgpdm_dyn(20)-lvm(35)_final(1).webm,False,left,0,training(30).webm,0,129,129,140,,,,,,,,16:48:15:915,16:48:16:472,16:48:19:474,left,16:48:20:008,,2018_Jun_13_1635,59.9520975599,MP-Perception Experiment,xx21w20,
131,training(20).webm,False,right,0,vcgpdm_dyn(10)-lvm(25)_final(4).webm,0,130,130,36,,,,,,,,16:48:20:799,16:48:21:509,16:48:24:497,right,16:48:25:030,,2018_Jun_13_1635,59.9520975599,MP-Perception Experiment,xx21w20,
132,vcgpdm_dyn(20)-lvm(10)_final(6).webm,False,left,0,training(18).webm,0,131,131,58,,,,,,,,16:48:26:603,16:48:26:603,16:48:29:534,left,16:48:30:001,,2018_Jun_13_1635,59.9520975599,MP-Perception Experiment,xx21w20,
133,training(25).webm,True,right,0,vcgpdm_dyn(10)-lvm(35)_final(3).webm,0,132,132,43,,,,,,,,16:48:30:770,16:48:31:502,16:48:34:506,right,16:48:35:206,,2018_Jun_13_1635,59.9520975599,MP-Perception Experiment,xx21w20,
134,vcgpdm_dyn(25)-lvm(10)_final(6).webm,True,left,0,training(24).webm,0,133,133,107,,,,,,,,16:48:35:969,16:48:36:707,16:48:39:710,left,16:48:40:394,,2018_Jun_13_1635,59.9520975599,MP-Perception Experiment,xx21w20,
135,vcgpdm_dyn(20)-lvm(20)_final(5).webm,True,left,0,training(34).webm,0,134,134,2,,,,,,,,16:48:41:151,16:48:41:895,16:48:44:897,left,16:48:45:348,,2018_Jun_13_1635,59.9520975599,MP-Perception Experiment,xx21w20,
136,dmp_npsi(50)_final(4).webm,True,left,0,training(33).webm,0,135,135,84,,,,,,,,16:48:46:114,16:48:46:849,16:48:49:851,left,16:48:50:418,,2018_Jun_13_1635,59.9520975599,MP-Perception Experiment,xx21w20,
137,dmp_npsi(20)_final(2).webm,False,left,0,training(23).webm,0,136,136,77,,,,,,,,16:48:51:176,16:48:51:921,16:48:54:923,left,16:48:55:457,,2018_Jun_13_1635,59.9520975599,MP-Perception Experiment,xx21w20,
138,vcgpdm_dyn(35)-lvm(25)_final(7).webm,False,left,0,training(34).webm,0,137,137,10,,,,,,,,16:48:56:217,16:48:56:958,16:48:59:959,left,16:49:00:476,,2018_Jun_13_1635,59.9520975599,MP-Perception Experiment,xx21w20,
139,vcgpdm_dyn(10)-lvm(25)_final(1).webm,True,left,0,training(41).webm,0,138,138,80,,,,,,,,16:49:01:228,16:49:01:977,16:49:04:979,left,16:49:05:430,,2018_Jun_13_1635,59.9520975599,MP-Perception Experiment,xx21w20,
140,training(29).webm,False,right,0,vgpdm_dyn(25)-lvm(20)_final(4).webm,0,139,139,146,,,,,,,,16:49:06:186,16:49:06:931,16:49:09:919,right,16:49:10:537,,2018_Jun_13_1635,59.9520975599,MP-Perception Experiment,xx21w20,
141,training(11).webm,True,right,0,vgpdm_dyn(35)-lvm(5)_final(2).webm,0,140,140,105,,,,,,,,16:49:11:293,16:49:12:038,16:49:15:040,right,16:49:15:624,,2018_Jun_13_1635,59.9520975599,MP-Perception Experiment,xx21w20,
142,training(41).webm,False,right,0,vgpdm_dyn(15)-lvm(25)_final(8).webm,0,141,141,113,,,,,,,,16:49:16:381,16:49:17:125,16:49:20:128,right,16:49:20:611,,2018_Jun_13_1635,59.9520975599,MP-Perception Experiment,xx21w20,
143,vcgpdm_dyn(5)-lvm(5)_final(2).webm,True,left,0,training(15).webm,0,142,142,32,,,,,,,,16:49:21:366,16:49:22:113,16:49:25:115,left,16:49:25:532,,2018_Jun_13_1635,59.9520975599,MP-Perception Experiment,xx21w20,
144,training(33).webm,True,right,0,vcgpdm_dyn(15)-lvm(35)_final(2).webm,0,143,143,11,,,,,,,,16:49:26:755,16:49:27:268,16:49:30:037,right,16:49:30:537,,2018_Jun_13_1635,59.9520975599,MP-Perception Experiment,xx21w20,
145,training(38).webm,False,right,0,tmp_numprim(8)_final(8).webm,0,144,144,12,,,,,,,,16:49:31:298,16:49:32:038,16:49:35:041,right,16:49:35:474,,2018_Jun_13_1635,59.9520975599,MP-Perception Experiment,xx21w20,
146,training(17).webm,False,right,0,vcgpdm_dyn(10)-lvm(25)_final(5).webm,0,145,145,86,,,,,,,,16:49:36:265,16:49:36:976,16:49:39:978,right,16:49:40:612,,2018_Jun_13_1635,59.9520975599,MP-Perception Experiment,xx21w20,
147,vcgpdm_dyn(25)-lvm(15)_final(8).webm,True,left,0,training(11).webm,0,146,146,137,,,,,,,,16:49:41:369,16:49:42:113,16:49:45:117,left,16:49:45:584,,2018_Jun_13_1635,59.9520975599,MP-Perception Experiment,xx21w20,
148,vgpdm_dyn(5)-lvm(20)_final(3).webm,True,left,0,training(0).webm,0,147,147,122,,,,,,,,16:49:46:521,16:49:47:101,16:49:50:085,left,16:49:50:803,,2018_Jun_13_1635,59.9520975599,MP-Perception Experiment,xx21w20,
149,tmp_numprim(4)_final(9).webm,True,left,0,training(32).webm,0,148,148,17,,,,,,,,16:49:51:564,16:49:52:304,16:49:55:306,left,16:49:55:707,,2018_Jun_13_1635,59.9520975599,MP-Perception Experiment,xx21w20,
150,vcgpdm_dyn(25)-lvm(30)_final(6).webm,False,left,0,training(15).webm,0,149,149,21,,,,,,,,16:49:56:658,16:49:57:224,16:50:00:210,left,16:50:00:677,,2018_Jun_13_1635,59.9520975599,MP-Perception Experiment,xx21w20,
151,vcgpdm_dyn(25)-lvm(35)_final(0).webm,False,left,0,training(36).webm,0,150,150,41,,,,,,,,16:50:01:454,16:50:02:179,16:50:05:167,left,16:50:05:701,,2018_Jun_13_1635,59.9520975599,MP-Perception Experiment,xx21w20,
152,training(41).webm,False,right,0,vgpdm_dyn(30)-lvm(10)_final(8).webm,0,151,151,142,,,,,,,,16:50:06:630,16:50:07:202,16:50:10:205,right,16:50:10:638,,2018_Jun_13_1635,59.9520975599,MP-Perception Experiment,xx21w20,
153,training(26).webm,True,right,0,tmp_numprim(3)_final(7).webm,0,152,152,81,,,,,,,,16:50:11:406,16:50:12:139,16:50:15:142,right,16:50:15:575,,2018_Jun_13_1635,59.9520975599,MP-Perception Experiment,xx21w20,
154,vgpdm_dyn(25)-lvm(25)_final(6)_bad.webm,True,left,0,training(0).webm,0,153,153,109,,,,,,,,16:50:16:519,16:50:17:077,16:50:20:080,left,16:50:20:681,,2018_Jun_13_1635,59.9520975599,MP-Perception Experiment,xx21w20,
155,training(29).webm,False,right,0,vgpdm_dyn(35)-lvm(25)_final(8).webm,0,154,154,151,,,,,,,,16:50:21:444,16:50:22:182,16:50:25:184,right,16:50:25:585,,2018_Jun_13_1635,59.9520975599,MP-Perception Experiment,xx21w20,
156,vcgpdm_dyn(15)-lvm(20)_final(7).webm,False,left,0,training(21).webm,0,155,155,110,,,,,,,,16:50:26:768,16:50:27:286,16:50:30:088,left,16:50:30:705,,2018_Jun_13_1635,59.9520975599,MP-Perception Experiment,xx21w20,
157,training(19).webm,True,right,0,vgpdm_dyn(25)-lvm(5)_final(1).webm,0,156,156,121,,,,,,,,16:50:31:479,16:50:32:206,16:50:35:209,right,16:50:35:809,,2018_Jun_13_1635,59.9520975599,MP-Perception Experiment,xx21w20,
158,training(35).webm,False,right,0,vcgpdm_dyn(30)-lvm(10)_final(8).webm,0,157,157,39,,,,,,,,16:50:36:772,16:50:37:312,16:50:40:312,right,16:50:40:646,,2018_Jun_13_1635,59.9520975599,MP-Perception Experiment,xx21w20,
159,training(3).webm,True,right,0,vcgpdm_dyn(25)-lvm(25)_final(2).webm,0,158,158,38,,,,,,,,16:50:41:421,16:50:42:147,16:50:45:150,right,16:50:45:550,,2018_Jun_13_1635,59.9520975599,MP-Perception Experiment,xx21w20,
160,vgpdm_dyn(25)-lvm(15)_final(2)_out_of_screen.webm,False,left,1,training(13).webm,0,0,0,101,,,,,,,,16:52:59:658,16:53:00:218,16:53:03:221,left,16:53:03:654,,2018_Jun_13_1635,59.9520975599,MP-Perception Experiment,xx21w20,
161,training(13).webm,False,right,1,vgpdm_dyn(25)-lvm(5)_final(3).webm,0,1,1,42,,,,,,,,16:53:04:597,16:53:05:155,16:53:08:158,right,16:53:08:523,,2018_Jun_13_1635,59.9520975599,MP-Perception Experiment,xx21w20,
162,training(22).webm,False,right,1,vgpdm_dyn(5)-lvm(30)_final(3).webm,0,2,2,157,,,,,,,,16:53:09:466,16:53:10:024,16:53:13:027,right,16:53:13:477,,2018_Jun_13_1635,59.9520975599,MP-Perception Experiment,xx21w20,
163,vgpdm_dyn(10)-lvm(25)_final(3).webm,True,left,1,training(48).webm,0,3,3,13,,,,,,,,16:53:14:417,16:53:14:979,16:53:17:982,left,16:53:18:299,,2018_Jun_13_1635,59.9520975599,MP-Perception Experiment,xx21w20,
164,vgpdm_dyn(10)-lvm(5)_final(4).webm,False,left,1,training(7).webm,0,4,4,125,,,,,,,,16:53:19:239,16:53:19:802,16:53:22:787,left,16:53:23:054,,2018_Jun_13_1635,59.9520975599,MP-Perception Experiment,xx21w20,
165,dmp_npsi(15)_final(8).webm,False,left,1,training(27).webm,0,5,5,153,,,,,,,,16:53:23:816,16:53:24:555,16:53:27:558,left,16:53:28:175,,2018_Jun_13_1635,59.9520975599,MP-Perception Experiment,xx21w20,
166,map_cgpdm_final(7).webm,True,left,1,training(6).webm,0,6,6,115,,,,,,,,16:53:29:107,16:53:29:676,16:53:32:680,left,16:53:32:730,,2018_Jun_13_1635,59.9520975599,MP-Perception Experiment,xx21w20,
167,vcgpdm_dyn(5)-lvm(20)_final(4).webm,False,left,1,training(29).webm,0,7,7,26,,,,,,,,16:53:33:690,16:53:34:231,16:53:37:233,left,16:53:37:667,,2018_Jun_13_1635,59.9520975599,MP-Perception Experiment,xx21w20,
168,training(33).webm,False,right,1,vgpdm_dyn(20)-lvm(30)_final(2).webm,0,8,8,3,,,,,,,,16:53:38:433,16:53:39:168,16:53:42:171,right,16:53:42:788,,2018_Jun_13_1635,59.9520975599,MP-Perception Experiment,xx21w20,
169,training(39).webm,False,right,1,vcgpdm_dyn(10)-lvm(15)_final(2).webm,0,9,9,123,,,,,,,,16:53:43:548,16:53:44:289,16:53:47:292,right,16:53:47:675,,2018_Jun_13_1635,59.9520975599,MP-Perception Experiment,xx21w20,
170,vgpdm_dyn(10)-lvm(30)_final(1).webm,False,left,1,training(35).webm,0,10,10,71,,,,,,,,16:53:48:445,16:53:49:177,16:53:52:180,left,16:53:52:597,,2018_Jun_13_1635,59.9520975599,MP-Perception Experiment,xx21w20,
171,training(15).webm,False,right,1,vgpdm_dyn(20)-lvm(5)_final(4).webm,0,11,11,122,,,,,,,,16:53:53:360,16:53:54:098,16:53:57:100,right,16:53:57:601,,2018_Jun_13_1635,59.9520975599,MP-Perception Experiment,xx21w20,
172,training(29).webm,False,right,1,vgpdm_dyn(30)-lvm(20)_final(0).webm,0,12,12,53,,,,,,,,16:53:58:392,16:53:59:117,16:54:02:103,right,16:54:02:353,,2018_Jun_13_1635,59.9520975599,MP-Perception Experiment,xx21w20,
173,training(11).webm,False,right,1,vcgpdm_dyn(20)-lvm(30)_final(9).webm,0,13,13,65,,,,,,,,16:54:03:113,16:54:03:854,16:54:06:857,right,16:54:07:241,,2018_Jun_13_1635,59.9520975599,MP-Perception Experiment,xx21w20,
174,training(22).webm,False,right,1,vgpdm_dyn(10)-lvm(20)_final(0).webm,0,14,14,80,,,,,,,,16:54:08:009,16:54:08:742,16:54:11:730,right,16:54:12:230,,2018_Jun_13_1635,59.9520975599,MP-Perception Experiment,xx21w20,
175,vcgpdm_dyn(25)-lvm(30)_final(3).webm,True,left,1,training(41).webm,0,15,15,81,,,,,,,,16:54:12:990,16:54:13:731,16:54:16:734,left,16:54:17:218,,2018_Jun_13_1635,59.9520975599,MP-Perception Experiment,xx21w20,
176,vgpdm_dyn(10)-lvm(5)_final(0).webm,True,left,1,training(27).webm,0,16,16,100,,,,,,,,16:54:17:978,16:54:18:719,16:54:21:721,left,16:54:22:005,,2018_Jun_13_1635,59.9520975599,MP-Perception Experiment,xx21w20,
177,training(9).webm,True,right,1,map_cgpdm_final(9).webm,0,17,17,83,,,,,,,,16:54:22:773,16:54:23:507,16:54:26:510,right,16:54:26:926,,2018_Jun_13_1635,59.9520975599,MP-Perception Experiment,xx21w20,
178,tmp_numprim(2)_final(4).webm,True,left,1,training(34).webm,0,18,18,23,,,,,,,,16:54:27:683,16:54:28:428,16:54:31:430,left,16:54:31:964,,2018_Jun_13_1635,59.9520975599,MP-Perception Experiment,xx21w20,
179,map_gpdm_final(5).webm,False,left,1,training(17).webm,0,19,19,76,,,,,,,,16:54:32:726,16:54:33:465,16:54:36:468,left,16:54:36:985,,2018_Jun_13_1635,59.9520975599,MP-Perception Experiment,xx21w20,
180,training(19).webm,True,right,1,tmp_numprim(4)_final(7).webm,0,20,20,6,,,,,,,,16:54:37:923,16:54:38:486,16:54:41:489,right,16:54:41:839,,2018_Jun_13_1635,59.9520975599,MP-Perception Experiment,xx21w20,
181,training(18).webm,True,right,1,vgpdm_dyn(35)-lvm(30)_final(2).webm,0,21,21,116,,,,,,,,16:54:42:609,16:54:43:341,16:54:46:343,right,16:54:46:660,,2018_Jun_13_1635,59.9520975599,MP-Perception Experiment,xx21w20,
182,training(2).webm,True,right,1,vcgpdm_dyn(20)-lvm(25)_final(0).webm,0,22,22,7,,,,,,,,16:54:47:610,16:54:48:161,16:54:51:162,right,16:54:51:612,,2018_Jun_13_1635,59.9520975599,MP-Perception Experiment,xx21w20,
183,map_cgpdm_final(4).webm,True,left,1,training(38).webm,0,23,23,54,,,,,,,,16:54:52:381,16:54:53:113,16:54:56:116,left,16:54:56:583,,2018_Jun_13_1635,59.9520975599,MP-Perception Experiment,xx21w20,
184,training(10).webm,False,right,1,vgpdm_dyn(5)-lvm(30)_final(4).webm,0,24,24,61,,,,,,,,16:54:57:522,16:54:58:084,16:55:01:088,right,16:55:01:538,,2018_Jun_13_1635,59.9520975599,MP-Perception Experiment,xx21w20,
185,training(23).webm,True,right,1,vgpdm_dyn(25)-lvm(30)_final(4).webm,0,25,25,4,,,,,,,,16:55:02:331,16:55:03:039,16:55:06:026,right,16:55:06:594,,2018_Jun_13_1635,59.9520975599,MP-Perception Experiment,xx21w20,
186,training(31).webm,True,right,1,vcgpdm_dyn(25)-lvm(30)_final(5).webm,0,26,26,120,,,,,,,,16:55:07:539,16:55:08:095,16:55:11:097,right,16:55:11:498,,2018_Jun_13_1635,59.9520975599,MP-Perception Experiment,xx21w20,
187,vgpdm_dyn(10)-lvm(5)_final(8).webm,True,left,1,training(9).webm,0,27,27,43,,,,,,,,16:55:12:259,16:55:12:999,16:55:16:002,left,16:55:16:486,,2018_Jun_13_1635,59.9520975599,MP-Perception Experiment,xx21w20,
188,training(9).webm,True,right,1,dmp_npsi(40)_final(0).webm,0,28,28,93,,,,,,,,16:55:17:417,16:55:17:987,16:55:20:990,right,16:55:21:390,,2018_Jun_13_1635,59.9520975599,MP-Perception Experiment,xx21w20,
189,training(27).webm,True,right,1,vcgpdm_dyn(15)-lvm(15)_final(8).webm,0,29,29,131,,,,,,,,16:55:22:154,16:55:22:891,16:55:25:894,left,16:55:26:127,,2018_Jun_13_1635,59.9520975599,MP-Perception Experiment,xx21w20,
190,vgpdm_dyn(15)-lvm(35)_final(6).webm,True,left,1,training(11).webm,0,30,30,24,,,,,,,,16:55:26:907,16:55:27:628,16:55:30:631,left,16:55:30:998,,2018_Jun_13_1635,59.9520975599,MP-Perception Experiment,xx21w20,
191,vcgpdm_dyn(15)-lvm(25)_final(2).webm,True,left,1,training(4).webm,0,31,31,90,,,,,,,,16:55:31:763,16:55:32:499,16:55:35:503,left,16:55:35:753,,2018_Jun_13_1635,59.9520975599,MP-Perception Experiment,xx21w20,
192,vgpdm_dyn(30)-lvm(30)_final(7).webm,True,left,1,training(41).webm,0,32,32,32,,,,,,,,16:55:36:689,16:55:37:254,16:55:40:254,left,16:55:40:671,,2018_Jun_13_1635,59.9520975599,MP-Perception Experiment,xx21w20,
193,training(22).webm,False,right,1,vgpdm_dyn(10)-lvm(15)_final(6).webm,0,33,33,92,,,,,,,,16:55:41:424,16:55:42:173,16:55:45:175,right,16:55:45:726,,2018_Jun_13_1635,59.9520975599,MP-Perception Experiment,xx21w20,
194,vgpdm_dyn(30)-lvm(15)_final(7).webm,True,left,1,training(14).webm,0,34,34,20,,,,,,,,16:55:46:484,16:55:47:227,16:55:50:229,left,16:55:50:681,,2018_Jun_13_1635,59.9520975599,MP-Perception Experiment,xx21w20,
195,training(27).webm,False,right,1,vgpdm_dyn(15)-lvm(5)_final(5).webm,0,35,35,78,,,,,,,,16:55:51:438,16:55:52:183,16:55:55:186,right,16:55:55:803,,2018_Jun_13_1635,59.9520975599,MP-Perception Experiment,xx21w20,
196,training(48).webm,False,right,1,vcgpdm_dyn(25)-lvm(15)_final(8).webm,0,36,36,106,,,,,,,,16:55:56:568,16:55:57:304,16:56:00:307,right,16:56:00:790,,2018_Jun_13_1635,59.9520975599,MP-Perception Experiment,xx21w20,
197,training(28).webm,True,right,1,vgpdm_dyn(20)-lvm(35)_final(0).webm,0,37,37,107,,,,,,,,16:56:01:507,16:56:02:292,16:56:05:294,right,16:56:05:895,,2018_Jun_13_1635,59.9520975599,MP-Perception Experiment,xx21w20,
198,dmp_npsi(20)_final(7).webm,False,left,1,training(23).webm,0,38,38,55,,,,,,,,16:56:06:654,16:56:07:396,16:56:10:399,left,16:56:10:983,,2018_Jun_13_1635,59.9520975599,MP-Perception Experiment,xx21w20,
199,tmp_numprim(10)_final(7).webm,True,left,1,training(1).webm,0,39,39,62,,,,,,,,16:56:11:741,16:56:12:484,16:56:15:487,left,16:56:15:937,,2018_Jun_13_1635,59.9520975599,MP-Perception Experiment,xx21w20,
200,training(22).webm,True,right,1,vgpdm_dyn(30)-lvm(30)_final(0).webm,0,40,40,51,,,,,,,,16:56:16:712,16:56:17:438,16:56:20:441,right,16:56:21:141,,2018_Jun_13_1635,59.9520975599,MP-Perception Experiment,xx21w20,
201,training(24).webm,True,right,1,vcgpdm_dyn(20)-lvm(20)_final(3).webm,0,41,41,25,,,,,,,,16:56:21:908,16:56:22:642,16:56:25:645,left,16:56:26:280,,2018_Jun_13_1635,59.9520975599,MP-Perception Experiment,xx21w20,
202,dmp_npsi(40)_final(2).webm,False,left,1,training(27).webm,0,42,42,86,,,,,,,,16:56:27:056,16:56:27:781,16:56:30:782,left,16:56:31:265,,2018_Jun_13_1635,59.9520975599,MP-Perception Experiment,xx21w20,
203,vcgpdm_dyn(15)-lvm(15)_final(9).webm,False,left,1,training(7).webm,0,43,43,11,,,,,,,,16:56:32:054,16:56:32:766,16:56:35:769,left,16:56:36:303,,2018_Jun_13_1635,59.9520975599,MP-Perception Experiment,xx21w20,
204,dmp_npsi(45)_final(2).webm,True,left,1,training(26).webm,0,44,44,52,,,,,,,,16:56:37:095,16:56:37:804,16:56:40:806,left,16:56:41:357,,2018_Jun_13_1635,59.9520975599,MP-Perception Experiment,xx21w20,
205,training(37).webm,True,right,1,vcgpdm_dyn(10)-lvm(20)_final(5).webm,0,45,45,91,,,,,,,,16:56:42:151,16:56:42:858,16:56:45:846,right,16:56:46:347,,2018_Jun_13_1635,59.9520975599,MP-Perception Experiment,xx21w20,
206,vgpdm_dyn(35)-lvm(25)_final(2).webm,True,left,1,training(7).webm,0,46,46,124,,,,,,,,16:56:47:116,16:56:47:848,16:56:50:851,left,16:56:51:234,,2018_Jun_13_1635,59.9520975599,MP-Perception Experiment,xx21w20,
207,training(39).webm,True,right,1,vcgpdm_dyn(25)-lvm(25)_final(5).webm,0,47,47,143,,,,,,,,16:56:51:999,16:56:52:735,16:56:55:738,right,16:56:56:138,,2018_Jun_13_1635,59.9520975599,MP-Perception Experiment,xx21w20,
208,training(14).webm,True,right,1,vcgpdm_dyn(10)-lvm(10)_final(5).webm,0,48,48,136,,,,,,,,16:56:56:926,16:56:57:639,16:57:00:642,right,16:57:01:093,,2018_Jun_13_1635,59.9520975599,MP-Perception Experiment,xx21w20,
209,training(28).webm,True,right,1,dmp_npsi(25)_final(1).webm,0,49,49,142,,,,,,,,16:57:01:854,16:57:02:594,16:57:05:597,right,16:57:05:930,,2018_Jun_13_1635,59.9520975599,MP-Perception Experiment,xx21w20,
210,training(23).webm,False,right,1,vgpdm_dyn(5)-lvm(15)_final(9).webm,0,50,50,9,,,,,,,,16:57:06:868,16:57:07:431,16:57:10:434,right,16:57:10:951,,2018_Jun_13_1635,59.9520975599,MP-Perception Experiment,xx21w20,
211,vcgpdm_dyn(30)-lvm(30)_final(9).webm,True,left,1,training(23).webm,0,51,51,155,,,,,,,,16:57:11:889,16:57:12:452,16:57:15:455,left,16:57:15:772,,2018_Jun_13_1635,59.9520975599,MP-Perception Experiment,xx21w20,
212,training(6).webm,True,right,1,vcgpdm_dyn(25)-lvm(5)_final(0).webm,0,52,52,40,,,,,,,,16:57:16:709,16:57:17:273,16:57:20:274,left,16:57:20:525,,2018_Jun_13_1635,59.9520975599,MP-Perception Experiment,xx21w20,
213,training(8).webm,False,right,1,vcgpdm_dyn(5)-lvm(20)_final(8).webm,0,53,53,28,,,,,,,,16:57:21:467,16:57:22:026,16:57:25:028,right,16:57:25:412,,2018_Jun_13_1635,59.9520975599,MP-Perception Experiment,xx21w20,
214,vcgpdm_dyn(15)-lvm(30)_final(0).webm,False,left,1,training(39).webm,0,54,54,110,,,,,,,,16:57:26:782,16:57:27:297,16:57:29:916,left,16:57:30:383,,2018_Jun_13_1635,59.9520975599,MP-Perception Experiment,xx21w20,
215,training(18).webm,False,right,1,vcgpdm_dyn(10)-lvm(5)_final(5).webm,0,55,55,35,,,,,,,,16:57:31:361,16:57:31:886,16:57:34:888,right,16:57:35:288,,2018_Jun_13_1635,59.9520975599,MP-Perception Experiment,xx21w20,
216,vgpdm_dyn(15)-lvm(30)_final(8).webm,False,left,1,training(35).webm,0,56,56,105,,,,,,,,16:57:36:232,16:57:36:790,16:57:39:793,left,16:57:40:243,,2018_Jun_13_1635,59.9520975599,MP-Perception Experiment,xx21w20,
217,training(28).webm,False,right,1,vgpdm_dyn(10)-lvm(20)_final(7).webm,0,57,57,154,,,,,,,,16:57:41:187,16:57:41:744,16:57:44:747,right,16:57:45:381,,2018_Jun_13_1635,59.9520975599,MP-Perception Experiment,xx21w20,
218,vcgpdm_dyn(25)-lvm(30)_final(6).webm,True,left,1,training(37).webm,0,58,58,132,,,,,,,,16:57:46:136,16:57:46:882,16:57:49:885,left,16:57:50:318,,2018_Jun_13_1635,59.9520975599,MP-Perception Experiment,xx21w20,
219,training(17).webm,False,right,1,vgpdm_dyn(5)-lvm(5)_final(7)_out_of_screen.webm,0,59,59,66,,,,,,,,16:57:51:252,16:57:51:819,16:57:54:823,right,16:57:55:490,,2018_Jun_13_1635,59.9520975599,MP-Perception Experiment,xx21w20,
220,training(35).webm,False,right,1,vcgpdm_dyn(35)-lvm(5)_final(3).webm,0,60,60,144,,,,,,,,16:57:56:425,16:57:56:991,16:57:59:994,right,16:58:00:294,,2018_Jun_13_1635,59.9520975599,MP-Perception Experiment,xx21w20,
221,training(13).webm,False,right,1,vcgpdm_dyn(10)-lvm(35)_final(0).webm,0,61,61,147,,,,,,,,16:58:01:239,16:58:01:795,16:58:04:798,right,16:58:05:064,,2018_Jun_13_1635,59.9520975599,MP-Perception Experiment,xx21w20,
222,tmp_numprim(4)_final(4).webm,True,left,1,training(8).webm,0,62,62,140,,,,,,,,16:58:06:010,16:58:06:566,16:58:09:566,left,16:58:10:033,,2018_Jun_13_1635,59.9520975599,MP-Perception Experiment,xx21w20,
223,training(11).webm,False,right,1,vgpdm_dyn(5)-lvm(10)_final(4).webm,0,63,63,30,,,,,,,,16:58:10:984,16:58:11:535,16:58:14:538,right,16:58:15:272,,2018_Jun_13_1635,59.9520975599,MP-Perception Experiment,xx21w20,
224,training(0).webm,True,right,1,vgpdm_dyn(5)-lvm(10)_final(5).webm,0,64,64,77,,,,,,,,16:58:16:209,16:58:16:773,16:58:19:775,right,16:58:20:109,,2018_Jun_13_1635,59.9520975599,MP-Perception Experiment,xx21w20,
225,tmp_numprim(10)_final(5).webm,True,left,1,training(15).webm,0,65,65,8,,,,,,,,16:58:21:047,16:58:21:610,16:58:24:598,right,16:58:24:898,,2018_Jun_13_1635,59.9520975599,MP-Perception Experiment,xx21w20,
226,training(22).webm,True,right,1,vgpdm_dyn(15)-lvm(25)_final(9).webm,0,66,66,121,,,,,,,,16:58:26:685,16:58:26:685,16:58:29:403,right,16:58:30:020,,2018_Jun_13_1635,59.9520975599,MP-Perception Experiment,xx21w20,
227,training(36).webm,False,right,1,vgpdm_dyn(20)-lvm(30)_final(1).webm,0,67,67,44,,,,,,,,16:58:30:779,16:58:31:521,16:58:34:524,right,16:58:34:890,,2018_Jun_13_1635,59.9520975599,MP-Perception Experiment,xx21w20,
228,dmp_npsi(25)_final(4).webm,True,left,1,training(1).webm,0,68,68,119,,,,,,,,16:58:35:650,16:58:36:392,16:58:39:394,left,16:58:39:744,,2018_Jun_13_1635,59.9520975599,MP-Perception Experiment,xx21w20,
229,vgpdm_dyn(20)-lvm(30)_final(1).webm,True,left,1,training(20).webm,0,69,69,10,,,,,,,,16:58:40:509,16:58:41:245,16:58:44:248,right,16:58:44:381,,2018_Jun_13_1635,59.9520975599,MP-Perception Experiment,xx21w20,
230,training(27).webm,True,right,1,vgpdm_dyn(20)-lvm(20)_final(3).webm,0,70,70,70,,,,,,,,16:58:45:165,16:58:45:884,16:58:48:886,right,16:58:49:236,,2018_Jun_13_1635,59.9520975599,MP-Perception Experiment,xx21w20,
231,vgpdm_dyn(30)-lvm(30)_final(4).webm,False,left,1,training(19).webm,0,71,71,118,,,,,,,,16:58:49:994,16:58:50:737,16:58:53:740,left,16:58:54:074,,2018_Jun_13_1635,59.9520975599,MP-Perception Experiment,xx21w20,
232,vgpdm_dyn(5)-lvm(15)_final(5).webm,False,left,1,training(5).webm,0,72,72,109,,,,,,,,16:58:54:828,16:58:55:575,16:58:58:577,left,16:58:59:042,,2018_Jun_13_1635,59.9520975599,MP-Perception Experiment,xx21w20,
233,vgpdm_dyn(15)-lvm(5)_final(3).webm,False,left,1,training(13).webm,0,73,73,151,,,,,,,,16:59:00:006,16:59:00:544,16:59:03:547,left,16:59:04:131,,2018_Jun_13_1635,59.9520975599,MP-Perception Experiment,xx21w20,
234,training(32).webm,False,right,1,vcgpdm_dyn(10)-lvm(5)_final(8).webm,0,74,74,16,,,,,,,,16:59:05:069,16:59:05:632,16:59:08:635,right,16:59:08:985,,2018_Jun_13_1635,59.9520975599,MP-Perception Experiment,xx21w20,
235,training(20).webm,True,right,1,dmp_npsi(30)_final(9).webm,0,75,75,138,,,,,,,,16:59:09:916,16:59:10:486,16:59:13:474,right,16:59:13:924,,2018_Jun_13_1635,59.9520975599,MP-Perception Experiment,xx21w20,
236,training(18).webm,True,right,1,vcgpdm_dyn(30)-lvm(5)_final(6).webm,0,76,76,64,,,,,,,,16:59:14:859,16:59:15:425,16:59:18:428,right,16:59:19:061,,2018_Jun_13_1635,59.9520975599,MP-Perception Experiment,xx21w20,
237,vcgpdm_dyn(30)-lvm(15)_final(0).webm,False,left,1,training(8).webm,0,77,77,114,,,,,,,,16:59:19:994,16:59:20:563,16:59:23:566,left,16:59:23:900,,2018_Jun_13_1635,59.9520975599,MP-Perception Experiment,xx21w20,
238,training(41).webm,False,right,1,vcgpdm_dyn(30)-lvm(15)_final(1).webm,0,78,78,17,,,,,,,,16:59:24:846,16:59:25:401,16:59:28:403,right,16:59:28:920,,2018_Jun_13_1635,59.9520975599,MP-Perception Experiment,xx21w20,
239,training(11).webm,False,right,1,vcgpdm_dyn(15)-lvm(20)_final(3).webm,0,79,79,2,,,,,,,,16:59:29:852,16:59:30:421,16:59:33:424,right,16:59:33:824,,2018_Jun_13_1635,59.9520975599,MP-Perception Experiment,xx21w20,
240,training(8).webm,False,right,1,vcgpdm_dyn(30)-lvm(25)_final(2).webm,0,80,80,112,,,,,,,,16:59:34:771,16:59:35:325,16:59:38:329,right,16:59:38:980,,2018_Jun_13_1635,59.9520975599,MP-Perception Experiment,xx21w20,
241,training(24).webm,True,right,1,vgpdm_dyn(10)-lvm(15)_final(1).webm,0,81,81,45,,,,,,,,16:59:39:918,16:59:40:481,16:59:43:483,left,16:59:44:100,,2018_Jun_13_1635,59.9520975599,MP-Perception Experiment,xx21w20,
242,vcgpdm_dyn(10)-lvm(25)_final(6).webm,False,left,1,training(20).webm,0,82,82,95,,,,,,,,16:59:44:880,16:59:45:601,16:59:48:604,left,16:59:49:236,,2018_Jun_13_1635,59.9520975599,MP-Perception Experiment,xx21w20,
243,vgpdm_dyn(10)-lvm(20)_final(7).webm,True,left,1,training(37).webm,0,83,83,79,,,,,,,,16:59:50:168,16:59:50:737,16:59:53:740,left,16:59:54:140,,2018_Jun_13_1635,59.9520975599,MP-Perception Experiment,xx21w20,
244,training(15).webm,False,right,1,tmp_numprim(7)_final(9).webm,0,84,84,46,,,,,,,,16:59:55:078,16:59:55:642,16:59:58:645,right,16:59:59:445,,2018_Jun_13_1635,59.9520975599,MP-Perception Experiment,xx21w20,
245,training(27).webm,False,right,1,vgpdm_dyn(35)-lvm(25)_final(2).webm,0,85,85,82,,,,,,,,17:00:00:401,17:00:00:948,17:00:03:934,right,17:00:04:434,,2018_Jun_13_1635,59.9520975599,MP-Perception Experiment,xx21w20,
246,training(37).webm,False,right,1,dmp_npsi(45)_final(0).webm,0,86,86,56,,,,,,,,17:00:05:189,17:00:05:935,17:00:08:938,right,17:00:09:438,,2018_Jun_13_1635,59.9520975599,MP-Perception Experiment,xx21w20,
247,training(25).webm,False,right,1,dmp_npsi(40)_final(4).webm,0,87,87,141,,,,,,,,17:00:10:416,17:00:10:939,17:00:13:943,right,17:00:14:460,,2018_Jun_13_1635,59.9520975599,MP-Perception Experiment,xx21w20,
248,training(29).webm,True,right,1,vcgpdm_dyn(15)-lvm(25)_final(9).webm,0,88,88,87,,,,,,,,17:00:15:392,17:00:15:961,17:00:18:964,right,17:00:19:514,,2018_Jun_13_1635,59.9520975599,MP-Perception Experiment,xx21w20,
249,vgpdm_dyn(30)-lvm(15)_final(0).webm,True,left,1,training(4).webm,0,89,89,68,,,,,,,,17:00:20:450,17:00:21:015,17:00:24:018,left,17:00:24:602,,2018_Jun_13_1635,59.9520975599,MP-Perception Experiment,xx21w20,
250,training(38).webm,False,right,1,vcgpdm_dyn(35)-lvm(10)_final(9).webm,0,90,90,33,,,,,,,,17:00:26:446,17:00:26:446,17:00:29:105,right,17:00:29:656,,2018_Jun_13_1635,59.9520975599,MP-Perception Experiment,xx21w20,
251,vcgpdm_dyn(30)-lvm(5)_final(2).webm,False,left,1,training(6).webm,0,91,91,5,,,,,,,,17:00:30:595,17:00:31:158,17:00:34:160,left,17:00:34:577,,2018_Jun_13_1635,59.9520975599,MP-Perception Experiment,xx21w20,
252,vcgpdm_dyn(25)-lvm(15)_final(4).webm,True,left,1,training(25).webm,0,92,92,94,,,,,,,,17:00:35:521,17:00:36:078,17:00:39:079,left,17:00:39:546,,2018_Jun_13_1635,59.9520975599,MP-Perception Experiment,xx21w20,
253,vgpdm_dyn(30)-lvm(15)_final(7).webm,False,left,1,training(5).webm,0,93,93,74,,,,,,,,17:00:40:481,17:00:41:047,17:00:44:050,left,17:00:44:433,,2018_Jun_13_1635,59.9520975599,MP-Perception Experiment,xx21w20,
254,training(21).webm,True,right,1,vcgpdm_dyn(15)-lvm(20)_final(3).webm,0,94,94,48,,,,,,,,17:00:45:195,17:00:45:935,17:00:48:938,right,17:00:49:388,,2018_Jun_13_1635,59.9520975599,MP-Perception Experiment,xx21w20,
255,vcgpdm_dyn(15)-lvm(35)_final(3).webm,True,left,1,training(7).webm,0,95,95,149,,,,,,,,17:00:50:150,17:00:50:890,17:00:53:877,left,17:00:54:328,,2018_Jun_13_1635,59.9520975599,MP-Perception Experiment,xx21w20,
256,vgpdm_dyn(20)-lvm(35)_final(9).webm,True,left,1,training(13).webm,0,96,96,69,,,,,,,,17:00:55:272,17:00:55:829,17:00:58:831,left,17:00:59:248,,2018_Jun_13_1635,59.9520975599,MP-Perception Experiment,xx21w20,
257,training(37).webm,True,right,1,vgpdm_dyn(5)-lvm(30)_final(2).webm,0,97,97,37,,,,,,,,17:01:00:013,17:01:00:749,17:01:03:752,right,17:01:04:369,,2018_Jun_13_1635,59.9520975599,MP-Perception Experiment,xx21w20,
258,training(40).webm,False,right,1,map_cgpdm_final(6).webm,0,98,98,98,,,,,,,,17:01:05:131,17:01:05:871,17:01:08:874,right,17:01:09:307,,2018_Jun_13_1635,59.9520975599,MP-Perception Experiment,xx21w20,
259,training(0).webm,True,right,1,vcgpdm_dyn(20)-lvm(25)_final(3).webm,0,99,99,145,,,,,,,,17:01:10:073,17:01:10:808,17:01:13:811,right,17:01:14:311,,2018_Jun_13_1635,59.9520975599,MP-Perception Experiment,xx21w20,
260,vgpdm_dyn(30)-lvm(25)_final(9).webm,True,left,1,training(12).webm,0,100,100,85,,,,,,,,17:01:15:071,17:01:15:812,17:01:18:815,left,17:01:19:149,,2018_Jun_13_1635,59.9520975599,MP-Perception Experiment,xx21w20,
261,vgpdm_dyn(35)-lvm(10)_final(1).webm,True,left,1,training(2).webm,0,101,101,135,,,,,,,,17:01:19:908,17:01:20:650,17:01:23:653,left,17:01:24:003,,2018_Jun_13_1635,59.9520975599,MP-Perception Experiment,xx21w20,
262,training(30).webm,True,right,1,vgpdm_dyn(10)-lvm(15)_final(4).webm,0,102,102,12,,,,,,,,17:01:24:766,17:01:25:505,17:01:28:507,right,17:01:28:957,,2018_Jun_13_1635,59.9520975599,MP-Perception Experiment,xx21w20,
263,training(26).webm,False,right,1,vcgpdm_dyn(35)-lvm(30)_final(6).webm,0,103,103,63,,,,,,,,17:01:29:729,17:01:30:473,17:01:33:476,right,17:01:33:876,,2018_Jun_13_1635,59.9520975599,MP-Perception Experiment,xx21w20,
264,training(16).webm,False,right,1,vcgpdm_dyn(5)-lvm(15)_final(4).webm,0,104,104,29,,,,,,,,17:01:34:641,17:01:35:377,17:01:38:380,right,17:01:38:914,,2018_Jun_13_1635,59.9520975599,MP-Perception Experiment,xx21w20,
265,vgpdm_dyn(20)-lvm(30)_final(7).webm,True,left,1,training(20).webm,0,105,105,39,,,,,,,,17:01:39:675,17:01:40:415,17:01:43:403,left,17:01:44:071,,2018_Jun_13_1635,59.9520975599,MP-Perception Experiment,xx21w20,
266,training(19).webm,False,right,1,vgpdm_dyn(5)-lvm(25)_final(7)_out_of_screen.webm,0,106,106,150,,,,,,,,17:01:44:836,17:01:45:572,17:01:48:574,right,17:01:49:141,,2018_Jun_13_1635,59.9520975599,MP-Perception Experiment,xx21w20,
267,map_gpdm_final(1).webm,False,left,1,training(21).webm,0,107,107,72,,,,,,,,17:01:49:907,17:01:50:643,17:01:53:645,left,17:01:54:112,,2018_Jun_13_1635,59.9520975599,MP-Perception Experiment,xx21w20,
268,training(9).webm,True,right,1,vgpdm_dyn(25)-lvm(35)_final(3).webm,0,108,108,49,,,,,,,,17:01:54:873,17:01:55:613,17:01:58:617,left,17:01:59:234,,2018_Jun_13_1635,59.9520975599,MP-Perception Experiment,xx21w20,
269,vcgpdm_dyn(20)-lvm(10)_final(5).webm,False,left,1,training(21).webm,0,109,109,137,,,,,,,,17:02:00:169,17:02:00:735,17:02:03:738,left,17:02:03:888,,2018_Jun_13_1635,59.9520975599,MP-Perception Experiment,xx21w20,
270,vcgpdm_dyn(5)-lvm(35)_final(8)_bad.webm,True,left,1,training(13).webm,0,110,110,50,,,,,,,,17:02:04:869,17:02:05:389,17:02:08:391,left,17:02:08:892,,2018_Jun_13_1635,59.9520975599,MP-Perception Experiment,xx21w20,
271,vgpdm_dyn(20)-lvm(25)_final(7).webm,True,left,1,training(28).webm,0,111,111,146,,,,,,,,17:02:09:843,17:02:10:393,17:02:13:395,left,17:02:13:896,,2018_Jun_13_1635,59.9520975599,MP-Perception Experiment,xx21w20,
272,map_cgpdm_final(3).webm,False,left,1,training(28).webm,0,112,112,134,,,,,,,,17:02:14:860,17:02:15:397,17:02:18:400,left,17:02:19:666,,2018_Jun_13_1635,59.9520975599,MP-Perception Experiment,xx21w20,
273,vgpdm_dyn(25)-lvm(30)_final(5).webm,True,left,1,training(3).webm,0,113,113,75,,,,,,,,17:02:20:615,17:02:21:167,17:02:24:170,left,17:02:24:487,,2018_Jun_13_1635,59.9520975599,MP-Perception Experiment,xx21w20,
274,training(28).webm,False,right,1,vgpdm_dyn(30)-lvm(35)_final(2).webm,0,114,114,34,,,,,,,,17:02:26:427,17:02:26:427,17:02:28:990,right,17:02:29:991,,2018_Jun_13_1635,59.9520975599,MP-Perception Experiment,xx21w20,
275,vgpdm_dyn(35)-lvm(25)_final(1).webm,True,left,1,training(4).webm,0,115,115,18,,,,,,,,17:02:30:745,17:02:31:494,17:02:34:481,left,17:02:34:815,,2018_Jun_13_1635,59.9520975599,MP-Perception Experiment,xx21w20,
276,training(20).webm,True,right,1,dmp_npsi(40)_final(4).webm,0,116,116,97,,,,,,,,17:02:35:757,17:02:36:316,17:02:39:318,right,17:02:39:652,,2018_Jun_13_1635,59.9520975599,MP-Perception Experiment,xx21w20,
277,training(15).webm,True,right,1,vcgpdm_dyn(35)-lvm(10)_final(1).webm,0,117,117,99,,,,,,,,17:02:40:367,17:02:41:153,17:02:44:156,right,17:02:44:623,,2018_Jun_13_1635,59.9520975599,MP-Perception Experiment,xx21w20,
278,training(8).webm,True,right,1,vcgpdm_dyn(5)-lvm(15)_final(2).webm,0,118,118,21,,,,,,,,17:02:45:387,17:02:46:124,17:02:49:126,right,17:02:49:593,,2018_Jun_13_1635,59.9520975599,MP-Perception Experiment,xx21w20,
279,training(10).webm,False,right,1,vcgpdm_dyn(10)-lvm(15)_final(0).webm,0,119,119,47,,,,,,,,17:02:50:557,17:02:51:095,17:02:54:098,right,17:02:54:615,,2018_Jun_13_1635,59.9520975599,MP-Perception Experiment,xx21w20,
280,dmp_npsi(35)_final(8).webm,True,left,1,training(18).webm,0,120,120,36,,,,,,,,17:02:55:547,17:02:56:116,17:02:59:119,left,17:02:59:602,,2018_Jun_13_1635,59.9520975599,MP-Perception Experiment,xx21w20,
281,vgpdm_dyn(20)-lvm(20)_final(5).webm,True,left,1,training(19).webm,0,121,121,27,,,,,,,,17:03:00:542,17:03:01:103,17:03:04:106,left,17:03:04:506,,2018_Jun_13_1635,59.9520975599,MP-Perception Experiment,xx21w20,
282,vcgpdm_dyn(10)-lvm(10)_final(0).webm,False,left,1,training(6).webm,0,122,122,88,,,,,,,,17:03:05:435,17:03:06:007,17:03:09:009,left,17:03:09:426,,2018_Jun_13_1635,59.9520975599,MP-Perception Experiment,xx21w20,
283,vcgpdm_dyn(20)-lvm(10)_final(5).webm,True,left,1,training(2).webm,0,123,123,133,,,,,,,,17:03:10:358,17:03:10:927,17:03:13:930,left,17:03:14:313,,2018_Jun_13_1635,59.9520975599,MP-Perception Experiment,xx21w20,
284,training(24).webm,False,right,1,vcgpdm_dyn(35)-lvm(10)_final(3).webm,0,124,124,102,,,,,,,,17:03:15:281,17:03:15:814,17:03:18:817,right,17:03:19:201,,2018_Jun_13_1635,59.9520975599,MP-Perception Experiment,xx21w20,
285,vgpdm_dyn(25)-lvm(20)_final(8).webm,True,left,1,training(4).webm,0,125,125,148,,,,,,,,17:03:20:142,17:03:20:704,17:03:23:689,left,17:03:24:240,,2018_Jun_13_1635,59.9520975599,MP-Perception Experiment,xx21w20,
286,vcgpdm_dyn(10)-lvm(30)_final(1).webm,True,left,1,training(25).webm,0,126,126,113,,,,,,,,17:03:24:991,17:03:25:742,17:03:28:744,left,17:03:29:178,,2018_Jun_13_1635,59.9520975599,MP-Perception Experiment,xx21w20,
287,training(1).webm,True,right,1,vcgpdm_dyn(5)-lvm(15)_final(5).webm,0,127,127,41,,,,,,,,17:03:30:118,17:03:30:679,17:03:33:682,right,17:03:34:065,,2018_Jun_13_1635,59.9520975599,MP-Perception Experiment,xx21w20,
288,vcgpdm_dyn(35)-lvm(20)_final(1).webm,True,left,1,training(31).webm,0,128,128,130,,,,,,,,17:03:35:011,17:03:35:566,17:03:38:569,left,17:03:38:969,,2018_Jun_13_1635,59.9520975599,MP-Perception Experiment,xx21w20,
289,vcgpdm_dyn(35)-lvm(25)_final(0).webm,True,left,1,training(6).webm,0,129,129,15,,,,,,,,17:03:39:916,17:03:40:470,17:03:43:474,left,17:03:43:924,,2018_Jun_13_1635,59.9520975599,MP-Perception Experiment,xx21w20,
290,training(14).webm,True,right,1,vcgpdm_dyn(35)-lvm(5)_final(7).webm,0,130,130,103,,,,,,,,17:03:44:694,17:03:45:425,17:03:48:428,left,17:03:48:928,,2018_Jun_13_1635,59.9520975599,MP-Perception Experiment,xx21w20,
291,training(32).webm,False,right,1,vcgpdm_dyn(10)-lvm(25)_final(7).webm,0,131,131,58,,,,,,,,17:03:49:690,17:03:50:429,17:03:53:432,right,17:03:53:816,,2018_Jun_13_1635,59.9520975599,MP-Perception Experiment,xx21w20,
292,training(26).webm,False,right,1,vgpdm_dyn(20)-lvm(25)_final(2).webm,0,132,132,117,,,,,,,,17:03:54:576,17:03:55:317,17:03:58:319,right,17:03:58:736,,2018_Jun_13_1635,59.9520975599,MP-Perception Experiment,xx21w20,
293,training(18).webm,True,right,1,vcgpdm_dyn(10)-lvm(35)_final(0).webm,0,133,133,60,,,,,,,,17:03:59:518,17:04:00:252,17:04:03:256,right,17:04:03:790,,2018_Jun_13_1635,59.9520975599,MP-Perception Experiment,xx21w20,
294,training(0).webm,True,right,1,vcgpdm_dyn(15)-lvm(5)_final(3).webm,0,134,134,108,,,,,,,,17:04:04:556,17:04:05:291,17:04:08:293,right,17:04:08:760,,2018_Jun_13_1635,59.9520975599,MP-Perception Experiment,xx21w20,
295,training(6).webm,True,right,1,vcgpdm_dyn(5)-lvm(25)_final(0).webm,0,135,135,104,,,,,,,,17:04:09:526,17:04:10:261,17:04:13:249,right,17:04:13:799,,2018_Jun_13_1635,59.9520975599,MP-Perception Experiment,xx21w20,
296,training(2).webm,True,right,1,tmp_numprim(9)_final(0).webm,0,136,136,158,,,,,,,,17:04:14:567,17:04:15:301,17:04:18:304,right,17:04:18:855,,2018_Jun_13_1635,59.9520975599,MP-Perception Experiment,xx21w20,
297,training(40).webm,True,right,1,vgpdm_dyn(10)-lvm(35)_final(6).webm,0,137,137,31,,,,,,,,17:04:19:614,17:04:20:356,17:04:23:358,right,17:04:24:109,,2018_Jun_13_1635,59.9520975599,MP-Perception Experiment,xx21w20,
298,vcgpdm_dyn(30)-lvm(10)_final(5).webm,True,left,1,training(2).webm,0,138,138,96,,,,,,,,17:04:24:873,17:04:25:610,17:04:28:612,left,17:04:29:013,,2018_Jun_13_1635,59.9520975599,MP-Perception Experiment,xx21w20,
299,training(40).webm,False,right,1,vgpdm_dyn(25)-lvm(30)_final(9).webm,0,139,139,152,,,,,,,,17:04:29:807,17:04:30:514,17:04:33:516,right,17:04:34:033,,2018_Jun_13_1635,59.9520975599,MP-Perception Experiment,xx21w20,
300,training(22).webm,True,right,1,vgpdm_dyn(35)-lvm(35)_final(9).webm,0,140,140,84,,,,,,,,17:04:34:801,17:04:35:536,17:04:38:538,right,17:04:39:389,,2018_Jun_13_1635,59.9520975599,MP-Perception Experiment,xx21w20,
301,vcgpdm_dyn(30)-lvm(5)_final(1).webm,True,left,1,training(12).webm,0,141,141,111,,,,,,,,17:04:40:100,17:04:40:890,17:04:43:892,left,17:04:44:810,,2018_Jun_13_1635,59.9520975599,MP-Perception Experiment,xx21w20,
302,vgpdm_dyn(5)-lvm(20)_final(2).webm,True,left,1,training(6).webm,0,142,142,57,,,,,,,,17:04:45:605,17:04:46:311,17:04:49:312,right,17:04:49:478,,2018_Jun_13_1635,59.9520975599,MP-Perception Experiment,xx21w20,
303,map_cgpdm_final(2).webm,False,left,1,training(12).webm,0,143,143,156,,,,,,,,17:04:50:238,17:04:50:980,17:04:53:983,left,17:04:54:367,,2018_Jun_13_1635,59.9520975599,MP-Perception Experiment,xx21w20,
304,training(33).webm,False,right,1,vgpdm_dyn(10)-lvm(15)_final(1).webm,0,144,144,139,,,,,,,,17:04:55:126,17:04:55:868,17:04:58:870,right,17:04:59:387,,2018_Jun_13_1635,59.9520975599,MP-Perception Experiment,xx21w20,
305,tmp_numprim(6)_final(8).webm,False,left,1,training(17).webm,0,145,145,89,,,,,,,,17:05:00:144,17:05:00:890,17:05:03:876,left,17:05:04:326,,2018_Jun_13_1635,59.9520975599,MP-Perception Experiment,xx21w20,
306,training(39).webm,False,right,1,tmp_numprim(3)_final(9).webm,0,146,146,73,,,,,,,,17:05:05:087,17:05:05:828,17:05:08:830,right,17:05:09:331,,2018_Jun_13_1635,59.9520975599,MP-Perception Experiment,xx21w20,
307,training(35).webm,False,right,1,vgpdm_dyn(30)-lvm(30)_final(9).webm,0,147,147,19,,,,,,,,17:05:10:268,17:05:10:849,17:05:13:835,right,17:05:14:519,,2018_Jun_13_1635,59.9520975599,MP-Perception Experiment,xx21w20,
308,vgpdm_dyn(30)-lvm(5)_final(4).webm,True,left,1,training(12).webm,0,148,148,38,,,,,,,,17:05:15:461,17:05:16:020,17:05:19:023,left,17:05:19:423,,2018_Jun_13_1635,59.9520975599,MP-Perception Experiment,xx21w20,
309,training(1).webm,False,right,1,vgpdm_dyn(5)-lvm(35)_final(8)_bad.webm,0,149,149,127,,,,,,,,17:05:20:371,17:05:20:924,17:05:23:927,right,17:05:24:360,,2018_Jun_13_1635,59.9520975599,MP-Perception Experiment,xx21w20,
310,training(32).webm,False,right,1,vcgpdm_dyn(15)-lvm(25)_final(9).webm,0,150,150,0,,,,,,,,17:05:25:127,17:05:25:861,17:05:28:865,right,17:05:29:382,,2018_Jun_13_1635,59.9520975599,MP-Perception Experiment,xx21w20,
311,training(32).webm,False,right,1,vcgpdm_dyn(5)-lvm(5)_final(1).webm,0,151,151,128,,,,,,,,17:05:30:134,17:05:30:883,17:05:33:886,right,17:05:34:553,,2018_Jun_13_1635,59.9520975599,MP-Perception Experiment,xx21w20,
312,vcgpdm_dyn(5)-lvm(5)_final(2).webm,False,left,1,training(7).webm,0,152,152,126,,,,,,,,17:05:35:494,17:05:36:054,17:05:39:055,left,17:05:39:588,,2018_Jun_13_1635,59.9520975599,MP-Perception Experiment,xx21w20,
313,vgpdm_dyn(20)-lvm(20)_final(2).webm,False,left,1,training(29).webm,0,153,153,14,,,,,,,,17:05:40:533,17:05:41:090,17:05:44:092,right,17:05:48:513,,2018_Jun_13_1635,59.9520975599,MP-Perception Experiment,xx21w20,
314,map_gpdm_final(6).webm,False,left,1,training(38).webm,0,154,154,67,,,,,,,,17:05:49:450,17:05:50:014,17:05:53:017,left,17:05:53:402,,2018_Jun_13_1635,59.9520975599,MP-Perception Experiment,xx21w20,
315,training(3).webm,True,right,1,vgpdm_dyn(15)-lvm(30)_final(6).webm,0,155,155,1,,,,,,,,17:05:54:160,17:05:54:904,17:05:57:906,right,17:05:58:423,,2018_Jun_13_1635,59.9520975599,MP-Perception Experiment,xx21w20,
316,training(16).webm,True,right,1,vcgpdm_dyn(10)-lvm(30)_final(9).webm,0,156,156,59,,,,,,,,17:05:59:389,17:05:59:924,17:06:02:928,right,17:06:03:495,,2018_Jun_13_1635,59.9520975599,MP-Perception Experiment,xx21w20,
317,vcgpdm_dyn(15)-lvm(20)_final(7).webm,False,left,1,training(14).webm,0,157,157,129,,,,,,,,17:06:04:256,17:06:04:996,17:06:07:999,left,17:06:08:883,,2018_Jun_13_1635,59.9520975599,MP-Perception Experiment,xx21w20,
318,vgpdm_dyn(20)-lvm(10)_final(0)_out_of_screen.webm,False,left,1,training(13).webm,0,158,158,22,,,,,,,,17:06:09:829,17:06:10:384,17:06:13:386,left,17:06:13:787,,2018_Jun_13_1635,59.9520975599,MP-Perception Experiment,xx21w20,
319,training(21).webm,True,right,2,vcgpdm_dyn(5)-lvm(15)_final(0).webm,0,0,0,53,,,,,,,,17:08:58:247,17:08:58:996,17:09:01:980,right,17:09:02:314,,2018_Jun_13_1635,59.9520975599,MP-Perception Experiment,xx21w20,
320,training(2).webm,True,right,2,vcgpdm_dyn(30)-lvm(5)_final(8).webm,0,1,1,21,,,,,,,,17:09:03:075,17:09:03:815,17:09:06:818,right,17:09:07:318,,2018_Jun_13_1635,59.9520975599,MP-Perception Experiment,xx21w20,
321,training(41).webm,True,right,2,tmp_numprim(9)_final(5).webm,0,2,2,149,,,,,,,,17:09:08:079,17:09:08:819,17:09:11:807,right,17:09:12:357,,2018_Jun_13_1635,59.9520975599,MP-Perception Experiment,xx21w20,
322,training(9).webm,False,right,2,vcgpdm_dyn(25)-lvm(30)_final(0).webm,0,3,3,133,,,,,,,,17:09:13:142,17:09:13:858,17:09:16:862,left,17:09:17:329,,2018_Jun_13_1635,59.9520975599,MP-Perception Experiment,xx21w20,
323,training(17).webm,False,right,2,vgpdm_dyn(15)-lvm(5)_final(6).webm,0,4,4,111,,,,,,,,17:09:18:088,17:09:18:830,17:09:21:833,right,17:09:22:249,,2018_Jun_13_1635,59.9520975599,MP-Perception Experiment,xx21w20,
324,vcgpdm_dyn(35)-lvm(30)_final(6).webm,True,left,2,training(48).webm,0,5,5,98,,,,,,,,17:09:23:140,17:09:23:751,17:09:26:753,left,17:09:26:937,,2018_Jun_13_1635,59.9520975599,MP-Perception Experiment,xx21w20,
325,training(39).webm,False,right,2,vcgpdm_dyn(15)-lvm(35)_final(2).webm,0,6,6,137,,,,,,,,17:09:27:692,17:09:28:438,17:09:31:440,right,17:09:31:957,,2018_Jun_13_1635,59.9520975599,MP-Perception Experiment,xx21w20,
326,tmp_numprim(2)_final(0).webm,False,left,2,training(32).webm,0,7,7,14,,,,,,,,17:09:32:899,17:09:33:459,17:09:36:462,left,17:09:36:846,,2018_Jun_13_1635,59.9520975599,MP-Perception Experiment,xx21w20,
327,training(22).webm,True,right,2,vcgpdm_dyn(15)-lvm(30)_final(5).webm,0,8,8,141,,,,,,,,17:09:37:631,17:09:38:347,17:09:41:349,right,17:09:41:766,,2018_Jun_13_1635,59.9520975599,MP-Perception Experiment,xx21w20,
328,vcgpdm_dyn(15)-lvm(35)_final(5).webm,True,left,2,training(31).webm,0,9,9,144,,,,,,,,17:09:42:709,17:09:43:267,17:09:46:270,left,17:09:46:537,,2018_Jun_13_1635,59.9520975599,MP-Perception Experiment,xx21w20,
329,training(16).webm,False,right,2,vgpdm_dyn(35)-lvm(35)_final(0).webm,0,10,10,58,,,,,,,,17:09:47:487,17:09:48:038,17:09:51:040,right,17:09:51:473,,2018_Jun_13_1635,59.9520975599,MP-Perception Experiment,xx21w20,
330,training(10).webm,False,right,2,vgpdm_dyn(10)-lvm(25)_final(4).webm,0,11,11,106,,,,,,,,17:09:52:425,17:09:52:974,17:09:55:977,right,17:09:56:394,,2018_Jun_13_1635,59.9520975599,MP-Perception Experiment,xx21w20,
331,vgpdm_dyn(15)-lvm(15)_final(1).webm,True,left,2,training(41).webm,0,12,12,93,,,,,,,,17:09:57:354,17:09:57:895,17:10:00:882,left,17:10:01:400,,2018_Jun_13_1635,59.9520975599,MP-Perception Experiment,xx21w20,
332,training(31).webm,True,right,2,vgpdm_dyn(10)-lvm(30)_final(9).webm,0,13,13,134,,,,,,,,17:10:02:341,17:10:02:901,17:10:05:903,right,17:10:06:420,,2018_Jun_13_1635,59.9520975599,MP-Perception Experiment,xx21w20,
333,vgpdm_dyn(15)-lvm(35)_final(2).webm,False,left,2,training(9).webm,0,14,14,50,,,,,,,,17:10:07:387,17:10:07:923,17:10:10:925,left,17:10:11:025,,2018_Jun_13_1635,59.9520975599,MP-Perception Experiment,xx21w20,
334,training(40).webm,False,right,2,vcgpdm_dyn(15)-lvm(5)_final(1).webm,0,15,15,145,,,,,,,,17:10:11:790,17:10:12:526,17:10:15:529,right,17:10:16:179,,2018_Jun_13_1635,59.9520975599,MP-Perception Experiment,xx21w20,
335,training(35).webm,True,right,2,tmp_numprim(7)_final(2).webm,0,16,16,125,,,,,,,,17:10:17:116,17:10:17:680,17:10:20:683,left,17:10:21:083,,2018_Jun_13_1635,59.9520975599,MP-Perception Experiment,xx21w20,
336,tmp_numprim(3)_final(1).webm,False,left,2,training(33).webm,0,17,17,10,,,,,,,,17:10:22:058,17:10:22:584,17:10:25:588,left,17:10:25:988,,2018_Jun_13_1635,59.9520975599,MP-Perception Experiment,xx21w20,
337,vcgpdm_dyn(20)-lvm(20)_final(8).webm,False,left,2,training(27).webm,0,18,18,82,,,,,,,,17:10:26:758,17:10:27:489,17:10:30:492,left,17:10:31:226,,2018_Jun_13_1635,59.9520975599,MP-Perception Experiment,xx21w20,
338,vcgpdm_dyn(35)-lvm(10)_final(5).webm,False,left,2,training(17).webm,0,19,19,47,,,,,,,,17:10:32:166,17:10:32:727,17:10:35:730,left,17:10:35:913,,2018_Jun_13_1635,59.9520975599,MP-Perception Experiment,xx21w20,
339,training(9).webm,True,right,2,vcgpdm_dyn(10)-lvm(10)_final(5).webm,0,20,20,76,,,,,,,,17:10:36:679,17:10:37:414,17:10:40:415,right,17:10:41:315,,2018_Jun_13_1635,59.9520975599,MP-Perception Experiment,xx21w20,
340,training(19).webm,True,right,2,vcgpdm_dyn(15)-lvm(10)_final(7).webm,0,21,21,36,,,,,,,,17:10:42:082,17:10:42:818,17:10:45:820,right,17:10:46:137,,2018_Jun_13_1635,59.9520975599,MP-Perception Experiment,xx21w20,
341,training(28).webm,True,right,2,vcgpdm_dyn(20)-lvm(10)_final(2).webm,0,22,22,115,,,,,,,,17:10:46:901,17:10:47:638,17:10:50:641,right,17:10:50:774,,2018_Jun_13_1635,59.9520975599,MP-Perception Experiment,xx21w20,
342,vcgpdm_dyn(10)-lvm(15)_final(9).webm,True,left,2,training(37).webm,0,23,23,60,,,,,,,,17:10:51:541,17:10:52:275,17:10:55:263,left,17:10:55:663,,2018_Jun_13_1635,59.9520975599,MP-Perception Experiment,xx21w20,
343,training(1).webm,True,right,2,map_cgpdm_final(1).webm,0,24,24,11,,,,,,,,17:10:56:428,17:10:57:164,17:11:00:168,right,17:11:00:551,,2018_Jun_13_1635,59.9520975599,MP-Perception Experiment,xx21w20,
344,training(16).webm,False,right,2,vgpdm_dyn(5)-lvm(10)_final(9).webm,0,25,25,44,,,,,,,,17:11:01:313,17:11:02:053,17:11:05:055,right,17:11:05:439,,2018_Jun_13_1635,59.9520975599,MP-Perception Experiment,xx21w20,
345,training(20).webm,False,right,2,vcgpdm_dyn(30)-lvm(10)_final(5).webm,0,26,26,38,,,,,,,,17:11:06:199,17:11:06:940,17:11:09:942,right,17:11:10:560,,2018_Jun_13_1635,59.9520975599,MP-Perception Experiment,xx21w20,
346,vcgpdm_dyn(20)-lvm(35)_final(8).webm,False,left,2,training(33).webm,0,27,27,120,,,,,,,,17:11:11:328,17:11:12:061,17:11:15:063,left,17:11:15:480,,2018_Jun_13_1635,59.9520975599,MP-Perception Experiment,xx21w20,
347,vcgpdm_dyn(15)-lvm(30)_final(1).webm,False,left,2,training(35).webm,0,28,28,72,,,,,,,,17:11:16:248,17:11:16:981,17:11:19:985,left,17:11:20:535,,2018_Jun_13_1635,59.9520975599,MP-Perception Experiment,xx21w20,
348,training(22).webm,True,right,2,vgpdm_dyn(10)-lvm(5)_final(6).webm,0,29,29,15,,,,,,,,17:11:21:476,17:11:22:036,17:11:25:039,right,17:11:25:673,,2018_Jun_13_1635,59.9520975599,MP-Perception Experiment,xx21w20,
349,vgpdm_dyn(20)-lvm(15)_final(7).webm,False,left,2,training(33).webm,0,30,30,25,,,,,,,,17:11:26:570,17:11:27:174,17:11:30:175,left,17:11:30:658,,2018_Jun_13_1635,59.9520975599,MP-Perception Experiment,xx21w20,
350,training(8).webm,True,right,2,vcgpdm_dyn(30)-lvm(10)_final(0).webm,0,31,31,57,,,,,,,,17:11:31:634,17:11:32:159,17:11:35:163,right,17:11:35:580,,2018_Jun_13_1635,59.9520975599,MP-Perception Experiment,xx21w20,
351,training(38).webm,True,right,2,vgpdm_dyn(30)-lvm(35)_final(3).webm,0,32,32,9,,,,,,,,17:11:36:340,17:11:37:081,17:11:40:084,right,17:11:40:584,,2018_Jun_13_1635,59.9520975599,MP-Perception Experiment,xx21w20,
352,vgpdm_dyn(30)-lvm(25)_final(1).webm,True,left,2,training(21).webm,0,33,33,136,,,,,,,,17:11:41:520,17:11:42:085,17:11:45:073,left,17:11:45:406,,2018_Jun_13_1635,59.9520975599,MP-Perception Experiment,xx21w20,
353,vgpdm_dyn(10)-lvm(25)_final(4).webm,True,left,2,training(2).webm,0,34,34,100,,,,,,,,17:11:46:170,17:11:46:907,17:11:49:910,left,17:11:50:277,,2018_Jun_13_1635,59.9520975599,MP-Perception Experiment,xx21w20,
354,training(10).webm,True,right,2,vgpdm_dyn(30)-lvm(15)_final(0).webm,0,35,35,64,,,,,,,,17:11:51:039,17:11:51:778,17:11:54:782,right,17:11:55:332,,2018_Jun_13_1635,59.9520975599,MP-Perception Experiment,xx21w20,
355,training(17).webm,False,right,2,vcgpdm_dyn(20)-lvm(15)_final(9).webm,0,36,36,83,,,,,,,,17:11:56:094,17:11:56:833,17:11:59:836,right,17:12:00:436,,2018_Jun_13_1635,59.9520975599,MP-Perception Experiment,xx21w20,
356,training(33).webm,True,right,2,vcgpdm_dyn(5)-lvm(5)_final(4).webm,0,37,37,29,,,,,,,,17:12:01:383,17:12:01:937,17:12:04:940,right,17:12:05:323,,2018_Jun_13_1635,59.9520975599,MP-Perception Experiment,xx21w20,
357,vgpdm_dyn(35)-lvm(35)_final(2).webm,True,left,2,training(8).webm,0,38,38,78,,,,,,,,17:12:06:095,17:12:06:824,17:12:09:827,left,17:12:10:212,,2018_Jun_13_1635,59.9520975599,MP-Perception Experiment,xx21w20,
358,vgpdm_dyn(30)-lvm(10)_final(5).webm,False,left,2,training(5).webm,0,39,39,129,,,,,,,,17:12:11:142,17:12:11:713,17:12:14:715,left,17:12:15:066,,2018_Jun_13_1635,59.9520975599,MP-Perception Experiment,xx21w20,
359,training(3).webm,True,right,2,vcgpdm_dyn(35)-lvm(15)_final(7)_out_of_screen.webm,0,40,40,135,,,,,,,,17:12:15:826,17:12:16:567,17:12:19:567,right,17:12:20:001,,2018_Jun_13_1635,59.9520975599,MP-Perception Experiment,xx21w20,
360,vcgpdm_dyn(25)-lvm(5)_final(5).webm,True,left,2,training(13).webm,0,41,41,20,,,,,,,,17:12:20:942,17:12:21:502,17:12:24:505,left,17:12:24:905,,2018_Jun_13_1635,59.9520975599,MP-Perception Experiment,xx21w20,
361,training(48).webm,True,right,2,vgpdm_dyn(15)-lvm(30)_final(2).webm,0,42,42,0,,,,,,,,17:12:26:800,17:12:26:801,17:12:29:410,right,17:12:30:194,,2018_Jun_13_1635,59.9520975599,MP-Perception Experiment,xx21w20,
362,training(12).webm,False,right,2,vgpdm_dyn(15)-lvm(25)_final(8).webm,0,43,43,151,,,,,,,,17:12:31:135,17:12:31:695,17:12:34:682,right,17:12:34:916,,2018_Jun_13_1635,59.9520975599,MP-Perception Experiment,xx21w20,
363,training(4).webm,False,right,2,vgpdm_dyn(25)-lvm(5)_final(6).webm,0,44,44,97,,,,,,,,17:12:35:707,17:12:36:417,17:12:39:420,right,17:12:39:853,,2018_Jun_13_1635,59.9520975599,MP-Perception Experiment,xx21w20,
364,vcgpdm_dyn(25)-lvm(5)_final(1).webm,False,left,2,training(27).webm,0,45,45,119,,,,,,,,17:12:40:622,17:12:41:354,17:12:44:357,left,17:12:44:740,,2018_Jun_13_1635,59.9520975599,MP-Perception Experiment,xx21w20,
365,training(17).webm,True,right,2,vgpdm_dyn(15)-lvm(5)_final(4).webm,0,46,46,75,,,,,,,,17:12:45:499,17:12:46:243,17:12:49:245,right,17:12:49:729,,2018_Jun_13_1635,59.9520975599,MP-Perception Experiment,xx21w20,
366,vgpdm_dyn(35)-lvm(5)_final(2).webm,True,left,2,training(31).webm,0,47,47,63,,,,,,,,17:12:50:484,17:12:51:230,17:12:54:233,left,17:12:54:566,,2018_Jun_13_1635,59.9520975599,MP-Perception Experiment,xx21w20,
367,training(27).webm,False,right,2,vcgpdm_dyn(30)-lvm(20)_final(1).webm,0,48,48,49,,,,,,,,17:12:55:319,17:12:56:067,17:12:59:070,right,17:12:59:620,,2018_Jun_13_1635,59.9520975599,MP-Perception Experiment,xx21w20,
368,training(19).webm,False,right,2,vcgpdm_dyn(30)-lvm(5)_final(4).webm,0,49,49,103,,,,,,,,17:13:00:379,17:13:01:121,17:13:04:125,right,17:13:04:725,,2018_Jun_13_1635,59.9520975599,MP-Perception Experiment,xx21w20,
369,dmp_npsi(15)_final(9).webm,True,left,2,training(38).webm,0,50,50,156,,,,,,,,17:13:05:489,17:13:06:226,17:13:09:227,left,17:13:09:594,,2018_Jun_13_1635,59.9520975599,MP-Perception Experiment,xx21w20,
370,training(37).webm,True,right,2,vgpdm_dyn(15)-lvm(35)_final(9).webm,0,51,51,146,,,,,,,,17:13:10:363,17:13:11:095,17:13:14:098,right,17:13:14:498,,2018_Jun_13_1635,59.9520975599,MP-Perception Experiment,xx21w20,
371,training(22).webm,False,right,2,dmp_npsi(25)_final(6).webm,0,52,52,7,,,,,,,,17:13:15:257,17:13:15:999,17:13:19:002,right,17:13:19:452,,2018_Jun_13_1635,59.9520975599,MP-Perception Experiment,xx21w20,
372,training(48).webm,False,right,2,tmp_numprim(5)_final(7).webm,0,53,53,153,,,,,,,,17:13:20:221,17:13:20:954,17:13:23:942,right,17:13:24:459,,2018_Jun_13_1635,59.9520975599,MP-Perception Experiment,xx21w20,
373,training(9).webm,False,right,2,vgpdm_dyn(20)-lvm(25)_final(7).webm,0,54,54,43,,,,,,,,17:13:25:228,17:13:25:960,17:13:28:963,right,17:13:29:363,,2018_Jun_13_1635,59.9520975599,MP-Perception Experiment,xx21w20,
374,vgpdm_dyn(10)-lvm(30)_final(5).webm,True,left,2,training(7).webm,0,55,55,51,,,,,,,,17:13:30:128,17:13:30:864,17:13:33:867,left,17:13:34:283,,2018_Jun_13_1635,59.9520975599,MP-Perception Experiment,xx21w20,
375,dmp_npsi(30)_final(9).webm,True,left,2,training(39).webm,0,56,56,126,,,,,,,,17:13:35:040,17:13:35:785,17:13:38:788,left,17:13:39:122,,2018_Jun_13_1635,59.9520975599,MP-Perception Experiment,xx21w20,
376,map_gpdm_final(9).webm,False,left,2,training(28).webm,0,57,57,92,,,,,,,,17:13:40:057,17:13:40:623,17:13:43:625,left,17:13:43:892,,2018_Jun_13_1635,59.9520975599,MP-Perception Experiment,xx21w20,
377,training(26).webm,False,right,2,vcgpdm_dyn(5)-lvm(10)_final(1).webm,0,58,58,127,,,,,,,,17:13:44:680,17:13:45:393,17:13:48:396,right,17:13:49:397,,2018_Jun_13_1635,59.9520975599,MP-Perception Experiment,xx21w20,
378,training(22).webm,False,right,2,vcgpdm_dyn(15)-lvm(25)_final(5).webm,0,59,59,40,,,,,,,,17:13:50:337,17:13:50:914,17:13:53:900,right,17:13:54:668,,2018_Jun_13_1635,59.9520975599,MP-Perception Experiment,xx21w20,
379,training(18).webm,False,right,2,vgpdm_dyn(20)-lvm(25)_final(9).webm,0,60,60,99,,,,,,,,17:13:55:436,17:13:56:170,17:13:59:170,right,17:13:59:654,,2018_Jun_13_1635,59.9520975599,MP-Perception Experiment,xx21w20,
380,training(37).webm,True,right,2,dmp_npsi(25)_final(8).webm,0,61,61,158,,,,,,,,17:14:00:604,17:14:01:155,17:14:04:158,right,17:14:04:708,,2018_Jun_13_1635,59.9520975599,MP-Perception Experiment,xx21w20,
381,vcgpdm_dyn(5)-lvm(10)_final(2).webm,True,left,2,training(4).webm,0,62,62,110,,,,,,,,17:14:05:476,17:14:06:209,17:14:09:212,left,17:14:09:562,,2018_Jun_13_1635,59.9520975599,MP-Perception Experiment,xx21w20,
382,vcgpdm_dyn(10)-lvm(10)_final(9).webm,False,left,2,training(30).webm,0,63,63,80,,,,,,,,17:14:10:504,17:14:11:065,17:14:14:052,left,17:14:14:419,,2018_Jun_13_1635,59.9520975599,MP-Perception Experiment,xx21w20,
383,training(5).webm,False,right,2,vcgpdm_dyn(15)-lvm(10)_final(3).webm,0,64,64,140,,,,,,,,17:14:15:179,17:14:15:920,17:14:18:922,left,17:14:19:323,,2018_Jun_13_1635,59.9520975599,MP-Perception Experiment,xx21w20,
384,training(23).webm,False,right,2,vgpdm_dyn(35)-lvm(20)_final(7)_out_of_screen.webm,0,65,65,150,,,,,,,,17:14:20:261,17:14:20:824,17:14:23:826,right,17:14:24:393,,2018_Jun_13_1635,59.9520975599,MP-Perception Experiment,xx21w20,
385,training(24).webm,True,right,2,vgpdm_dyn(30)-lvm(5)_final(0).webm,0,66,66,13,,,,,,,,17:14:25:153,17:14:25:895,17:14:28:897,left,17:14:29:314,,2018_Jun_13_1635,59.9520975599,MP-Perception Experiment,xx21w20,
386,training(22).webm,False,right,2,vcgpdm_dyn(25)-lvm(20)_final(4).webm,0,67,67,46,,,,,,,,17:14:30:104,17:14:30:816,17:14:33:819,right,17:14:34:269,,2018_Jun_13_1635,59.9520975599,MP-Perception Experiment,xx21w20,
387,vcgpdm_dyn(20)-lvm(35)_final(9).webm,False,left,2,training(26).webm,0,68,68,74,,,,,,,,17:14:35:040,17:14:35:770,17:14:38:773,left,17:14:39:206,,2018_Jun_13_1635,59.9520975599,MP-Perception Experiment,xx21w20,
388,training(6).webm,True,right,2,dmp_npsi(35)_final(5).webm,0,69,69,116,,,,,,,,17:14:40:158,17:14:40:708,17:14:43:710,left,17:14:44:027,,2018_Jun_13_1635,59.9520975599,MP-Perception Experiment,xx21w20,
389,training(28).webm,False,right,2,tmp_numprim(9)_final(3).webm,0,70,70,104,,,,,,,,17:14:44:789,17:14:45:528,17:14:48:532,right,17:14:48:915,,2018_Jun_13_1635,59.9520975599,MP-Perception Experiment,xx21w20,
390,vcgpdm_dyn(25)-lvm(20)_final(7).webm,True,left,2,training(35).webm,0,71,71,2,,,,,,,,17:14:49:697,17:14:50:431,17:14:53:434,left,17:14:53:801,,2018_Jun_13_1635,59.9520975599,MP-Perception Experiment,xx21w20,
391,tmp_numprim(9)_final(1).webm,True,left,2,training(20).webm,0,72,72,52,,,,,,,,17:14:54:626,17:14:55:302,17:14:58:304,left,17:14:58:705,,2018_Jun_13_1635,59.9520975599,MP-Perception Experiment,xx21w20,
392,training(0).webm,False,right,2,vgpdm_dyn(15)-lvm(10)_final(1)_out_of_screen.webm,0,73,73,102,,,,,,,,17:14:59:503,17:15:00:206,17:15:03:193,right,17:15:03:644,,2018_Jun_13_1635,59.9520975599,MP-Perception Experiment,xx21w20,
393,vcgpdm_dyn(20)-lvm(15)_final(6).webm,True,left,2,training(10).webm,0,74,74,23,,,,,,,,17:15:04:408,17:15:05:146,17:15:08:149,left,17:15:08:515,,2018_Jun_13_1635,59.9520975599,MP-Perception Experiment,xx21w20,
394,training(25).webm,False,right,2,vcgpdm_dyn(20)-lvm(15)_final(4).webm,0,75,75,19,,,,,,,,17:15:09:279,17:15:10:017,17:15:13:019,right,17:15:13:636,,2018_Jun_13_1635,59.9520975599,MP-Perception Experiment,xx21w20,
395,training(6).webm,True,right,2,map_gpdm_final(3).webm,0,76,76,6,,,,,,,,17:15:14:392,17:15:15:137,17:15:18:140,right,17:15:18:540,,2018_Jun_13_1635,59.9520975599,MP-Perception Experiment,xx21w20,
396,vgpdm_dyn(10)-lvm(30)_final(2).webm,False,left,2,training(9).webm,0,77,77,87,,,,,,,,17:15:19:303,17:15:20:041,17:15:23:045,left,17:15:23:428,,2018_Jun_13_1635,59.9520975599,MP-Perception Experiment,xx21w20,
397,training(38).webm,True,right,2,vgpdm_dyn(25)-lvm(30)_final(7).webm,0,78,78,117,,,,,,,,17:15:24:183,17:15:24:930,17:15:27:932,left,17:15:28:299,,2018_Jun_13_1635,59.9520975599,MP-Perception Experiment,xx21w20,
398,vcgpdm_dyn(15)-lvm(15)_final(9).webm,True,left,2,training(26).webm,0,79,79,88,,,,,,,,17:15:29:059,17:15:29:800,17:15:32:803,left,17:15:33:270,,2018_Jun_13_1635,59.9520975599,MP-Perception Experiment,xx21w20,
399,vgpdm_dyn(35)-lvm(30)_final(3).webm,True,left,2,training(1).webm,0,80,80,91,,,,,,,,17:15:34:032,17:15:34:771,17:15:37:773,left,17:15:38:107,,2018_Jun_13_1635,59.9520975599,MP-Perception Experiment,xx21w20,
400,training(13).webm,False,right,2,vcgpdm_dyn(30)-lvm(35)_final(5).webm,0,81,81,1,,,,,,,,17:15:38:927,17:15:39:623,17:15:42:610,right,17:15:43:210,,2018_Jun_13_1635,59.9520975599,MP-Perception Experiment,xx21w20,
401,training(17).webm,False,right,2,vcgpdm_dyn(15)-lvm(35)_final(9).webm,0,82,82,118,,,,,,,,17:15:43:974,17:15:44:711,17:15:47:714,right,17:15:48:148,,2018_Jun_13_1635,59.9520975599,MP-Perception Experiment,xx21w20,
402,training(24).webm,True,right,2,vgpdm_dyn(5)-lvm(20)_final(8).webm,0,83,83,114,,,,,,,,17:15:49:100,17:15:49:649,17:15:52:636,right,17:15:53:153,,2018_Jun_13_1635,59.9520975599,MP-Perception Experiment,xx21w20,
403,training(39).webm,True,right,2,vcgpdm_dyn(15)-lvm(30)_final(2).webm,0,84,84,67,,,,,,,,17:15:54:107,17:15:54:655,17:15:57:658,right,17:15:58:092,,2018_Jun_13_1635,59.9520975599,MP-Perception Experiment,xx21w20,
404,vgpdm_dyn(30)-lvm(25)_final(9).webm,True,left,2,training(39).webm,0,85,85,107,,,,,,,,17:15:59:035,17:15:59:593,17:16:02:595,left,17:16:03:029,,2018_Jun_13_1635,59.9520975599,MP-Perception Experiment,xx21w20,
405,tmp_numprim(7)_final(9).webm,True,left,2,training(48).webm,0,86,86,68,,,,,,,,17:16:03:967,17:16:04:530,17:16:07:533,left,17:16:08:650,,2018_Jun_13_1635,59.9520975599,MP-Perception Experiment,xx21w20,
406,vcgpdm_dyn(10)-lvm(5)_final(5).webm,True,left,2,training(19).webm,0,87,87,90,,,,,,,,17:16:09:579,17:16:10:151,17:16:13:154,left,17:16:13:688,,2018_Jun_13_1635,59.9520975599,MP-Perception Experiment,xx21w20,
407,vcgpdm_dyn(20)-lvm(25)_final(9).webm,False,left,2,training(32).webm,0,88,88,37,,,,,,,,17:16:14:629,17:16:15:190,17:16:18:192,left,17:16:18:776,,2018_Jun_13_1635,59.9520975599,MP-Perception Experiment,xx21w20,
408,training(31).webm,True,right,2,vcgpdm_dyn(5)-lvm(5)_final(2).webm,0,89,89,77,,,,,,,,17:16:19:717,17:16:20:277,17:16:23:280,right,17:16:23:830,,2018_Jun_13_1635,59.9520975599,MP-Perception Experiment,xx21w20,
409,training(18).webm,True,right,2,dmp_npsi(25)_final(4).webm,0,90,90,147,,,,,,,,17:16:24:614,17:16:25:331,17:16:28:334,right,17:16:28:684,,2018_Jun_13_1635,59.9520975599,MP-Perception Experiment,xx21w20,
410,dmp_npsi(30)_final(2).webm,False,left,2,training(31).webm,0,91,91,132,,,,,,,,17:16:29:634,17:16:30:200,17:16:33:187,left,17:16:33:654,,2018_Jun_13_1635,59.9520975599,MP-Perception Experiment,xx21w20,
411,training(2).webm,True,right,2,vcgpdm_dyn(35)-lvm(5)_final(5).webm,0,92,92,66,,,,,,,,17:16:34:600,17:16:35:155,17:16:38:158,right,17:16:38:591,,2018_Jun_13_1635,59.9520975599,MP-Perception Experiment,xx21w20,
412,vcgpdm_dyn(15)-lvm(30)_final(6).webm,False,left,2,training(25).webm,0,93,93,85,,,,,,,,17:16:39:537,17:16:40:092,17:16:43:080,left,17:16:43:480,,2018_Jun_13_1635,59.9520975599,MP-Perception Experiment,xx21w20,
413,training(36).webm,False,right,2,vcgpdm_dyn(30)-lvm(15)_final(2).webm,0,94,94,139,,,,,,,,17:16:44:249,17:16:44:981,17:16:47:984,right,17:16:48:451,,2018_Jun_13_1635,59.9520975599,MP-Perception Experiment,xx21w20,
414,training(4).webm,True,right,2,vcgpdm_dyn(15)-lvm(10)_final(1).webm,0,95,95,33,,,,,,,,17:16:49:402,17:16:49:953,17:16:52:956,right,17:16:53:539,,2018_Jun_13_1635,59.9520975599,MP-Perception Experiment,xx21w20,
415,tmp_numprim(4)_final(9).webm,True,left,2,training(36).webm,0,96,96,81,,,,,,,,17:16:54:488,17:16:55:041,17:16:58:043,left,17:16:58:393,,2018_Jun_13_1635,59.9520975599,MP-Perception Experiment,xx21w20,
416,training(3).webm,True,right,2,vgpdm_dyn(15)-lvm(25)_final(6).webm,0,97,97,94,,,,,,,,17:16:59:160,17:16:59:894,17:17:02:897,right,17:17:03:297,,2018_Jun_13_1635,59.9520975599,MP-Perception Experiment,xx21w20,
417,training(20).webm,True,right,2,tmp_numprim(5)_final(0).webm,0,98,98,12,,,,,,,,17:17:04:059,17:17:04:798,17:17:07:802,right,17:17:08:136,,2018_Jun_13_1635,59.9520975599,MP-Perception Experiment,xx21w20,
418,training(6).webm,False,right,2,vgpdm_dyn(10)-lvm(5)_final(3).webm,0,99,99,30,,,,,,,,17:17:09:081,17:17:09:637,17:17:12:639,right,17:17:12:973,,2018_Jun_13_1635,59.9520975599,MP-Perception Experiment,xx21w20,
419,vgpdm_dyn(20)-lvm(15)_final(7).webm,True,left,2,training(13).webm,0,100,100,69,,,,,,,,17:17:13:919,17:17:14:474,17:17:17:476,left,17:17:17:793,,2018_Jun_13_1635,59.9520975599,MP-Perception Experiment,xx21w20,
420,training(13).webm,False,right,2,vcgpdm_dyn(20)-lvm(15)_final(0).webm,0,101,101,54,,,,,,,,17:17:18:767,17:17:19:294,17:17:22:295,right,17:17:22:512,,2018_Jun_13_1635,59.9520975599,MP-Perception Experiment,xx21w20,
421,training(17).webm,True,right,2,vcgpdm_dyn(20)-lvm(30)_final(0).webm,0,102,102,152,,,,,,,,17:17:23:302,17:17:24:030,17:17:27:017,right,17:17:27:367,,2018_Jun_13_1635,59.9520975599,MP-Perception Experiment,xx21w20,
422,vgpdm_dyn(30)-lvm(5)_final(2).webm,False,left,2,training(14).webm,0,103,103,73,,,,,,,,17:17:28:131,17:17:28:868,17:17:31:856,left,17:17:32:289,,2018_Jun_13_1635,59.9520975599,MP-Perception Experiment,xx21w20,
423,training(38).webm,False,right,2,vcgpdm_dyn(25)-lvm(10)_final(5).webm,0,104,104,112,,,,,,,,17:17:33:053,17:17:33:790,17:17:36:793,right,17:17:37:127,,2018_Jun_13_1635,59.9520975599,MP-Perception Experiment,xx21w20,
424,training(20).webm,False,right,2,vcgpdm_dyn(10)-lvm(20)_final(6).webm,0,105,105,56,,,,,,,,17:17:37:882,17:17:38:628,17:17:41:630,right,17:17:42:014,,2018_Jun_13_1635,59.9520975599,MP-Perception Experiment,xx21w20,
425,training(14).webm,False,right,2,tmp_numprim(8)_final(9).webm,0,106,106,61,,,,,,,,17:17:42:769,17:17:43:516,17:17:46:519,right,17:17:46:835,,2018_Jun_13_1635,59.9520975599,MP-Perception Experiment,xx21w20,
426,tmp_numprim(7)_final(8).webm,True,left,2,training(21).webm,0,107,107,128,,,,,,,,17:17:47:606,17:17:48:337,17:17:51:339,left,17:17:51:639,,2018_Jun_13_1635,59.9520975599,MP-Perception Experiment,xx21w20,
427,training(36).webm,False,right,2,map_gpdm_final(0).webm,0,108,108,138,,,,,,,,17:17:52:397,17:17:53:140,17:17:56:143,right,17:17:56:593,,2018_Jun_13_1635,59.9520975599,MP-Perception Experiment,xx21w20,
428,training(48).webm,True,right,2,tmp_numprim(9)_final(8).webm,0,109,109,101,,,,,,,,17:17:57:346,17:17:58:094,17:18:01:098,left,17:18:01:615,,2018_Jun_13_1635,59.9520975599,MP-Perception Experiment,xx21w20,
429,training(1).webm,True,right,2,vcgpdm_dyn(35)-lvm(5)_final(5).webm,0,110,110,48,,,,,,,,17:18:02:564,17:18:03:116,17:18:06:119,right,17:18:06:519,,2018_Jun_13_1635,59.9520975599,MP-Perception Experiment,xx21w20,
430,training(10).webm,False,right,2,vgpdm_dyn(30)-lvm(35)_final(0).webm,0,111,111,84,,,,,,,,17:18:07:289,17:18:08:020,17:18:11:021,right,17:18:11:354,,2018_Jun_13_1635,59.9520975599,MP-Perception Experiment,xx21w20,
431,training(17).webm,False,right,2,vgpdm_dyn(20)-lvm(5)_final(3).webm,0,112,112,31,,,,,,,,17:18:12:292,17:18:12:856,17:18:15:858,right,17:18:16:225,,2018_Jun_13_1635,59.9520975599,MP-Perception Experiment,xx21w20,
432,training(48).webm,True,right,2,vgpdm_dyn(15)-lvm(25)_final(8).webm,0,113,113,4,,,,,,,,17:18:16:988,17:18:17:727,17:18:20:730,right,17:18:21:063,,2018_Jun_13_1635,59.9520975599,MP-Perception Experiment,xx21w20,
433,training(27).webm,False,right,2,vcgpdm_dyn(30)-lvm(20)_final(0).webm,0,114,114,95,,,,,,,,17:18:22:011,17:18:22:564,17:18:25:552,right,17:18:26:002,,2018_Jun_13_1635,59.9520975599,MP-Perception Experiment,xx21w20,
434,training(19).webm,True,right,2,tmp_numprim(4)_final(1).webm,0,115,115,124,,,,,,,,17:18:26:820,17:18:27:503,17:18:30:506,right,17:18:30:790,,2018_Jun_13_1635,59.9520975599,MP-Perception Experiment,xx21w20,
435,vcgpdm_dyn(10)-lvm(5)_final(6).webm,True,left,2,training(20).webm,0,116,116,22,,,,,,,,17:18:31:727,17:18:32:291,17:18:35:294,left,17:18:35:728,,2018_Jun_13_1635,59.9520975599,MP-Perception Experiment,xx21w20,
436,vcgpdm_dyn(35)-lvm(35)_final(5)_bad.webm,False,left,2,training(24).webm,0,117,117,39,,,,,,,,17:18:36:490,17:18:37:229,17:18:40:231,left,17:18:40:699,,2018_Jun_13_1635,59.9520975599,MP-Perception Experiment,xx21w20,
437,training(24).webm,False,right,2,vcgpdm_dyn(30)-lvm(30)_final(4).webm,0,118,118,130,,,,,,,,17:18:41:669,17:18:42:200,17:18:45:202,right,17:18:45:386,,2018_Jun_13_1635,59.9520975599,MP-Perception Experiment,xx21w20,
438,vcgpdm_dyn(10)-lvm(15)_final(4).webm,True,left,2,training(22).webm,0,119,119,34,,,,,,,,17:18:46:157,17:18:46:887,17:18:49:889,left,17:18:50:290,,2018_Jun_13_1635,59.9520975599,MP-Perception Experiment,xx21w20,
439,vgpdm_dyn(35)-lvm(10)_final(1).webm,True,left,2,training(1).webm,0,120,120,35,,,,,,,,17:18:51:238,17:18:51:791,17:18:54:794,left,17:18:55:128,,2018_Jun_13_1635,59.9520975599,MP-Perception Experiment,xx21w20,
440,tmp_numprim(5)_final(7).webm,False,left,2,training(26).webm,0,121,121,79,,,,,,,,17:18:55:882,17:18:56:629,17:18:59:632,left,17:18:59:963,,2018_Jun_13_1635,59.9520975599,MP-Perception Experiment,xx21w20,
441,training(5).webm,True,right,2,tmp_numprim(2)_final(8).webm,0,122,122,70,,,,,,,,17:19:00:720,17:19:01:464,17:19:04:467,right,17:19:05:067,,2018_Jun_13_1635,59.9520975599,MP-Perception Experiment,xx21w20,
442,training(22).webm,False,right,2,vcgpdm_dyn(25)-lvm(5)_final(3).webm,0,123,123,108,,,,,,,,17:19:05:826,17:19:06:569,17:19:09:572,right,17:19:10:072,,2018_Jun_13_1635,59.9520975599,MP-Perception Experiment,xx21w20,
443,training(28).webm,False,right,2,vcgpdm_dyn(5)-lvm(5)_final(7).webm,0,124,124,42,,,,,,,,17:19:10:849,17:19:11:574,17:19:14:561,right,17:19:14:978,,2018_Jun_13_1635,59.9520975599,MP-Perception Experiment,xx21w20,
444,training(25).webm,False,right,2,vcgpdm_dyn(30)-lvm(15)_final(4).webm,0,125,125,148,,,,,,,,17:19:15:736,17:19:16:479,17:19:19:482,right,17:19:19:932,,2018_Jun_13_1635,59.9520975599,MP-Perception Experiment,xx21w20,
445,training(22).webm,False,right,2,vcgpdm_dyn(25)-lvm(10)_final(9).webm,0,126,126,65,,,,,,,,17:19:20:692,17:19:21:433,17:19:24:436,right,17:19:24:869,,2018_Jun_13_1635,59.9520975599,MP-Perception Experiment,xx21w20,
446,vcgpdm_dyn(5)-lvm(15)_final(1).webm,False,left,2,training(5).webm,0,127,127,105,,,,,,,,17:19:26:619,17:19:26:619,17:19:29:374,right,17:19:29:941,,2018_Jun_13_1635,59.9520975599,MP-Perception Experiment,xx21w20,
447,training(6).webm,True,right,2,dmp_npsi(30)_final(1).webm,0,128,128,86,,,,,,,,17:19:30:706,17:19:31:442,17:19:34:445,right,17:19:34:829,,2018_Jun_13_1635,59.9520975599,MP-Perception Experiment,xx21w20,
448,dmp_npsi(15)_final(3).webm,False,left,2,training(31).webm,0,129,129,109,,,,,,,,17:19:35:581,17:19:36:330,17:19:39:332,left,17:19:39:766,,2018_Jun_13_1635,59.9520975599,MP-Perception Experiment,xx21w20,
449,vgpdm_dyn(35)-lvm(30)_final(9).webm,True,left,2,training(18).webm,0,130,130,5,,,,,,,,17:19:40:705,17:19:41:267,17:19:44:270,left,17:19:44:587,,2018_Jun_13_1635,59.9520975599,MP-Perception Experiment,xx21w20,
450,vgpdm_dyn(5)-lvm(15)_final(9).webm,False,left,2,training(29).webm,0,131,131,17,,,,,,,,17:19:45:354,17:19:46:088,17:19:49:091,left,17:19:49:491,,2018_Jun_13_1635,59.9520975599,MP-Perception Experiment,xx21w20,
451,dmp_npsi(20)_final(1).webm,True,left,2,training(23).webm,0,132,132,45,,,,,,,,17:19:50:441,17:19:51:007,17:19:54:010,left,17:19:54:427,,2018_Jun_13_1635,59.9520975599,MP-Perception Experiment,xx21w20,
452,vgpdm_dyn(30)-lvm(20)_final(0).webm,False,left,2,training(25).webm,0,133,133,59,,,,,,,,17:19:55:369,17:19:55:928,17:19:58:931,left,17:19:59:348,,2018_Jun_13_1635,59.9520975599,MP-Perception Experiment,xx21w20,
453,training(48).webm,True,right,2,tmp_numprim(2)_final(3).webm,0,134,134,123,,,,,,,,17:20:00:309,17:20:00:849,17:20:03:837,right,17:20:04:254,,2018_Jun_13_1635,59.9520975599,MP-Perception Experiment,xx21w20,
454,training(33).webm,False,right,2,tmp_numprim(10)_final(1).webm,0,135,135,27,,,,,,,,17:20:05:197,17:20:05:755,17:20:08:758,left,17:20:09:058,,2018_Jun_13_1635,59.9520975599,MP-Perception Experiment,xx21w20,
455,training(0).webm,True,right,2,vcgpdm_dyn(5)-lvm(10)_final(1).webm,0,136,136,154,,,,,,,,17:20:10:008,17:20:10:559,17:20:13:562,right,17:20:14:346,,2018_Jun_13_1635,59.9520975599,MP-Perception Experiment,xx21w20,
456,training(11).webm,True,right,2,vgpdm_dyn(15)-lvm(35)_final(7).webm,0,137,137,113,,,,,,,,17:20:15:294,17:20:15:847,17:20:18:849,right,17:20:19:166,,2018_Jun_13_1635,59.9520975599,MP-Perception Experiment,xx21w20,
457,vcgpdm_dyn(30)-lvm(20)_final(3).webm,False,left,2,training(38).webm,0,138,138,142,,,,,,,,17:20:20:112,17:20:20:668,17:20:23:688,left,17:20:24:071,,2018_Jun_13_1635,59.9520975599,MP-Perception Experiment,xx21w20,
458,training(14).webm,True,right,2,vcgpdm_dyn(5)-lvm(10)_final(1).webm,0,139,139,32,,,,,,,,17:20:24:836,17:20:25:572,17:20:28:575,right,17:20:28:942,,2018_Jun_13_1635,59.9520975599,MP-Perception Experiment,xx21w20,
459,training(37).webm,True,right,2,vgpdm_dyn(10)-lvm(10)_final(7).webm,0,140,140,157,,,,,,,,17:20:29:884,17:20:30:443,17:20:33:446,right,17:20:33:846,,2018_Jun_13_1635,59.9520975599,MP-Perception Experiment,xx21w20,
460,vgpdm_dyn(20)-lvm(30)_final(2).webm,False,left,2,training(28).webm,0,141,141,62,,,,,,,,17:20:34:786,17:20:35:347,17:20:38:351,right,17:20:38:651,,2018_Jun_13_1635,59.9520975599,MP-Perception Experiment,xx21w20,
461,training(24).webm,False,right,2,vcgpdm_dyn(35)-lvm(20)_final(1).webm,0,142,142,143,,,,,,,,17:20:39:595,17:20:40:167,17:20:43:153,right,17:20:43:570,,2018_Jun_13_1635,59.9520975599,MP-Perception Experiment,xx21w20,
462,vcgpdm_dyn(20)-lvm(35)_final(8).webm,True,left,2,training(39).webm,0,143,143,122,,,,,,,,17:20:44:332,17:20:45:071,17:20:48:073,left,17:20:48:390,,2018_Jun_13_1635,59.9520975599,MP-Perception Experiment,xx21w20,
463,training(15).webm,False,right,2,vcgpdm_dyn(35)-lvm(5)_final(7).webm,0,144,144,26,,,,,,,,17:20:49:149,17:20:49:891,17:20:52:879,right,17:20:53:179,,2018_Jun_13_1635,59.9520975599,MP-Perception Experiment,xx21w20,
464,vgpdm_dyn(30)-lvm(10)_final(1).webm,False,left,2,training(19).webm,0,145,145,121,,,,,,,,17:20:53:938,17:20:54:681,17:20:57:684,left,17:20:58:034,,2018_Jun_13_1635,59.9520975599,MP-Perception Experiment,xx21w20,
465,training(41).webm,False,right,2,vcgpdm_dyn(35)-lvm(20)_final(4).webm,0,146,146,24,,,,,,,,17:20:58:802,17:20:59:535,17:21:02:538,right,17:21:02:938,,2018_Jun_13_1635,59.9520975599,MP-Perception Experiment,xx21w20,
466,training(48).webm,True,right,2,vgpdm_dyn(5)-lvm(10)_final(3).webm,0,147,147,131,,,,,,,,17:21:03:728,17:21:04:439,17:21:07:442,right,17:21:07:725,,2018_Jun_13_1635,59.9520975599,MP-Perception Experiment,xx21w20,
467,tmp_numprim(3)_final(1).webm,True,left,2,training(16).webm,0,148,148,16,,,,,,,,17:21:08:488,17:21:09:226,17:21:12:230,left,17:21:12:897,,2018_Jun_13_1635,59.9520975599,MP-Perception Experiment,xx21w20,
468,vcgpdm_dyn(20)-lvm(30)_final(8).webm,True,left,2,training(3).webm,0,149,149,96,,,,,,,,17:21:13:655,17:21:14:398,17:21:17:401,left,17:21:17:834,,2018_Jun_13_1635,59.9520975599,MP-Perception Experiment,xx21w20,
