trial_number,right,flipped,correct,block,left,trials.thisRepN,trials.thisTrialN,trials.thisN,trials.thisIndex,flipwelcome.keys,flipwelcome.corr,flipwelcome.rt,flippreparations.keys,flippreparations.rt,flipInstructions.keys,flipInstructions.rt,time_at_fixation_cross_onset,time_at_videoonset,time_at_videoend,participant_key_response,time_at_key_response,key_resp_4.keys,date,frameRate,expName,participant,
,,,,,,,,,,space,0,51.9439680084,,,,,,,,,,,2012_Dec_31_1015,59.9507267311,MP-Perception Experiment,xx22w42,
,,,,,,,,,,,,,space,16.3821726548,,,,,,,,,2012_Dec_31_1015,59.9507267311,MP-Perception Experiment,xx22w42,
,,,,,,,,,,,,,,,space,18.2488974877,,,,,,,2012_Dec_31_1015,59.9507267311,MP-Perception Experiment,xx22w42,
1,vcgpdm_dyn(5)-lvm(20)_final(3).webm,False,left,0,training(22).webm,0,0,0,116,,,,,,,,10:16:31:680,10:16:32:192,10:16:35:112,right,10:16:36:830,,2012_Dec_31_1015,59.9507267311,MP-Perception Experiment,xx22w42,
2,vcgpdm_dyn(25)-lvm(10)_final(5).webm,True,left,0,training(13).webm,0,1,1,118,,,,,,,,10:16:37:590,10:16:38:331,10:16:41:334,right,10:16:43:467,,2012_Dec_31_1015,59.9507267311,MP-Perception Experiment,xx22w42,
3,training(30).webm,False,right,0,vcgpdm_dyn(5)-lvm(35)_final(7)_bad.webm,0,2,2,122,,,,,,,,10:16:44:408,10:16:44:969,10:16:47:971,right,10:16:48:872,,2012_Dec_31_1015,59.9507267311,MP-Perception Experiment,xx22w42,
4,vgpdm_dyn(5)-lvm(10)_final(1).webm,True,left,0,training(27).webm,0,3,3,34,,,,,,,,10:16:49:808,10:16:50:373,10:16:53:375,left,10:16:53:909,,2012_Dec_31_1015,59.9507267311,MP-Perception Experiment,xx22w42,
5,training(4).webm,False,right,0,vgpdm_dyn(10)-lvm(10)_final(5).webm,0,4,4,113,,,,,,,,10:16:54:861,10:16:55:412,10:16:58:399,right,10:17:00:818,,2012_Dec_31_1015,59.9507267311,MP-Perception Experiment,xx22w42,
6,training(19).webm,False,right,0,vcgpdm_dyn(30)-lvm(35)_final(9).webm,0,5,5,86,,,,,,,,10:17:01:767,10:17:02:319,10:17:05:321,right,10:17:05:955,,2012_Dec_31_1015,59.9507267311,MP-Perception Experiment,xx22w42,
7,training(48).webm,True,right,0,dmp_npsi(30)_final(2).webm,0,6,6,78,,,,,,,,10:17:06:724,10:17:07:456,10:17:10:459,right,10:17:11:109,,2012_Dec_31_1015,59.9507267311,MP-Perception Experiment,xx22w42,
8,training(2).webm,False,right,0,vcgpdm_dyn(25)-lvm(10)_final(5).webm,0,7,7,42,,,,,,,,10:17:12:040,10:17:12:610,10:17:15:614,left,10:17:16:281,,2012_Dec_31_1015,59.9507267311,MP-Perception Experiment,xx22w42,
9,training(30).webm,True,right,0,vcgpdm_dyn(25)-lvm(20)_final(4).webm,0,8,8,132,,,,,,,,10:17:17:246,10:17:17:782,10:17:20:785,right,10:17:21:035,,2012_Dec_31_1015,59.9507267311,MP-Perception Experiment,xx22w42,
10,vcgpdm_dyn(20)-lvm(30)_final(4).webm,True,left,0,training(9).webm,0,9,9,32,,,,,,,,10:17:21:987,10:17:22:536,10:17:25:539,left,10:17:26:389,,2012_Dec_31_1015,59.9507267311,MP-Perception Experiment,xx22w42,
11,vcgpdm_dyn(25)-lvm(5)_final(7).webm,False,left,0,training(11).webm,0,10,10,67,,,,,,,,10:17:27:166,10:17:27:890,10:17:30:893,right,10:17:35:129,,2012_Dec_31_1015,59.9507267311,MP-Perception Experiment,xx22w42,
12,vgpdm_dyn(30)-lvm(25)_final(8).webm,False,left,0,training(10).webm,0,11,11,138,,,,,,,,10:17:36:078,10:17:36:630,10:17:39:632,left,10:17:40:950,,2012_Dec_31_1015,59.9507267311,MP-Perception Experiment,xx22w42,
13,training(28).webm,True,right,0,dmp_npsi(45)_final(5).webm,0,12,12,48,,,,,,,,10:17:41:877,10:17:42:451,10:17:45:439,right,10:17:46:540,,2012_Dec_31_1015,59.9507267311,MP-Perception Experiment,xx22w42,
14,training(35).webm,False,right,0,vcgpdm_dyn(20)-lvm(15)_final(1).webm,0,13,13,47,,,,,,,,10:17:47:470,10:17:48:041,10:17:51:045,right,10:17:51:762,,2012_Dec_31_1015,59.9507267311,MP-Perception Experiment,xx22w42,
15,training(18).webm,False,right,0,vgpdm_dyn(25)-lvm(20)_final(3).webm,0,14,14,79,,,,,,,,10:17:52:702,10:17:53:263,10:17:56:265,right,10:18:00:002,,2012_Dec_31_1015,59.9507267311,MP-Perception Experiment,xx22w42,
16,vgpdm_dyn(10)-lvm(30)_final(9).webm,True,left,0,training(24).webm,0,15,15,131,,,,,,,,10:18:00:759,10:18:01:503,10:18:04:505,left,10:18:07:058,,2012_Dec_31_1015,59.9507267311,MP-Perception Experiment,xx22w42,
17,tmp_numprim(6)_final(7).webm,True,left,0,training(24).webm,0,16,16,52,,,,,,,,10:18:08:003,10:18:08:559,10:18:11:562,left,10:18:13:247,,2012_Dec_31_1015,59.9507267311,MP-Perception Experiment,xx22w42,
18,vgpdm_dyn(10)-lvm(25)_final(3).webm,True,left,0,training(36).webm,0,17,17,96,,,,,,,,10:18:14:011,10:18:14:748,10:18:17:750,left,10:18:18:284,,2012_Dec_31_1015,59.9507267311,MP-Perception Experiment,xx22w42,
19,vgpdm_dyn(5)-lvm(15)_final(8).webm,False,left,0,training(9).webm,0,18,18,74,,,,,,,,10:18:19:232,10:18:19:785,10:18:22:788,left,10:18:22:804,,2012_Dec_31_1015,59.9507267311,MP-Perception Experiment,xx22w42,
20,training(23).webm,True,right,0,dmp_npsi(40)_final(2).webm,0,19,19,63,,,,,,,,10:18:23:746,10:18:24:320,10:18:27:307,left,10:18:27:624,,2012_Dec_31_1015,59.9507267311,MP-Perception Experiment,xx22w42,
21,vgpdm_dyn(10)-lvm(10)_final(1).webm,True,left,0,training(33).webm,0,20,20,54,,,,,,,,10:18:28:582,10:18:29:125,10:18:32:128,left,10:18:32:495,,2012_Dec_31_1015,59.9507267311,MP-Perception Experiment,xx22w42,
22,training(33).webm,False,right,0,vgpdm_dyn(25)-lvm(30)_final(9).webm,0,21,21,70,,,,,,,,10:18:33:439,10:18:33:996,10:18:36:983,left,10:18:38:068,,2012_Dec_31_1015,59.9507267311,MP-Perception Experiment,xx22w42,
23,vgpdm_dyn(35)-lvm(35)_final(7).webm,True,left,0,training(9).webm,0,22,22,4,,,,,,,,10:18:39:030,10:18:39:569,10:18:42:572,left,10:18:42:806,,2012_Dec_31_1015,59.9507267311,MP-Perception Experiment,xx22w42,
24,vgpdm_dyn(10)-lvm(10)_final(7).webm,True,left,0,training(4).webm,0,23,23,95,,,,,,,,10:18:43:742,10:18:44:307,10:18:47:310,left,10:18:47:810,,2012_Dec_31_1015,59.9507267311,MP-Perception Experiment,xx22w42,
25,training(27).webm,True,right,0,vcgpdm_dyn(10)-lvm(25)_final(4).webm,0,24,24,26,,,,,,,,10:18:48:742,10:18:49:311,10:18:52:313,right,10:18:52:731,,2012_Dec_31_1015,59.9507267311,MP-Perception Experiment,xx22w42,
26,training(3).webm,True,right,0,vcgpdm_dyn(35)-lvm(30)_final(4).webm,0,25,25,148,,,,,,,,10:18:53:692,10:18:54:232,10:18:57:234,right,10:18:57:818,,2012_Dec_31_1015,59.9507267311,MP-Perception Experiment,xx22w42,
27,training(48).webm,True,right,0,vgpdm_dyn(30)-lvm(20)_final(7).webm,0,26,26,87,,,,,,,,10:18:58:577,10:18:59:319,10:19:02:323,right,10:19:05:091,,2012_Dec_31_1015,59.9507267311,MP-Perception Experiment,xx22w42,
28,training(16).webm,False,right,0,vgpdm_dyn(25)-lvm(30)_final(2).webm,0,27,27,30,,,,,,,,10:19:05:908,10:19:06:593,10:19:09:595,right,10:19:10:779,,2012_Dec_31_1015,59.9507267311,MP-Perception Experiment,xx22w42,
29,training(41).webm,True,right,0,vgpdm_dyn(15)-lvm(15)_final(5).webm,0,28,28,139,,,,,,,,10:19:11:491,10:19:12:281,10:19:15:281,right,10:19:18:818,,2012_Dec_31_1015,59.9507267311,MP-Perception Experiment,xx22w42,
30,vgpdm_dyn(30)-lvm(10)_final(4).webm,True,left,0,training(7).webm,0,29,29,112,,,,,,,,10:19:19:670,10:19:20:320,10:19:23:322,left,10:19:23:939,,2012_Dec_31_1015,59.9507267311,MP-Perception Experiment,xx22w42,
31,vgpdm_dyn(35)-lvm(35)_final(9).webm,False,left,0,training(20).webm,0,30,30,137,,,,,,,,10:19:24:786,10:19:25:440,10:19:28:428,right,10:19:29:996,,2012_Dec_31_1015,59.9507267311,MP-Perception Experiment,xx22w42,
32,training(25).webm,True,right,0,vgpdm_dyn(20)-lvm(25)_final(9).webm,0,31,31,90,,,,,,,,10:19:30:676,10:19:31:497,10:19:34:500,right,10:19:35:218,,2012_Dec_31_1015,59.9507267311,MP-Perception Experiment,xx22w42,
33,training(6).webm,True,right,0,vgpdm_dyn(25)-lvm(20)_final(3).webm,0,32,32,43,,,,,,,,10:19:35:893,10:19:36:719,10:19:39:721,right,10:19:40:272,,2012_Dec_31_1015,59.9507267311,MP-Perception Experiment,xx22w42,
34,vcgpdm_dyn(30)-lvm(20)_final(7).webm,False,left,0,training(1).webm,0,33,33,102,,,,,,,,10:19:40:981,10:19:41:773,10:19:44:776,right,10:19:45:526,,2012_Dec_31_1015,59.9507267311,MP-Perception Experiment,xx22w42,
35,training(12).webm,True,right,0,map_cgpdm_final(3).webm,0,34,34,103,,,,,,,,10:19:46:209,10:19:47:027,10:19:50:030,right,10:19:50:413,,2012_Dec_31_1015,59.9507267311,MP-Perception Experiment,xx22w42,
36,training(11).webm,True,right,0,dmp_npsi(5)_final(4)_bad.webm,0,35,35,64,,,,,,,,10:19:51:093,10:19:51:915,10:19:54:918,right,10:19:55:518,,2012_Dec_31_1015,59.9507267311,MP-Perception Experiment,xx22w42,
37,training(19).webm,True,right,0,vcgpdm_dyn(20)-lvm(30)_final(2).webm,0,36,36,158,,,,,,,,10:19:56:195,10:19:57:020,10:20:00:022,right,10:20:00:523,,2012_Dec_31_1015,59.9507267311,MP-Perception Experiment,xx22w42,
38,training(35).webm,False,right,0,vcgpdm_dyn(20)-lvm(20)_final(5).webm,0,37,37,57,,,,,,,,10:20:01:200,10:20:02:024,10:20:05:024,right,10:20:05:775,,2012_Dec_31_1015,59.9507267311,MP-Perception Experiment,xx22w42,
39,training(21).webm,True,right,0,tmp_numprim(8)_final(0).webm,0,38,38,29,,,,,,,,10:20:06:455,10:20:07:276,10:20:10:280,left,10:20:10:446,,2012_Dec_31_1015,59.9507267311,MP-Perception Experiment,xx22w42,
40,training(11).webm,False,right,0,vgpdm_dyn(20)-lvm(35)_final(2).webm,0,39,39,143,,,,,,,,10:20:11:124,10:20:11:948,10:20:14:950,right,10:20:15:284,,2012_Dec_31_1015,59.9507267311,MP-Perception Experiment,xx22w42,
41,training(40).webm,True,right,0,vgpdm_dyn(30)-lvm(25)_final(7).webm,0,40,40,85,,,,,,,,10:20:15:966,10:20:16:785,10:20:19:772,left,10:20:20:590,,2012_Dec_31_1015,59.9507267311,MP-Perception Experiment,xx22w42,
42,training(15).webm,True,right,0,map_gpdm_final(3).webm,0,41,41,6,,,,,,,,10:20:21:364,10:20:22:091,10:20:25:093,right,10:20:26:061,,2012_Dec_31_1015,59.9507267311,MP-Perception Experiment,xx22w42,
43,training(27).webm,True,right,0,vgpdm_dyn(10)-lvm(20)_final(2).webm,0,42,42,13,,,,,,,,10:20:26:906,10:20:27:563,10:20:30:566,right,10:20:37:187,,2012_Dec_31_1015,59.9507267311,MP-Perception Experiment,xx22w42,
44,training(11).webm,True,right,0,vgpdm_dyn(30)-lvm(15)_final(7).webm,0,43,43,145,,,,,,,,10:20:38:013,10:20:38:689,10:20:41:691,right,10:20:42:308,,2012_Dec_31_1015,59.9507267311,MP-Perception Experiment,xx22w42,
45,training(15).webm,True,right,0,dmp_npsi(50)_final(8).webm,0,44,44,101,,,,,,,,10:20:43:153,10:20:43:809,10:20:46:813,right,10:20:56:969,,2012_Dec_31_1015,59.9507267311,MP-Perception Experiment,xx22w42,
46,training(4).webm,True,right,0,vgpdm_dyn(35)-lvm(25)_final(2).webm,0,45,45,15,,,,,,,,10:20:57:646,10:20:58:470,10:21:01:473,right,10:21:01:874,,2012_Dec_31_1015,59.9507267311,MP-Perception Experiment,xx22w42,
47,training(19).webm,False,right,0,map_cgpdm_final(0).webm,0,46,46,12,,,,,,,,10:21:02:723,10:21:03:375,10:21:06:363,right,10:21:06:430,,2012_Dec_31_1015,59.9507267311,MP-Perception Experiment,xx22w42,
48,vgpdm_dyn(30)-lvm(20)_final(8).webm,True,left,0,training(24).webm,0,47,47,76,,,,,,,,10:21:07:208,10:21:07:931,10:21:10:933,right,10:21:11:867,,2012_Dec_31_1015,59.9507267311,MP-Perception Experiment,xx22w42,
49,training(48).webm,True,right,0,vgpdm_dyn(20)-lvm(35)_final(6).webm,0,48,48,156,,,,,,,,10:21:12:677,10:21:13:369,10:21:16:371,right,10:21:16:805,,2012_Dec_31_1015,59.9507267311,MP-Perception Experiment,xx22w42,
50,vcgpdm_dyn(5)-lvm(10)_final(9).webm,True,left,0,training(10).webm,0,49,49,153,,,,,,,,10:21:17:544,10:21:18:306,10:21:21:309,left,10:21:21:826,,2012_Dec_31_1015,59.9507267311,MP-Perception Experiment,xx22w42,
51,tmp_numprim(8)_final(6).webm,False,left,0,training(1).webm,0,50,50,117,,,,,,,,10:21:22:656,10:21:23:328,10:21:26:330,right,10:21:27:965,,2012_Dec_31_1015,59.9507267311,MP-Perception Experiment,xx22w42,
52,training(37).webm,False,right,0,vcgpdm_dyn(35)-lvm(30)_final(9).webm,0,51,51,50,,,,,,,,10:21:28:640,10:21:29:466,10:21:32:468,right,10:21:33:286,,2012_Dec_31_1015,59.9507267311,MP-Perception Experiment,xx22w42,
53,training(12).webm,True,right,0,vcgpdm_dyn(5)-lvm(15)_final(1).webm,0,52,52,77,,,,,,,,10:21:33:967,10:21:34:787,10:21:37:790,left,10:21:44:594,,2012_Dec_31_1015,59.9507267311,MP-Perception Experiment,xx22w42,
54,training(29).webm,True,right,0,vcgpdm_dyn(30)-lvm(20)_final(7).webm,0,53,53,75,,,,,,,,10:21:45:265,10:21:46:095,10:21:49:098,left,10:21:49:748,,2012_Dec_31_1015,59.9507267311,MP-Perception Experiment,xx22w42,
55,vcgpdm_dyn(30)-lvm(20)_final(5).webm,False,left,0,training(31).webm,0,54,54,17,,,,,,,,10:21:50:526,10:21:51:249,10:21:54:253,left,10:21:54:553,,2012_Dec_31_1015,59.9507267311,MP-Perception Experiment,xx22w42,
56,training(29).webm,True,right,0,map_gpdm_final(0).webm,0,55,55,20,,,,,,,,10:21:55:397,10:21:56:056,10:21:59:042,right,10:21:59:476,,2012_Dec_31_1015,59.9507267311,MP-Perception Experiment,xx22w42,
57,tmp_numprim(5)_final(0).webm,True,left,0,training(38).webm,0,56,56,89,,,,,,,,10:22:00:284,10:22:00:977,10:22:03:979,left,10:22:04:897,,2012_Dec_31_1015,59.9507267311,MP-Perception Experiment,xx22w42,
58,vgpdm_dyn(30)-lvm(30)_final(3).webm,False,left,0,training(5).webm,0,57,57,46,,,,,,,,10:22:05:578,10:22:06:398,10:22:09:400,right,10:22:12:954,,2012_Dec_31_1015,59.9507267311,MP-Perception Experiment,xx22w42,
59,vcgpdm_dyn(35)-lvm(5)_final(5).webm,False,left,0,training(23).webm,0,58,58,16,,,,,,,,10:22:13:690,10:22:14:455,10:22:17:458,right,10:22:18:509,,2012_Dec_31_1015,59.9507267311,MP-Perception Experiment,xx22w42,
60,training(37).webm,False,right,0,vcgpdm_dyn(20)-lvm(30)_final(8).webm,0,59,59,45,,,,,,,,10:22:19:348,10:22:20:010,10:22:23:012,right,10:22:25:731,,2012_Dec_31_1015,59.9507267311,MP-Perception Experiment,xx22w42,
61,training(28).webm,False,right,0,vgpdm_dyn(20)-lvm(15)_final(7).webm,0,60,60,61,,,,,,,,10:22:26:408,10:22:27:232,10:22:30:236,right,10:22:34:854,,2012_Dec_31_1015,59.9507267311,MP-Perception Experiment,xx22w42,
62,vgpdm_dyn(15)-lvm(25)_final(6).webm,True,left,0,training(14).webm,0,61,61,60,,,,,,,,10:22:35:660,10:22:36:355,10:22:39:358,left,10:22:40:342,,2012_Dec_31_1015,59.9507267311,MP-Perception Experiment,xx22w42,
63,training(12).webm,False,right,0,vcgpdm_dyn(25)-lvm(5)_final(6).webm,0,62,62,9,,,,,,,,10:22:41:184,10:22:41:843,10:22:44:846,right,10:22:45:515,,2012_Dec_31_1015,59.9507267311,MP-Perception Experiment,xx22w42,
64,vgpdm_dyn(15)-lvm(35)_final(5).webm,True,left,0,training(28).webm,0,63,63,39,,,,,,,,10:22:46:193,10:22:47:017,10:22:50:019,left,10:22:50:603,,2012_Dec_31_1015,59.9507267311,MP-Perception Experiment,xx22w42,
65,training(33).webm,False,right,0,vcgpdm_dyn(5)-lvm(5)_final(3).webm,0,64,64,125,,,,,,,,10:22:51:306,10:22:52:104,10:22:55:107,right,10:22:55:557,,2012_Dec_31_1015,59.9507267311,MP-Perception Experiment,xx22w42,
66,training(35).webm,False,right,0,vgpdm_dyn(20)-lvm(35)_final(1).webm,0,65,65,114,,,,,,,,10:22:56:233,10:22:57:058,10:23:00:061,right,10:23:00:494,,2012_Dec_31_1015,59.9507267311,MP-Perception Experiment,xx22w42,
67,vgpdm_dyn(15)-lvm(35)_final(0).webm,True,left,0,training(22).webm,0,66,66,98,,,,,,,,10:23:01:330,10:23:01:995,10:23:04:999,left,10:23:07:835,,2012_Dec_31_1015,59.9507267311,MP-Perception Experiment,xx22w42,
68,vgpdm_dyn(35)-lvm(5)_final(0).webm,True,left,0,training(37).webm,0,67,67,31,,,,,,,,10:23:08:516,10:23:09:336,10:23:12:338,left,10:23:12:722,,2012_Dec_31_1015,59.9507267311,MP-Perception Experiment,xx22w42,
69,training(24).webm,False,right,0,vcgpdm_dyn(10)-lvm(35)_final(7).webm,0,68,68,23,,,,,,,,10:23:13:402,10:23:14:223,10:23:17:226,right,10:23:17:826,,2012_Dec_31_1015,59.9507267311,MP-Perception Experiment,xx22w42,
70,training(13).webm,True,right,0,tmp_numprim(3)_final(1).webm,0,69,69,40,,,,,,,,10:23:18:505,10:23:19:327,10:23:22:331,right,10:23:23:682,,2012_Dec_31_1015,59.9507267311,MP-Perception Experiment,xx22w42,
71,training(33).webm,False,right,0,vcgpdm_dyn(30)-lvm(5)_final(6).webm,0,70,70,10,,,,,,,,10:23:24:376,10:23:25:198,10:23:28:200,right,10:23:28:817,,2012_Dec_31_1015,59.9507267311,MP-Perception Experiment,xx22w42,
72,vcgpdm_dyn(15)-lvm(15)_final(2).webm,False,left,0,training(29).webm,0,71,71,106,,,,,,,,10:23:29:492,10:23:30:319,10:23:33:321,left,10:23:33:755,,2012_Dec_31_1015,59.9507267311,MP-Perception Experiment,xx22w42,
73,training(34).webm,False,right,0,map_gpdm_final(1).webm,0,72,72,69,,,,,,,,10:23:34:607,10:23:35:258,10:23:38:243,right,10:23:38:761,,2012_Dec_31_1015,59.9507267311,MP-Perception Experiment,xx22w42,
74,vcgpdm_dyn(30)-lvm(5)_final(7).webm,False,left,0,training(33).webm,0,73,73,99,,,,,,,,10:23:39:489,10:23:40:263,10:23:43:265,left,10:23:43:649,,2012_Dec_31_1015,59.9507267311,MP-Perception Experiment,xx22w42,
75,tmp_numprim(9)_final(4).webm,True,left,0,training(9).webm,0,74,74,94,,,,,,,,10:23:44:326,10:23:45:150,10:23:48:153,left,10:23:48:553,,2012_Dec_31_1015,59.9507267311,MP-Perception Experiment,xx22w42,
76,vcgpdm_dyn(5)-lvm(5)_final(2).webm,False,left,0,training(7).webm,0,75,75,123,,,,,,,,10:23:49:392,10:23:50:054,10:23:53:057,left,10:23:53:340,,2012_Dec_31_1015,59.9507267311,MP-Perception Experiment,xx22w42,
77,training(15).webm,False,right,0,vcgpdm_dyn(5)-lvm(20)_final(9).webm,0,76,76,140,,,,,,,,10:23:54:188,10:23:54:841,10:23:57:845,right,10:23:58:312,,2012_Dec_31_1015,59.9507267311,MP-Perception Experiment,xx22w42,
78,vgpdm_dyn(35)-lvm(35)_final(2).webm,False,left,0,training(25).webm,0,77,77,35,,,,,,,,10:23:58:991,10:23:59:813,10:24:02:815,right,10:24:03:399,,2012_Dec_31_1015,59.9507267311,MP-Perception Experiment,xx22w42,
79,training(21).webm,False,right,0,vgpdm_dyn(30)-lvm(10)_final(8).webm,0,78,78,28,,,,,,,,10:24:04:243,10:24:04:900,10:24:07:903,right,10:24:08:537,,2012_Dec_31_1015,59.9507267311,MP-Perception Experiment,xx22w42,
80,vcgpdm_dyn(20)-lvm(10)_final(3).webm,False,left,0,training(1).webm,0,79,79,82,,,,,,,,10:24:09:274,10:24:10:038,10:24:13:040,right,10:24:13:989,,2012_Dec_31_1015,59.9507267311,MP-Perception Experiment,xx22w42,
81,training(41).webm,True,right,0,vgpdm_dyn(15)-lvm(35)_final(3).webm,0,80,80,128,,,,,,,,10:24:14:835,10:24:15:491,10:24:18:494,left,10:24:18:844,,2012_Dec_31_1015,59.9507267311,MP-Perception Experiment,xx22w42,
82,vcgpdm_dyn(10)-lvm(25)_final(2).webm,True,left,0,training(38).webm,0,81,81,100,,,,,,,,10:24:19:590,10:24:20:345,10:24:23:348,left,10:24:24:015,,2012_Dec_31_1015,59.9507267311,MP-Perception Experiment,xx22w42,
83,vcgpdm_dyn(35)-lvm(10)_final(1).webm,True,left,0,training(2).webm,0,82,82,155,,,,,,,,10:24:24:831,10:24:25:518,10:24:28:504,right,10:24:29:154,,2012_Dec_31_1015,59.9507267311,MP-Perception Experiment,xx22w42,
84,vgpdm_dyn(5)-lvm(5)_final(8)_out_of_screen.webm,True,left,0,training(38).webm,0,83,83,56,,,,,,,,10:24:29:937,10:24:30:655,10:24:33:659,left,10:24:34:309,,2012_Dec_31_1015,59.9507267311,MP-Perception Experiment,xx22w42,
85,vcgpdm_dyn(5)-lvm(10)_final(8).webm,True,left,0,training(16).webm,0,84,84,7,,,,,,,,10:24:35:046,10:24:35:811,10:24:38:813,left,10:24:39:530,,2012_Dec_31_1015,59.9507267311,MP-Perception Experiment,xx22w42,
86,training(12).webm,False,right,0,vcgpdm_dyn(15)-lvm(10)_final(7).webm,0,85,85,92,,,,,,,,10:24:40:338,10:24:41:031,10:24:44:034,right,10:24:45:085,,2012_Dec_31_1015,59.9507267311,MP-Perception Experiment,xx22w42,
87,vcgpdm_dyn(30)-lvm(30)_final(0).webm,False,left,0,training(41).webm,0,86,86,24,,,,,,,,10:24:45:919,10:24:46:586,10:24:49:589,left,10:24:50:073,,2012_Dec_31_1015,59.9507267311,MP-Perception Experiment,xx22w42,
88,vgpdm_dyn(20)-lvm(15)_final(2).webm,True,left,0,training(40).webm,0,87,87,109,,,,,,,,10:24:50:796,10:24:51:574,10:24:54:577,left,10:24:54:894,,2012_Dec_31_1015,59.9507267311,MP-Perception Experiment,xx22w42,
89,tmp_numprim(7)_final(6).webm,False,left,0,training(18).webm,0,88,88,73,,,,,,,,10:24:55:594,10:24:56:395,10:24:59:397,left,10:24:59:731,,2012_Dec_31_1015,59.9507267311,MP-Perception Experiment,xx22w42,
90,vcgpdm_dyn(25)-lvm(30)_final(2).webm,True,left,0,training(17).webm,0,89,89,36,,,,,,,,10:25:00:418,10:25:01:232,10:25:04:233,right,10:25:04:683,,2012_Dec_31_1015,59.9507267311,MP-Perception Experiment,xx22w42,
91,vcgpdm_dyn(20)-lvm(5)_final(3).webm,True,left,0,training(37).webm,0,90,90,154,,,,,,,,10:25:05:530,10:25:06:184,10:25:09:188,left,10:25:09:655,,2012_Dec_31_1015,59.9507267311,MP-Perception Experiment,xx22w42,
92,vcgpdm_dyn(15)-lvm(10)_final(7).webm,True,left,0,training(3).webm,0,91,91,93,,,,,,,,10:25:10:331,10:25:11:156,10:25:14:158,left,10:25:15:159,,2012_Dec_31_1015,59.9507267311,MP-Perception Experiment,xx22w42,
93,training(29).webm,True,right,0,vcgpdm_dyn(10)-lvm(30)_final(9).webm,0,92,92,3,,,,,,,,10:25:16:000,10:25:16:660,10:25:19:648,right,10:25:20:082,,2012_Dec_31_1015,59.9507267311,MP-Perception Experiment,xx22w42,
94,vcgpdm_dyn(15)-lvm(5)_final(2).webm,True,left,0,training(25).webm,0,93,93,127,,,,,,,,10:25:20:759,10:25:21:583,10:25:24:586,left,10:25:25:187,,2012_Dec_31_1015,59.9507267311,MP-Perception Experiment,xx22w42,
95,training(2).webm,True,right,0,vgpdm_dyn(25)-lvm(5)_final(7).webm,0,94,94,130,,,,,,,,10:25:26:036,10:25:26:688,10:25:29:690,right,10:25:30:157,,2012_Dec_31_1015,59.9507267311,MP-Perception Experiment,xx22w42,
96,vcgpdm_dyn(25)-lvm(15)_final(5).webm,True,left,0,training(24).webm,0,95,95,110,,,,,,,,10:25:30:921,10:25:31:659,10:25:34:661,left,10:25:35:378,,2012_Dec_31_1015,59.9507267311,MP-Perception Experiment,xx22w42,
97,vgpdm_dyn(30)-lvm(5)_final(7).webm,False,left,0,training(24).webm,0,96,96,151,,,,,,,,10:25:36:120,10:25:36:879,10:25:39:882,left,10:25:44:403,,2012_Dec_31_1015,59.9507267311,MP-Perception Experiment,xx22w42,
98,map_gpdm_final(9).webm,True,left,0,training(14).webm,0,97,97,111,,,,,,,,10:25:45:079,10:25:45:904,10:25:48:907,left,10:25:50:208,,2012_Dec_31_1015,59.9507267311,MP-Perception Experiment,xx22w42,
99,training(13).webm,True,right,0,vcgpdm_dyn(35)-lvm(5)_final(6).webm,0,98,98,126,,,,,,,,10:25:50:886,10:25:51:709,10:25:54:710,left,10:25:54:793,,2012_Dec_31_1015,59.9507267311,MP-Perception Experiment,xx22w42,
100,vgpdm_dyn(15)-lvm(35)_final(5).webm,False,left,0,training(21).webm,0,99,99,83,,,,,,,,10:25:55:466,10:25:56:294,10:25:59:298,right,10:25:59:915,,2012_Dec_31_1015,59.9507267311,MP-Perception Experiment,xx22w42,
101,vgpdm_dyn(15)-lvm(10)_final(5)_out_of_screen.webm,False,left,0,training(39).webm,0,100,100,71,,,,,,,,10:26:00:793,10:26:01:416,10:26:04:419,left,10:26:05:254,,2012_Dec_31_1015,59.9507267311,MP-Perception Experiment,xx22w42,
102,vcgpdm_dyn(20)-lvm(35)_final(0).webm,False,left,0,training(34).webm,0,101,101,38,,,,,,,,10:26:05:934,10:26:06:756,10:26:09:758,left,10:26:10:242,,2012_Dec_31_1015,59.9507267311,MP-Perception Experiment,xx22w42,
103,vcgpdm_dyn(10)-lvm(25)_final(5).webm,False,left,0,training(18).webm,0,102,102,141,,,,,,,,10:26:10:981,10:26:11:743,10:26:14:746,left,10:26:15:296,,2012_Dec_31_1015,59.9507267311,MP-Perception Experiment,xx22w42,
104,training(5).webm,True,right,0,tmp_numprim(10)_final(7).webm,0,103,103,104,,,,,,,,10:26:16:136,10:26:16:798,10:26:19:801,right,10:26:20:368,,2012_Dec_31_1015,59.9507267311,MP-Perception Experiment,xx22w42,
105,vcgpdm_dyn(20)-lvm(30)_final(6).webm,False,left,0,training(8).webm,0,104,104,144,,,,,,,,10:26:21:214,10:26:21:869,10:26:24:871,left,10:26:25:255,,2012_Dec_31_1015,59.9507267311,MP-Perception Experiment,xx22w42,
106,training(40).webm,True,right,0,vgpdm_dyn(10)-lvm(15)_final(2).webm,0,105,105,66,,,,,,,,10:26:26:095,10:26:26:756,10:26:29:759,right,10:26:47:155,,2012_Dec_31_1015,59.9507267311,MP-Perception Experiment,xx22w42,
107,vcgpdm_dyn(25)-lvm(5)_final(5).webm,False,left,0,training(35).webm,0,106,106,72,,,,,,,,10:26:47:915,10:26:48:656,10:26:51:660,left,10:26:52:143,,2012_Dec_31_1015,59.9507267311,MP-Perception Experiment,xx22w42,
108,training(17).webm,False,right,0,vgpdm_dyn(35)-lvm(10)_final(3).webm,0,107,107,5,,,,,,,,10:26:52:983,10:26:53:645,10:26:56:632,right,10:26:57:483,,2012_Dec_31_1015,59.9507267311,MP-Perception Experiment,xx22w42,
109,training(22).webm,True,right,0,vcgpdm_dyn(30)-lvm(35)_final(1).webm,0,108,108,41,,,,,,,,10:26:58:157,10:26:58:984,10:27:01:987,right,10:27:02:620,,2012_Dec_31_1015,59.9507267311,MP-Perception Experiment,xx22w42,
110,training(36).webm,False,right,0,vcgpdm_dyn(15)-lvm(5)_final(7).webm,0,109,109,80,,,,,,,,10:27:03:326,10:27:04:121,10:27:07:124,right,10:27:07:791,,2012_Dec_31_1015,59.9507267311,MP-Perception Experiment,xx22w42,
111,vgpdm_dyn(20)-lvm(5)_final(0).webm,False,left,0,training(40).webm,0,110,110,135,,,,,,,,10:27:08:517,10:27:09:293,10:27:12:296,left,10:27:12:713,,2012_Dec_31_1015,59.9507267311,MP-Perception Experiment,xx22w42,
112,training(35).webm,False,right,0,vcgpdm_dyn(30)-lvm(35)_final(0).webm,0,111,111,58,,,,,,,,10:27:13:554,10:27:14:214,10:27:17:217,left,10:27:17:617,,2012_Dec_31_1015,59.9507267311,MP-Perception Experiment,xx22w42,
113,training(15).webm,False,right,0,dmp_npsi(35)_final(1).webm,0,112,112,19,,,,,,,,10:27:18:291,10:27:19:118,10:27:22:121,right,10:27:26:240,,2012_Dec_31_1015,59.9507267311,MP-Perception Experiment,xx22w42,
114,vcgpdm_dyn(20)-lvm(15)_final(1).webm,True,left,0,training(32).webm,0,113,113,115,,,,,,,,10:27:26:909,10:27:27:743,10:27:30:745,left,10:27:31:095,,2012_Dec_31_1015,59.9507267311,MP-Perception Experiment,xx22w42,
115,training(18).webm,False,right,0,tmp_numprim(2)_final(5).webm,0,114,114,157,,,,,,,,10:27:31:939,10:27:32:596,10:27:35:597,right,10:27:36:248,,2012_Dec_31_1015,59.9507267311,MP-Perception Experiment,xx22w42,
116,vcgpdm_dyn(5)-lvm(25)_final(1).webm,False,left,0,training(24).webm,0,115,115,136,,,,,,,,10:27:36:974,10:27:37:749,10:27:40:751,left,10:27:41:952,,2012_Dec_31_1015,59.9507267311,MP-Perception Experiment,xx22w42,
117,vcgpdm_dyn(15)-lvm(35)_final(7).webm,True,left,0,training(41).webm,0,116,116,33,,,,,,,,10:27:42:685,10:27:43:453,10:27:46:442,left,10:27:47:326,,2012_Dec_31_1015,59.9507267311,MP-Perception Experiment,xx22w42,
118,training(36).webm,True,right,0,vgpdm_dyn(35)-lvm(30)_final(7).webm,0,117,117,121,,,,,,,,10:27:48:168,10:27:48:827,10:27:51:830,right,10:27:52:497,,2012_Dec_31_1015,59.9507267311,MP-Perception Experiment,xx22w42,
119,training(6).webm,False,right,0,vgpdm_dyn(25)-lvm(5)_final(9).webm,0,118,118,149,,,,,,,,10:27:53:323,10:27:53:998,10:27:57:001,right,10:27:57:384,,2012_Dec_31_1015,59.9507267311,MP-Perception Experiment,xx22w42,
120,training(15).webm,True,right,0,vcgpdm_dyn(25)-lvm(30)_final(7).webm,0,119,119,105,,,,,,,,10:27:58:056,10:27:58:885,10:28:01:889,right,10:28:02:189,,2012_Dec_31_1015,59.9507267311,MP-Perception Experiment,xx22w42,
121,training(37).webm,False,right,0,vcgpdm_dyn(10)-lvm(15)_final(2).webm,0,120,120,8,,,,,,,,10:28:03:016,10:28:03:690,10:28:06:693,right,10:28:07:143,,2012_Dec_31_1015,59.9507267311,MP-Perception Experiment,xx22w42,
122,training(34).webm,True,right,0,vgpdm_dyn(15)-lvm(15)_final(0).webm,0,121,121,22,,,,,,,,10:28:08:000,10:28:08:644,10:28:11:647,left,10:28:18:519,,2012_Dec_31_1015,59.9507267311,MP-Perception Experiment,xx22w42,
123,training(17).webm,False,right,0,vgpdm_dyn(10)-lvm(20)_final(7).webm,0,122,122,37,,,,,,,,10:28:19:190,10:28:20:021,10:28:23:024,right,10:28:24:590,,2012_Dec_31_1015,59.9507267311,MP-Perception Experiment,xx22w42,
124,training(27).webm,True,right,0,vcgpdm_dyn(30)-lvm(10)_final(9).webm,0,123,123,107,,,,,,,,10:28:25:269,10:28:26:091,10:28:29:093,right,10:28:29:727,,2012_Dec_31_1015,59.9507267311,MP-Perception Experiment,xx22w42,
125,vcgpdm_dyn(25)-lvm(30)_final(7).webm,True,left,0,training(4).webm,0,124,124,2,,,,,,,,10:28:30:397,10:28:31:228,10:28:34:231,left,10:28:36:535,,2012_Dec_31_1015,59.9507267311,MP-Perception Experiment,xx22w42,
126,vgpdm_dyn(35)-lvm(35)_final(9).webm,False,left,0,training(25).webm,0,125,125,25,,,,,,,,10:28:37:207,10:28:38:037,10:28:41:039,left,10:28:41:790,,2012_Dec_31_1015,59.9507267311,MP-Perception Experiment,xx22w42,
127,training(32).webm,True,right,0,vgpdm_dyn(10)-lvm(20)_final(7).webm,0,126,126,147,,,,,,,,10:28:42:460,10:28:43:291,10:28:46:293,right,10:28:57:854,,2012_Dec_31_1015,59.9507267311,MP-Perception Experiment,xx22w42,
128,vcgpdm_dyn(35)-lvm(30)_final(5).webm,True,left,0,training(39).webm,0,127,127,65,,,,,,,,10:28:58:531,10:28:59:355,10:29:02:357,left,10:29:03:458,,2012_Dec_31_1015,59.9507267311,MP-Perception Experiment,xx22w42,
129,vcgpdm_dyn(30)-lvm(5)_final(6).webm,False,left,0,training(29).webm,0,128,128,27,,,,,,,,10:29:04:131,10:29:04:959,10:29:07:962,left,10:29:08:429,,2012_Dec_31_1015,59.9507267311,MP-Perception Experiment,xx22w42,
130,vcgpdm_dyn(20)-lvm(5)_final(7).webm,True,left,0,training(2).webm,0,129,129,68,,,,,,,,10:29:09:125,10:29:09:930,10:29:12:934,left,10:29:14:016,,2012_Dec_31_1015,59.9507267311,MP-Perception Experiment,xx22w42,
131,training(31).webm,False,right,0,vcgpdm_dyn(10)-lvm(10)_final(5).webm,0,130,130,134,,,,,,,,10:29:14:695,10:29:15:517,10:29:18:520,right,10:29:19:037,,2012_Dec_31_1015,59.9507267311,MP-Perception Experiment,xx22w42,
132,training(20).webm,True,right,0,vgpdm_dyn(20)-lvm(35)_final(5).webm,0,131,131,124,,,,,,,,10:29:19:720,10:29:20:538,10:29:23:540,right,10:29:24:057,,2012_Dec_31_1015,59.9507267311,MP-Perception Experiment,xx22w42,
133,training(48).webm,True,right,0,vgpdm_dyn(10)-lvm(30)_final(4).webm,0,132,132,21,,,,,,,,10:29:24:735,10:29:25:560,10:29:28:546,right,10:29:29:598,,2012_Dec_31_1015,59.9507267311,MP-Perception Experiment,xx22w42,
134,training(5).webm,True,right,0,vcgpdm_dyn(10)-lvm(10)_final(0).webm,0,133,133,119,,,,,,,,10:29:30:276,10:29:31:099,10:29:34:102,right,10:29:34:502,,2012_Dec_31_1015,59.9507267311,MP-Perception Experiment,xx22w42,
135,training(30).webm,True,right,0,vcgpdm_dyn(30)-lvm(15)_final(8).webm,0,134,134,0,,,,,,,,10:29:35:182,10:29:36:003,10:29:39:006,left,10:29:39:973,,2012_Dec_31_1015,59.9507267311,MP-Perception Experiment,xx22w42,
136,training(12).webm,True,right,0,vgpdm_dyn(35)-lvm(35)_final(9).webm,0,135,135,129,,,,,,,,10:29:40:642,10:29:41:474,10:29:44:477,right,10:29:45:044,,2012_Dec_31_1015,59.9507267311,MP-Perception Experiment,xx22w42,
137,training(20).webm,True,right,0,vcgpdm_dyn(15)-lvm(20)_final(2).webm,0,136,136,44,,,,,,,,10:29:45:719,10:29:46:546,10:29:49:548,left,10:29:53:685,,2012_Dec_31_1015,59.9507267311,MP-Perception Experiment,xx22w42,
138,vcgpdm_dyn(15)-lvm(20)_final(4).webm,False,left,0,training(29).webm,0,137,137,84,,,,,,,,10:29:54:531,10:29:55:186,10:29:58:189,left,10:29:58:522,,2012_Dec_31_1015,59.9507267311,MP-Perception Experiment,xx22w42,
139,training(12).webm,False,right,0,dmp_npsi(30)_final(3).webm,0,138,138,18,,,,,,,,10:29:59:199,10:30:00:024,10:30:03:026,right,10:30:03:576,,2012_Dec_31_1015,59.9507267311,MP-Perception Experiment,xx22w42,
140,vcgpdm_dyn(15)-lvm(35)_final(1).webm,False,left,0,training(15).webm,0,139,139,49,,,,,,,,10:30:04:271,10:30:05:093,10:30:08:096,left,10:30:08:463,,2012_Dec_31_1015,59.9507267311,MP-Perception Experiment,xx22w42,
141,vcgpdm_dyn(25)-lvm(25)_final(3).webm,False,left,0,training(14).webm,0,140,140,11,,,,,,,,10:30:09:214,10:30:09:964,10:30:12:967,left,10:30:14:751,,2012_Dec_31_1015,59.9507267311,MP-Perception Experiment,xx22w42,
142,vgpdm_dyn(30)-lvm(15)_final(7).webm,True,left,0,training(37).webm,0,141,141,81,,,,,,,,10:30:15:423,10:30:16:254,10:30:19:257,right,10:30:24:796,,2012_Dec_31_1015,59.9507267311,MP-Perception Experiment,xx22w42,
143,training(5).webm,False,right,0,dmp_npsi(15)_final(9).webm,0,142,142,88,,,,,,,,10:30:25:641,10:30:26:297,10:30:29:299,right,10:30:29:900,,2012_Dec_31_1015,59.9507267311,MP-Perception Experiment,xx22w42,
144,dmp_npsi(30)_final(3).webm,True,left,0,training(2).webm,0,143,143,59,,,,,,,,10:30:30:570,10:30:31:401,10:30:34:403,left,10:30:34:870,,2012_Dec_31_1015,59.9507267311,MP-Perception Experiment,xx22w42,
145,vgpdm_dyn(15)-lvm(5)_final(0).webm,True,left,0,training(14).webm,0,144,144,142,,,,,,,,10:30:35:637,10:30:36:371,10:30:39:375,left,10:30:39:909,,2012_Dec_31_1015,59.9507267311,MP-Perception Experiment,xx22w42,
146,training(25).webm,False,right,0,vcgpdm_dyn(30)-lvm(20)_final(9).webm,0,145,145,51,,,,,,,,10:30:40:748,10:30:41:410,10:30:44:412,right,10:30:44:863,,2012_Dec_31_1015,59.9507267311,MP-Perception Experiment,xx22w42,
147,vcgpdm_dyn(20)-lvm(35)_final(9).webm,True,left,0,training(33).webm,0,146,146,53,,,,,,,,10:30:45:626,10:30:46:364,10:30:49:366,right,10:30:49:917,,2012_Dec_31_1015,59.9507267311,MP-Perception Experiment,xx22w42,
148,training(36).webm,False,right,0,vgpdm_dyn(5)-lvm(30)_final(8).webm,0,147,147,55,,,,,,,,10:30:50:743,10:30:51:418,10:30:54:419,right,10:30:54:886,,2012_Dec_31_1015,59.9507267311,MP-Perception Experiment,xx22w42,
149,training(1).webm,False,right,0,vcgpdm_dyn(10)-lvm(5)_final(6).webm,0,148,148,120,,,,,,,,10:30:55:728,10:30:56:388,10:30:59:390,right,10:31:00:007,,2012_Dec_31_1015,59.9507267311,MP-Perception Experiment,xx22w42,
150,vcgpdm_dyn(25)-lvm(30)_final(7).webm,False,left,0,training(28).webm,0,149,149,150,,,,,,,,10:31:00:681,10:31:01:509,10:31:04:511,right,10:31:05:078,,2012_Dec_31_1015,59.9507267311,MP-Perception Experiment,xx22w42,
151,training(35).webm,False,right,0,vcgpdm_dyn(10)-lvm(15)_final(3).webm,0,150,150,14,,,,,,,,10:31:05:925,10:31:06:579,10:31:09:567,right,10:31:10:034,,2012_Dec_31_1015,59.9507267311,MP-Perception Experiment,xx22w42,
152,training(15).webm,True,right,0,vcgpdm_dyn(20)-lvm(20)_final(8).webm,0,151,151,133,,,,,,,,10:31:10:882,10:31:11:535,10:31:14:539,left,10:31:15:790,,2012_Dec_31_1015,59.9507267311,MP-Perception Experiment,xx22w42,
153,tmp_numprim(5)_final(8).webm,False,left,0,training(19).webm,0,152,152,146,,,,,,,,10:31:16:467,10:31:17:291,10:31:20:293,left,10:31:20:727,,2012_Dec_31_1015,59.9507267311,MP-Perception Experiment,xx22w42,
154,vcgpdm_dyn(10)-lvm(10)_final(3).webm,True,left,0,training(22).webm,0,153,153,62,,,,,,,,10:31:21:484,10:31:22:228,10:31:25:231,right,10:31:25:698,,2012_Dec_31_1015,59.9507267311,MP-Perception Experiment,xx22w42,
155,vcgpdm_dyn(15)-lvm(25)_final(0).webm,False,left,0,training(38).webm,0,154,154,97,,,,,,,,10:31:26:373,10:31:27:199,10:31:30:201,left,10:31:30:518,,2012_Dec_31_1015,59.9507267311,MP-Perception Experiment,xx22w42,
156,vcgpdm_dyn(10)-lvm(30)_final(9).webm,False,left,0,training(40).webm,0,155,155,1,,,,,,,,10:31:31:191,10:31:32:020,10:31:35:023,left,10:31:35:373,,2012_Dec_31_1015,59.9507267311,MP-Perception Experiment,xx22w42,
157,training(20).webm,False,right,0,vgpdm_dyn(20)-lvm(35)_final(7).webm,0,156,156,108,,,,,,,,10:31:36:180,10:31:36:874,10:31:39:877,left,10:31:40:277,,2012_Dec_31_1015,59.9507267311,MP-Perception Experiment,xx22w42,
158,vgpdm_dyn(30)-lvm(30)_final(0).webm,True,left,0,training(10).webm,0,157,157,91,,,,,,,,10:31:41:052,10:31:41:778,10:31:44:779,right,10:31:46:914,,2012_Dec_31_1015,59.9507267311,MP-Perception Experiment,xx22w42,
159,training(39).webm,True,right,0,vcgpdm_dyn(5)-lvm(15)_final(8).webm,0,158,158,152,,,,,,,,10:31:47:593,10:31:48:415,10:31:51:419,right,10:32:10:086,,2012_Dec_31_1015,59.9507267311,MP-Perception Experiment,xx22w42,
160,training(34).webm,True,right,1,vcgpdm_dyn(5)-lvm(25)_final(9).webm,0,0,0,98,,,,,,,,10:36:08:374,10:36:09:209,10:36:12:196,right,10:36:12:746,,2012_Dec_31_1015,59.9507267311,MP-Perception Experiment,xx22w42,
161,training(35).webm,True,right,1,vgpdm_dyn(25)-lvm(30)_final(2).webm,0,1,1,156,,,,,,,,10:36:13:419,10:36:14:247,10:36:17:250,left,10:36:18:534,,2012_Dec_31_1015,59.9507267311,MP-Perception Experiment,xx22w42,
162,vcgpdm_dyn(25)-lvm(25)_final(9).webm,False,left,1,training(25).webm,0,2,2,39,,,,,,,,10:36:19:173,10:36:20:035,10:36:23:038,right,10:36:25:690,,2012_Dec_31_1015,59.9507267311,MP-Perception Experiment,xx22w42,
163,training(48).webm,True,right,1,tmp_numprim(2)_final(8).webm,0,3,3,0,,,,,,,,10:36:26:531,10:36:27:191,10:36:30:195,right,10:36:31:579,,2012_Dec_31_1015,59.9507267311,MP-Perception Experiment,xx22w42,
164,dmp_npsi(25)_final(7).webm,False,left,1,training(15).webm,0,4,4,44,,,,,,,,10:36:32:256,10:36:33:080,10:36:36:083,left,10:36:43:656,,2012_Dec_31_1015,59.9507267311,MP-Perception Experiment,xx22w42,
165,training(25).webm,False,right,1,vcgpdm_dyn(30)-lvm(25)_final(0).webm,0,5,5,149,,,,,,,,10:36:44:346,10:36:45:172,10:36:48:175,right,10:36:48:442,,2012_Dec_31_1015,59.9507267311,MP-Perception Experiment,xx22w42,
166,map_cgpdm_final(7).webm,False,left,1,training(10).webm,0,6,6,126,,,,,,,,10:36:49:121,10:36:49:943,10:36:52:946,left,10:36:53:296,,2012_Dec_31_1015,59.9507267311,MP-Perception Experiment,xx22w42,
167,vgpdm_dyn(30)-lvm(35)_final(4).webm,True,left,1,training(15).webm,0,7,7,66,,,,,,,,10:36:53:968,10:36:54:797,10:36:57:785,left,10:36:57:951,,2012_Dec_31_1015,59.9507267311,MP-Perception Experiment,xx22w42,
168,vgpdm_dyn(20)-lvm(30)_final(6).webm,False,left,1,training(27).webm,0,8,8,12,,,,,,,,10:36:58:630,10:36:59:453,10:37:02:455,right,10:37:02:839,,2012_Dec_31_1015,59.9507267311,MP-Perception Experiment,xx22w42,
169,training(28).webm,False,right,1,vgpdm_dyn(15)-lvm(20)_final(7)_out_of_screen.webm,0,9,9,81,,,,,,,,10:37:03:534,10:37:04:341,10:37:07:343,right,10:37:07:927,,2012_Dec_31_1015,59.9507267311,MP-Perception Experiment,xx22w42,
170,vgpdm_dyn(5)-lvm(25)_final(8)_out_of_screen.webm,True,left,1,training(24).webm,0,10,10,4,,,,,,,,10:37:08:687,10:37:09:428,10:37:12:431,left,10:37:12:497,,2012_Dec_31_1015,59.9507267311,MP-Perception Experiment,xx22w42,
171,vgpdm_dyn(15)-lvm(25)_final(5).webm,True,left,1,training(1).webm,0,11,11,59,,,,,,,,10:37:13:341,10:37:13:999,10:37:17:001,left,10:37:17:251,,2012_Dec_31_1015,59.9507267311,MP-Perception Experiment,xx22w42,
172,vgpdm_dyn(10)-lvm(35)_final(3).webm,False,left,1,training(18).webm,0,12,12,132,,,,,,,,10:37:18:018,10:37:18:752,10:37:21:756,left,10:37:22:206,,2012_Dec_31_1015,59.9507267311,MP-Perception Experiment,xx22w42,
173,training(4).webm,True,right,1,vcgpdm_dyn(25)-lvm(20)_final(5).webm,0,13,13,153,,,,,,,,10:37:23:049,10:37:23:707,10:37:26:710,left,10:37:27:127,,2012_Dec_31_1015,59.9507267311,MP-Perception Experiment,xx22w42,
174,training(11).webm,True,right,1,vgpdm_dyn(5)-lvm(20)_final(5).webm,0,14,14,140,,,,,,,,10:37:27:934,10:37:28:628,10:37:31:631,left,10:37:31:931,,2012_Dec_31_1015,59.9507267311,MP-Perception Experiment,xx22w42,
175,vgpdm_dyn(5)-lvm(20)_final(4).webm,True,left,1,training(0).webm,0,15,15,75,,,,,,,,10:37:32:777,10:37:33:432,10:37:36:433,right,10:37:42:522,,2012_Dec_31_1015,59.9507267311,MP-Perception Experiment,xx22w42,
176,training(2).webm,False,right,1,map_gpdm_final(4).webm,0,16,16,15,,,,,,,,10:37:43:197,10:37:44:023,10:37:47:026,right,10:37:47:426,,2012_Dec_31_1015,59.9507267311,MP-Perception Experiment,xx22w42,
177,vcgpdm_dyn(20)-lvm(15)_final(8).webm,True,left,1,training(18).webm,0,17,17,53,,,,,,,,10:37:48:245,10:37:48:929,10:37:51:931,left,10:37:52:332,,2012_Dec_31_1015,59.9507267311,MP-Perception Experiment,xx22w42,
178,vcgpdm_dyn(25)-lvm(15)_final(9).webm,False,left,1,training(0).webm,0,18,18,18,,,,,,,,10:37:53:064,10:37:53:833,10:37:56:836,right,10:37:58:071,,2012_Dec_31_1015,59.9507267311,MP-Perception Experiment,xx22w42,
179,vcgpdm_dyn(15)-lvm(5)_final(7).webm,False,left,1,training(30).webm,0,19,19,94,,,,,,,,10:37:58:755,10:37:59:572,10:38:02:574,right,10:38:02:975,,2012_Dec_31_1015,59.9507267311,MP-Perception Experiment,xx22w42,
180,vgpdm_dyn(10)-lvm(25)_final(7).webm,True,left,1,training(34).webm,0,20,20,32,,,,,,,,10:38:03:827,10:38:04:476,10:38:07:478,left,10:38:07:962,,2012_Dec_31_1015,59.9507267311,MP-Perception Experiment,xx22w42,
181,vgpdm_dyn(10)-lvm(15)_final(7).webm,False,left,1,training(11).webm,0,21,21,87,,,,,,,,10:38:08:699,10:38:09:463,10:38:12:466,right,10:38:12:866,,2012_Dec_31_1015,59.9507267311,MP-Perception Experiment,xx22w42,
182,vgpdm_dyn(10)-lvm(20)_final(7).webm,False,left,1,training(36).webm,0,22,22,97,,,,,,,,10:38:13:543,10:38:14:368,10:38:17:371,left,10:38:19:906,,2012_Dec_31_1015,59.9507267311,MP-Perception Experiment,xx22w42,
183,map_gpdm_final(5).webm,False,left,1,training(9).webm,0,23,23,158,,,,,,,,10:38:20:586,10:38:21:407,10:38:24:408,left,10:38:24:908,,2012_Dec_31_1015,59.9507267311,MP-Perception Experiment,xx22w42,
184,training(35).webm,False,right,1,vcgpdm_dyn(10)-lvm(25)_final(6).webm,0,24,24,122,,,,,,,,10:38:25:594,10:38:26:409,10:38:29:412,right,10:38:30:146,,2012_Dec_31_1015,59.9507267311,MP-Perception Experiment,xx22w42,
185,tmp_numprim(4)_final(4).webm,False,left,1,training(26).webm,0,25,25,123,,,,,,,,10:38:30:865,10:38:31:648,10:38:34:650,left,10:38:35:201,,2012_Dec_31_1015,59.9507267311,MP-Perception Experiment,xx22w42,
186,training(15).webm,False,right,1,dmp_npsi(35)_final(1).webm,0,26,26,73,,,,,,,,10:38:35:922,10:38:36:704,10:38:39:706,right,10:38:40:040,,2012_Dec_31_1015,59.9507267311,MP-Perception Experiment,xx22w42,
187,vgpdm_dyn(35)-lvm(10)_final(0).webm,False,left,1,training(33).webm,0,27,27,105,,,,,,,,10:38:40:753,10:38:41:541,10:38:44:544,right,10:38:44:977,,2012_Dec_31_1015,59.9507267311,MP-Perception Experiment,xx22w42,
188,training(17).webm,True,right,1,dmp_npsi(15)_final(2).webm,0,28,28,96,,,,,,,,10:38:45:674,10:38:46:478,10:38:49:482,right,10:38:50:282,,2012_Dec_31_1015,59.9507267311,MP-Perception Experiment,xx22w42,
189,training(8).webm,False,right,1,vcgpdm_dyn(25)-lvm(25)_final(7).webm,0,29,29,29,,,,,,,,10:38:50:975,10:38:51:783,10:38:54:786,right,10:38:55:603,,2012_Dec_31_1015,59.9507267311,MP-Perception Experiment,xx22w42,
190,vcgpdm_dyn(35)-lvm(15)_final(0)_out_of_screen.webm,False,left,1,training(3).webm,0,30,30,120,,,,,,,,10:38:56:298,10:38:57:104,10:39:00:107,left,10:39:00:491,,2012_Dec_31_1015,59.9507267311,MP-Perception Experiment,xx22w42,
191,training(5).webm,True,right,1,vgpdm_dyn(20)-lvm(15)_final(0).webm,0,31,31,10,,,,,,,,10:39:01:202,10:39:01:992,10:39:04:994,right,10:39:05:461,,2012_Dec_31_1015,59.9507267311,MP-Perception Experiment,xx22w42,
192,vgpdm_dyn(20)-lvm(5)_final(3).webm,False,left,1,training(39).webm,0,32,32,46,,,,,,,,10:39:06:209,10:39:06:963,10:39:09:966,left,10:39:11:417,,2012_Dec_31_1015,59.9507267311,MP-Perception Experiment,xx22w42,
193,training(34).webm,True,right,1,vgpdm_dyn(20)-lvm(30)_final(1).webm,0,33,33,102,,,,,,,,10:39:12:112,10:39:12:918,10:39:15:919,right,10:39:18:621,,2012_Dec_31_1015,59.9507267311,MP-Perception Experiment,xx22w42,
194,training(39).webm,False,right,1,vcgpdm_dyn(5)-lvm(20)_final(1).webm,0,34,34,109,,,,,,,,10:39:19:319,10:39:20:122,10:39:23:125,right,10:39:23:760,,2012_Dec_31_1015,59.9507267311,MP-Perception Experiment,xx22w42,
195,vgpdm_dyn(25)-lvm(5)_final(4).webm,False,left,1,training(22).webm,0,35,35,76,,,,,,,,10:39:24:530,10:39:25:261,10:39:28:248,left,10:39:28:966,,2012_Dec_31_1015,59.9507267311,MP-Perception Experiment,xx22w42,
196,tmp_numprim(10)_final(7).webm,True,left,1,training(21).webm,0,36,36,108,,,,,,,,10:39:29:643,10:39:30:467,10:39:33:469,left,10:39:37:456,,2012_Dec_31_1015,59.9507267311,MP-Perception Experiment,xx22w42,
197,vcgpdm_dyn(20)-lvm(20)_final(1).webm,True,left,1,training(23).webm,0,37,37,142,,,,,,,,10:39:38:141,10:39:38:957,10:39:41:961,left,10:39:42:461,,2012_Dec_31_1015,59.9507267311,MP-Perception Experiment,xx22w42,
198,vgpdm_dyn(35)-lvm(20)_final(1)_out_of_screen.webm,False,left,1,training(29).webm,0,38,38,143,,,,,,,,10:39:43:144,10:39:43:962,10:39:46:965,left,10:39:47:298,,2012_Dec_31_1015,59.9507267311,MP-Perception Experiment,xx22w42,
199,training(0).webm,False,right,1,vgpdm_dyn(5)-lvm(20)_final(4).webm,0,39,39,43,,,,,,,,10:39:47:977,10:39:48:799,10:39:51:802,right,10:39:52:502,,2012_Dec_31_1015,59.9507267311,MP-Perception Experiment,xx22w42,
200,training(5).webm,False,right,1,vcgpdm_dyn(5)-lvm(5)_final(3).webm,0,40,40,95,,,,,,,,10:39:53:183,10:39:54:003,10:39:57:006,right,10:39:57:390,,2012_Dec_31_1015,59.9507267311,MP-Perception Experiment,xx22w42,
201,vgpdm_dyn(30)-lvm(35)_final(7).webm,False,left,1,training(14).webm,0,41,41,129,,,,,,,,10:39:58:087,10:39:58:892,10:40:01:894,right,10:40:07:414,,2012_Dec_31_1015,59.9507267311,MP-Perception Experiment,xx22w42,
202,training(34).webm,True,right,1,vcgpdm_dyn(10)-lvm(5)_final(7).webm,0,42,42,155,,,,,,,,10:40:08:294,10:40:08:915,10:40:11:917,left,10:40:28:700,,2012_Dec_31_1015,59.9507267311,MP-Perception Experiment,xx22w42,
203,dmp_npsi(15)_final(6).webm,False,left,1,training(30).webm,0,43,43,42,,,,,,,,10:40:29:514,10:40:30:201,10:40:33:205,left,10:40:38:843,,2012_Dec_31_1015,59.9507267311,MP-Perception Experiment,xx22w42,
204,vgpdm_dyn(35)-lvm(5)_final(7).webm,True,left,1,training(1).webm,0,44,44,147,,,,,,,,10:40:39:671,10:40:40:344,10:40:43:346,left,10:40:45:698,,2012_Dec_31_1015,59.9507267311,MP-Perception Experiment,xx22w42,
205,training(34).webm,False,right,1,vcgpdm_dyn(25)-lvm(20)_final(2).webm,0,45,45,117,,,,,,,,10:40:46:391,10:40:47:199,10:40:50:202,left,10:40:50:485,,2012_Dec_31_1015,59.9507267311,MP-Perception Experiment,xx22w42,
206,vcgpdm_dyn(15)-lvm(35)_final(7).webm,False,left,1,training(0).webm,0,46,46,83,,,,,,,,10:40:51:160,10:40:51:988,10:40:54:988,left,10:40:55:339,,2012_Dec_31_1015,59.9507267311,MP-Perception Experiment,xx22w42,
207,vcgpdm_dyn(15)-lvm(15)_final(1).webm,False,left,1,training(7).webm,0,47,47,85,,,,,,,,10:40:56:066,10:40:56:840,10:40:59:842,left,10:41:00:459,,2012_Dec_31_1015,59.9507267311,MP-Perception Experiment,xx22w42,
208,vgpdm_dyn(30)-lvm(15)_final(7).webm,False,left,1,training(20).webm,0,48,48,60,,,,,,,,10:41:01:134,10:41:01:960,10:41:04:963,left,10:41:20:929,,2012_Dec_31_1015,59.9507267311,MP-Perception Experiment,xx22w42,
209,vgpdm_dyn(15)-lvm(25)_final(3).webm,True,left,1,training(40).webm,0,49,49,111,,,,,,,,10:41:21:666,10:41:22:430,10:41:25:432,left,10:41:32:489,,2012_Dec_31_1015,59.9507267311,MP-Perception Experiment,xx22w42,
210,training(36).webm,True,right,1,dmp_npsi(45)_final(9).webm,0,50,50,114,,,,,,,,10:41:33:171,10:41:33:990,10:41:36:993,left,10:41:57:327,,2012_Dec_31_1015,59.9507267311,MP-Perception Experiment,xx22w42,
211,training(27).webm,False,right,1,vcgpdm_dyn(20)-lvm(25)_final(4).webm,0,51,51,27,,,,,,,,10:41:58:144,10:41:58:828,10:42:01:831,right,10:42:03:516,,2012_Dec_31_1015,59.9507267311,MP-Perception Experiment,xx22w42,
212,training(3).webm,False,right,1,vgpdm_dyn(15)-lvm(5)_final(4).webm,0,52,52,52,,,,,,,,10:42:04:198,10:42:05:017,10:42:08:020,right,10:42:12:190,,2012_Dec_31_1015,59.9507267311,MP-Perception Experiment,xx22w42,
213,vcgpdm_dyn(30)-lvm(25)_final(0).webm,True,left,1,training(21).webm,0,53,53,36,,,,,,,,10:42:12:865,10:42:13:691,10:42:16:693,left,10:42:21:415,,2012_Dec_31_1015,59.9507267311,MP-Perception Experiment,xx22w42,
214,vgpdm_dyn(35)-lvm(10)_final(1).webm,False,left,1,training(8).webm,0,54,54,146,,,,,,,,10:42:22:262,10:42:22:916,10:42:25:919,left,10:42:26:385,,2012_Dec_31_1015,59.9507267311,MP-Perception Experiment,xx22w42,
215,vcgpdm_dyn(5)-lvm(10)_final(6).webm,True,left,1,training(22).webm,0,55,55,48,,,,,,,,10:42:27:154,10:42:27:887,10:42:30:889,left,10:42:31:473,,2012_Dec_31_1015,59.9507267311,MP-Perception Experiment,xx22w42,
216,tmp_numprim(4)_final(7).webm,False,left,1,training(13).webm,0,56,56,101,,,,,,,,10:42:32:317,10:42:32:974,10:42:35:976,left,10:42:36:493,,2012_Dec_31_1015,59.9507267311,MP-Perception Experiment,xx22w42,
217,vgpdm_dyn(20)-lvm(25)_final(0).webm,False,left,1,training(40).webm,0,57,57,8,,,,,,,,10:42:37:232,10:42:37:994,10:42:40:996,left,10:42:41:380,,2012_Dec_31_1015,59.9507267311,MP-Perception Experiment,xx22w42,
218,training(18).webm,False,right,1,vgpdm_dyn(10)-lvm(25)_final(6).webm,0,58,58,131,,,,,,,,10:42:42:224,10:42:42:881,10:42:45:884,right,10:42:52:808,,2012_Dec_31_1015,59.9507267311,MP-Perception Experiment,xx22w42,
219,training(37).webm,True,right,1,vcgpdm_dyn(20)-lvm(25)_final(0).webm,0,59,59,135,,,,,,,,10:42:53:619,10:42:54:310,10:42:57:312,right,10:43:00:799,,2012_Dec_31_1015,59.9507267311,MP-Perception Experiment,xx22w42,
220,vgpdm_dyn(25)-lvm(35)_final(5).webm,True,left,1,training(39).webm,0,60,60,28,,,,,,,,10:43:01:523,10:43:02:300,10:43:05:302,left,10:43:06:887,,2012_Dec_31_1015,59.9507267311,MP-Perception Experiment,xx22w42,
221,dmp_npsi(40)_final(2).webm,False,left,1,training(33).webm,0,61,61,58,,,,,,,,10:43:07:560,10:43:08:388,10:43:11:392,left,10:43:13:543,,2012_Dec_31_1015,59.9507267311,MP-Perception Experiment,xx22w42,
222,vgpdm_dyn(20)-lvm(35)_final(5).webm,False,left,1,training(22).webm,0,62,62,38,,,,,,,,10:43:14:218,10:43:15:044,10:43:18:047,left,10:43:33:308,,2012_Dec_31_1015,59.9507267311,MP-Perception Experiment,xx22w42,
223,training(1).webm,False,right,1,vcgpdm_dyn(35)-lvm(25)_final(5).webm,0,63,63,6,,,,,,,,10:43:34:176,10:43:34:809,10:43:37:797,right,10:43:38:281,,2012_Dec_31_1015,59.9507267311,MP-Perception Experiment,xx22w42,
224,vcgpdm_dyn(15)-lvm(10)_final(3).webm,False,left,1,training(24).webm,0,64,64,86,,,,,,,,10:43:38:965,10:43:39:782,10:43:42:785,right,10:43:43:752,,2012_Dec_31_1015,59.9507267311,MP-Perception Experiment,xx22w42,
225,vgpdm_dyn(10)-lvm(10)_final(4).webm,True,left,1,training(21).webm,0,65,65,118,,,,,,,,10:43:44:432,10:43:45:253,10:43:48:257,right,10:43:58:682,,2012_Dec_31_1015,59.9507267311,MP-Perception Experiment,xx22w42,
226,training(19).webm,True,right,1,vcgpdm_dyn(35)-lvm(5)_final(4).webm,0,66,66,82,,,,,,,,10:43:59:494,10:44:00:183,10:44:03:186,right,10:44:06:923,,2012_Dec_31_1015,59.9507267311,MP-Perception Experiment,xx22w42,
227,training(28).webm,False,right,1,vcgpdm_dyn(20)-lvm(30)_final(8).webm,0,67,67,26,,,,,,,,10:44:07:596,10:44:08:424,10:44:11:426,right,10:44:12:661,,2012_Dec_31_1015,59.9507267311,MP-Perception Experiment,xx22w42,
228,vgpdm_dyn(35)-lvm(25)_final(8).webm,False,left,1,training(10).webm,0,68,68,56,,,,,,,,10:44:13:505,10:44:14:177,10:44:17:162,left,10:44:17:629,,2012_Dec_31_1015,59.9507267311,MP-Perception Experiment,xx22w42,
229,vgpdm_dyn(5)-lvm(10)_final(9).webm,True,left,1,training(2).webm,0,69,69,64,,,,,,,,10:44:18:352,10:44:19:131,10:44:22:134,left,10:44:22:451,,2012_Dec_31_1015,59.9507267311,MP-Perception Experiment,xx22w42,
230,vcgpdm_dyn(35)-lvm(5)_final(5).webm,True,left,1,training(1).webm,0,70,70,37,,,,,,,,10:44:23:129,10:44:23:952,10:44:26:940,left,10:44:27:423,,2012_Dec_31_1015,59.9507267311,MP-Perception Experiment,xx22w42,
231,training(33).webm,True,right,1,vgpdm_dyn(5)-lvm(30)_final(1).webm,0,71,71,67,,,,,,,,10:44:28:279,10:44:28:925,10:44:31:927,right,10:44:36:931,,2012_Dec_31_1015,59.9507267311,MP-Perception Experiment,xx22w42,
232,vgpdm_dyn(35)-lvm(5)_final(4).webm,True,left,1,training(8).webm,0,72,72,13,,,,,,,,10:44:37:637,10:44:38:433,10:44:41:436,left,10:44:42:420,,2012_Dec_31_1015,59.9507267311,MP-Perception Experiment,xx22w42,
233,vcgpdm_dyn(10)-lvm(35)_final(8).webm,False,left,1,training(33).webm,0,73,73,62,,,,,,,,10:44:43:098,10:44:43:921,10:44:46:924,left,10:44:50:009,,2012_Dec_31_1015,59.9507267311,MP-Perception Experiment,xx22w42,
234,tmp_numprim(8)_final(2).webm,True,left,1,training(20).webm,0,74,74,107,,,,,,,,10:44:50:690,10:44:51:510,10:44:54:513,left,10:45:00:886,,2012_Dec_31_1015,59.9507267311,MP-Perception Experiment,xx22w42,
235,training(34).webm,False,right,1,vgpdm_dyn(20)-lvm(5)_final(4).webm,0,75,75,78,,,,,,,,10:45:01:732,10:45:02:387,10:45:05:388,right,10:45:05:588,,2012_Dec_31_1015,59.9507267311,MP-Perception Experiment,xx22w42,
236,training(39).webm,True,right,1,vgpdm_dyn(5)-lvm(10)_final(3).webm,0,76,76,116,,,,,,,,10:45:06:267,10:45:07:089,10:45:10:091,right,10:45:11:426,,2012_Dec_31_1015,59.9507267311,MP-Perception Experiment,xx22w42,
237,vcgpdm_dyn(15)-lvm(25)_final(8).webm,True,left,1,training(28).webm,0,77,77,144,,,,,,,,10:45:12:265,10:45:12:928,10:45:15:931,left,10:45:25:373,,2012_Dec_31_1015,59.9507267311,MP-Perception Experiment,xx22w42,
238,vgpdm_dyn(30)-lvm(20)_final(9).webm,False,left,1,training(10).webm,0,78,78,84,,,,,,,,10:45:26:099,10:45:26:874,10:45:29:877,right,10:45:42:238,,2012_Dec_31_1015,59.9507267311,MP-Perception Experiment,xx22w42,
239,vgpdm_dyn(20)-lvm(30)_final(8).webm,True,left,1,training(23).webm,0,79,79,90,,,,,,,,10:45:42:938,10:45:43:739,10:45:46:742,left,10:45:48:277,,2012_Dec_31_1015,59.9507267311,MP-Perception Experiment,xx22w42,
240,vcgpdm_dyn(30)-lvm(25)_final(4).webm,False,left,1,training(8).webm,0,80,80,139,,,,,,,,10:45:48:961,10:45:49:778,10:45:52:781,left,10:45:54:180,,2012_Dec_31_1015,59.9507267311,MP-Perception Experiment,xx22w42,
241,training(21).webm,False,right,1,dmp_npsi(50)_final(7).webm,0,81,81,9,,,,,,,,10:45:54:860,10:45:55:681,10:45:58:684,left,10:46:00:101,,2012_Dec_31_1015,59.9507267311,MP-Perception Experiment,xx22w42,
242,training(23).webm,False,right,1,vcgpdm_dyn(35)-lvm(20)_final(9).webm,0,82,82,152,,,,,,,,10:46:00:784,10:46:01:603,10:46:04:605,right,10:46:07:093,,2012_Dec_31_1015,59.9507267311,MP-Perception Experiment,xx22w42,
243,vgpdm_dyn(15)-lvm(30)_final(5).webm,True,left,1,training(8).webm,0,83,83,106,,,,,,,,10:46:07:939,10:46:08:594,10:46:11:597,left,10:46:14:449,,2012_Dec_31_1015,59.9507267311,MP-Perception Experiment,xx22w42,
244,vgpdm_dyn(30)-lvm(10)_final(6).webm,True,left,1,training(41).webm,0,84,84,31,,,,,,,,10:46:15:129,10:46:15:950,10:46:18:953,left,10:46:30:363,,2012_Dec_31_1015,59.9507267311,MP-Perception Experiment,xx22w42,
245,vgpdm_dyn(30)-lvm(25)_final(0).webm,False,left,1,training(6).webm,0,85,85,11,,,,,,,,10:46:31:045,10:46:31:864,10:46:34:867,right,10:46:43:892,,2012_Dec_31_1015,59.9507267311,MP-Perception Experiment,xx22w42,
246,tmp_numprim(9)_final(8).webm,False,left,1,training(10).webm,0,86,86,88,,,,,,,,10:46:44:671,10:46:45:408,10:46:48:410,right,10:47:21:090,,2012_Dec_31_1015,59.9507267311,MP-Perception Experiment,xx22w42,
247,training(36).webm,False,right,1,vcgpdm_dyn(10)-lvm(35)_final(0).webm,0,87,87,125,,,,,,,,10:47:21:899,10:47:22:591,10:47:25:594,right,10:47:32:566,,2012_Dec_31_1015,59.9507267311,MP-Perception Experiment,xx22w42,
248,training(14).webm,True,right,1,dmp_npsi(20)_final(9).webm,0,88,88,100,,,,,,,,10:47:33:244,10:47:34:083,10:47:37:069,right,10:47:38:120,,2012_Dec_31_1015,59.9507267311,MP-Perception Experiment,xx22w42,
249,vgpdm_dyn(10)-lvm(5)_final(0).webm,False,left,1,training(18).webm,0,89,89,104,,,,,,,,10:47:38:799,10:47:39:621,10:47:42:624,left,10:47:52:001,,2012_Dec_31_1015,59.9507267311,MP-Perception Experiment,xx22w42,
250,vcgpdm_dyn(15)-lvm(25)_final(9).webm,False,left,1,training(26).webm,0,90,90,47,,,,,,,,10:47:52:748,10:47:53:502,10:47:56:504,left,10:47:57:388,,2012_Dec_31_1015,59.9507267311,MP-Perception Experiment,xx22w42,
251,vcgpdm_dyn(15)-lvm(20)_final(1).webm,False,left,1,training(35).webm,0,91,91,34,,,,,,,,10:47:58:071,10:47:58:889,10:48:01:892,left,10:48:02:776,,2012_Dec_31_1015,59.9507267311,MP-Perception Experiment,xx22w42,
252,vgpdm_dyn(20)-lvm(30)_final(2).webm,False,left,1,training(18).webm,0,92,92,113,,,,,,,,10:48:03:460,10:48:04:277,10:48:07:280,right,10:48:14:253,,2012_Dec_31_1015,59.9507267311,MP-Perception Experiment,xx22w42,
253,training(23).webm,True,right,1,vgpdm_dyn(30)-lvm(35)_final(0).webm,0,93,93,130,,,,,,,,10:48:14:937,10:48:15:754,10:48:18:757,right,10:48:24:209,,2012_Dec_31_1015,59.9507267311,MP-Perception Experiment,xx22w42,
254,vgpdm_dyn(5)-lvm(10)_final(6).webm,False,left,1,training(35).webm,0,94,94,154,,,,,,,,10:48:24:977,10:48:25:711,10:48:28:714,left,10:48:29:464,,2012_Dec_31_1015,59.9507267311,MP-Perception Experiment,xx22w42,
255,vgpdm_dyn(15)-lvm(35)_final(7).webm,True,left,1,training(48).webm,0,95,95,89,,,,,,,,10:48:30:185,10:48:30:965,10:48:33:968,left,10:48:36:522,,2012_Dec_31_1015,59.9507267311,MP-Perception Experiment,xx22w42,
256,vcgpdm_dyn(20)-lvm(5)_final(0).webm,False,left,1,training(18).webm,0,96,96,57,,,,,,,,10:48:37:204,10:48:38:023,10:48:41:026,left,10:48:41:709,,2012_Dec_31_1015,59.9507267311,MP-Perception Experiment,xx22w42,
257,training(32).webm,True,right,1,vgpdm_dyn(30)-lvm(5)_final(2).webm,0,97,97,138,,,,,,,,10:48:42:390,10:48:43:211,10:48:46:214,right,10:49:01:494,,2012_Dec_31_1015,59.9507267311,MP-Perception Experiment,xx22w42,
258,vgpdm_dyn(35)-lvm(30)_final(7).webm,True,left,1,training(18).webm,0,98,98,30,,,,,,,,10:49:02:171,10:49:02:995,10:49:05:998,right,10:49:06:498,,2012_Dec_31_1015,59.9507267311,MP-Perception Experiment,xx22w42,
259,training(8).webm,False,right,1,vgpdm_dyn(30)-lvm(5)_final(1).webm,0,99,99,128,,,,,,,,10:49:07:351,10:49:07:999,10:49:11:002,right,10:49:11:385,,2012_Dec_31_1015,59.9507267311,MP-Perception Experiment,xx22w42,
260,tmp_numprim(10)_final(0).webm,False,left,1,training(4).webm,0,100,100,40,,,,,,,,10:49:12:126,10:49:12:886,10:49:15:887,left,10:49:16:237,,2012_Dec_31_1015,59.9507267311,MP-Perception Experiment,xx22w42,
261,training(13).webm,False,right,1,vcgpdm_dyn(20)-lvm(35)_final(3).webm,0,101,101,141,,,,,,,,10:49:17:080,10:49:17:740,10:49:20:742,right,10:49:21:209,,2012_Dec_31_1015,59.9507267311,MP-Perception Experiment,xx22w42,
262,vcgpdm_dyn(10)-lvm(5)_final(9).webm,True,left,1,training(15).webm,0,102,102,61,,,,,,,,10:49:21:941,10:49:22:710,10:49:25:698,left,10:49:26:115,,2012_Dec_31_1015,59.9507267311,MP-Perception Experiment,xx22w42,
263,vgpdm_dyn(30)-lvm(20)_final(3).webm,True,left,1,training(28).webm,0,103,103,112,,,,,,,,10:49:26:865,10:49:27:616,10:49:30:619,left,10:49:31:386,,2012_Dec_31_1015,59.9507267311,MP-Perception Experiment,xx22w42,
264,training(1).webm,False,right,1,tmp_numprim(4)_final(0).webm,0,104,104,134,,,,,,,,10:49:32:234,10:49:32:887,10:49:35:890,right,10:49:37:725,,2012_Dec_31_1015,59.9507267311,MP-Perception Experiment,xx22w42,
265,training(2).webm,False,right,1,vgpdm_dyn(15)-lvm(15)_final(8).webm,0,105,105,79,,,,,,,,10:49:38:402,10:49:39:226,10:49:42:229,right,10:49:42:746,,2012_Dec_31_1015,59.9507267311,MP-Perception Experiment,xx22w42,
266,vcgpdm_dyn(35)-lvm(20)_final(9).webm,False,left,1,training(30).webm,0,106,106,121,,,,,,,,10:49:43:420,10:49:44:247,10:49:47:250,right,10:49:47:783,,2012_Dec_31_1015,59.9507267311,MP-Perception Experiment,xx22w42,
267,training(29).webm,True,right,1,vgpdm_dyn(10)-lvm(30)_final(8).webm,0,107,107,124,,,,,,,,10:49:48:591,10:49:49:284,10:49:52:287,right,10:49:52:922,,2012_Dec_31_1015,59.9507267311,MP-Perception Experiment,xx22w42,
268,vcgpdm_dyn(15)-lvm(20)_final(5).webm,False,left,1,training(40).webm,0,108,108,7,,,,,,,,10:49:53:701,10:49:54:423,10:49:57:426,left,10:49:58:360,,2012_Dec_31_1015,59.9507267311,MP-Perception Experiment,xx22w42,
269,training(20).webm,False,right,1,dmp_npsi(40)_final(0).webm,0,109,109,19,,,,,,,,10:49:59:041,10:49:59:861,10:50:02:863,right,10:50:09:700,,2012_Dec_31_1015,59.9507267311,MP-Perception Experiment,xx22w42,
270,training(35).webm,False,right,1,dmp_npsi(10)_final(9)_bad.webm,0,110,110,91,,,,,,,,10:50:10:395,10:50:11:202,10:50:14:205,right,10:50:14:622,,2012_Dec_31_1015,59.9507267311,MP-Perception Experiment,xx22w42,
271,training(22).webm,True,right,1,vcgpdm_dyn(20)-lvm(5)_final(3).webm,0,111,111,5,,,,,,,,10:50:15:296,10:50:16:125,10:50:19:111,right,10:50:19:711,,2012_Dec_31_1015,59.9507267311,MP-Perception Experiment,xx22w42,
272,training(25).webm,True,right,1,vcgpdm_dyn(25)-lvm(10)_final(8).webm,0,112,112,21,,,,,,,,10:50:20:559,10:50:21:212,10:50:24:215,right,10:50:36:709,,2012_Dec_31_1015,59.9507267311,MP-Perception Experiment,xx22w42,
273,tmp_numprim(5)_final(6).webm,True,left,1,training(2).webm,0,113,113,22,,,,,,,,10:50:37:386,10:50:38:210,10:50:41:213,left,10:50:42:030,,2012_Dec_31_1015,59.9507267311,MP-Perception Experiment,xx22w42,
274,vgpdm_dyn(5)-lvm(15)_final(4).webm,True,left,1,training(22).webm,0,114,114,136,,,,,,,,10:50:42:711,10:50:43:531,10:50:46:535,left,10:50:48:053,,2012_Dec_31_1015,59.9507267311,MP-Perception Experiment,xx22w42,
275,vgpdm_dyn(30)-lvm(5)_final(2).webm,False,left,1,training(20).webm,0,115,115,69,,,,,,,,10:50:48:730,10:50:49:554,10:50:52:556,right,10:51:00:511,,2012_Dec_31_1015,59.9507267311,MP-Perception Experiment,xx22w42,
276,vgpdm_dyn(20)-lvm(20)_final(2).webm,True,left,1,training(6).webm,0,116,116,137,,,,,,,,10:51:01:236,10:51:02:012,10:51:05:016,right,10:51:07:036,,2012_Dec_31_1015,59.9507267311,MP-Perception Experiment,xx22w42,
277,training(21).webm,False,right,1,dmp_npsi(45)_final(4).webm,0,117,117,151,,,,,,,,10:51:07:717,10:51:08:537,10:51:11:539,right,10:51:12:206,,2012_Dec_31_1015,59.9507267311,MP-Perception Experiment,xx22w42,
278,vgpdm_dyn(10)-lvm(5)_final(1).webm,True,left,1,training(2).webm,0,118,118,93,,,,,,,,10:51:12:957,10:51:13:708,10:51:16:710,left,10:51:49:203,,2012_Dec_31_1015,59.9507267311,MP-Perception Experiment,xx22w42,
279,training(6).webm,False,right,1,map_cgpdm_final(5).webm,0,119,119,103,,,,,,,,10:51:50:050,10:51:50:704,10:51:53:707,right,10:51:55:528,,2012_Dec_31_1015,59.9507267311,MP-Perception Experiment,xx22w42,
280,tmp_numprim(3)_final(1).webm,False,left,1,training(11).webm,0,120,120,127,,,,,,,,10:51:56:204,10:51:57:029,10:52:00:031,left,10:52:00:365,,2012_Dec_31_1015,59.9507267311,MP-Perception Experiment,xx22w42,
281,training(36).webm,True,right,1,vgpdm_dyn(10)-lvm(5)_final(7).webm,0,121,121,65,,,,,,,,10:52:01:047,10:52:01:866,10:52:04:869,left,10:52:08:321,,2012_Dec_31_1015,59.9507267311,MP-Perception Experiment,xx22w42,
282,vcgpdm_dyn(30)-lvm(25)_final(5).webm,False,left,1,training(21).webm,0,122,122,1,,,,,,,,10:52:09:046,10:52:09:823,10:52:12:826,right,10:52:13:527,,2012_Dec_31_1015,59.9507267311,MP-Perception Experiment,xx22w42,
283,training(27).webm,False,right,1,vcgpdm_dyn(5)-lvm(20)_final(1).webm,0,123,123,23,,,,,,,,10:52:14:202,10:52:15:028,10:52:18:030,right,10:52:18:614,,2012_Dec_31_1015,59.9507267311,MP-Perception Experiment,xx22w42,
284,training(13).webm,False,right,1,vgpdm_dyn(25)-lvm(10)_final(8)_out_of_screen.webm,0,124,124,3,,,,,,,,10:52:19:447,10:52:20:115,10:52:23:118,right,10:52:23:535,,2012_Dec_31_1015,59.9507267311,MP-Perception Experiment,xx22w42,
285,vcgpdm_dyn(25)-lvm(35)_final(9).webm,False,left,1,training(10).webm,0,125,125,55,,,,,,,,10:52:24:221,10:52:25:036,10:52:28:038,right,10:52:28:322,,2012_Dec_31_1015,59.9507267311,MP-Perception Experiment,xx22w42,
286,vgpdm_dyn(10)-lvm(15)_final(7).webm,True,left,1,training(41).webm,0,126,126,119,,,,,,,,10:52:28:998,10:52:29:823,10:52:32:827,right,10:52:54:245,,2012_Dec_31_1015,59.9507267311,MP-Perception Experiment,xx22w42,
287,vcgpdm_dyn(25)-lvm(5)_final(2).webm,False,left,1,training(10).webm,0,127,127,33,,,,,,,,10:52:54:989,10:52:55:746,10:52:58:749,right,10:53:00:049,,2012_Dec_31_1015,59.9507267311,MP-Perception Experiment,xx22w42,
288,vgpdm_dyn(30)-lvm(10)_final(4).webm,False,left,1,training(35).webm,0,128,128,71,,,,,,,,10:53:00:724,10:53:01:551,10:53:04:553,left,10:53:04:920,,2012_Dec_31_1015,59.9507267311,MP-Perception Experiment,xx22w42,
289,training(12).webm,False,right,1,vcgpdm_dyn(20)-lvm(30)_final(6).webm,0,129,129,70,,,,,,,,10:53:05:597,10:53:06:422,10:53:09:425,right,10:53:09:775,,2012_Dec_31_1015,59.9507267311,MP-Perception Experiment,xx22w42,
290,training(11).webm,True,right,1,dmp_npsi(20)_final(2).webm,0,130,130,45,,,,,,,,10:53:10:625,10:53:11:276,10:53:14:278,right,10:53:14:829,,2012_Dec_31_1015,59.9507267311,MP-Perception Experiment,xx22w42,
291,training(33).webm,True,right,1,vgpdm_dyn(20)-lvm(30)_final(2).webm,0,131,131,133,,,,,,,,10:53:15:503,10:53:16:330,10:53:19:333,left,10:53:19:666,,2012_Dec_31_1015,59.9507267311,MP-Perception Experiment,xx22w42,
292,vgpdm_dyn(5)-lvm(35)_final(2)_bad.webm,False,left,1,training(13).webm,0,132,132,20,,,,,,,,10:53:20:423,10:53:21:167,10:53:24:169,left,10:53:28:439,,2012_Dec_31_1015,59.9507267311,MP-Perception Experiment,xx22w42,
293,training(35).webm,True,right,1,vcgpdm_dyn(15)-lvm(15)_final(2).webm,0,133,133,41,,,,,,,,10:53:29:116,10:53:29:940,10:53:32:943,right,10:53:33:660,,2012_Dec_31_1015,59.9507267311,MP-Perception Experiment,xx22w42,
294,vgpdm_dyn(10)-lvm(25)_final(7).webm,True,left,1,training(48).webm,0,134,134,150,,,,,,,,10:53:34:330,10:53:35:161,10:53:38:149,left,10:53:40:168,,2012_Dec_31_1015,59.9507267311,MP-Perception Experiment,xx22w42,
295,vcgpdm_dyn(5)-lvm(10)_final(7).webm,True,left,1,training(31).webm,0,135,135,115,,,,,,,,10:53:40:847,10:53:41:669,10:53:44:672,left,10:53:44:939,,2012_Dec_31_1015,59.9507267311,MP-Perception Experiment,xx22w42,
296,training(13).webm,False,right,1,vcgpdm_dyn(35)-lvm(10)_final(9).webm,0,136,136,51,,,,,,,,10:53:45:625,10:53:46:440,10:53:49:442,right,10:53:49:793,,2012_Dec_31_1015,59.9507267311,MP-Perception Experiment,xx22w42,
297,training(31).webm,False,right,1,vgpdm_dyn(10)-lvm(15)_final(4).webm,0,137,137,72,,,,,,,,10:53:50:479,10:53:51:294,10:53:54:296,right,10:53:54:630,,2012_Dec_31_1015,59.9507267311,MP-Perception Experiment,xx22w42,
298,vgpdm_dyn(20)-lvm(20)_final(2).webm,False,left,1,training(15).webm,0,138,138,157,,,,,,,,10:53:55:307,10:53:56:131,10:53:59:135,right,10:53:59:735,,2012_Dec_31_1015,59.9507267311,MP-Perception Experiment,xx22w42,
299,training(21).webm,True,right,1,vcgpdm_dyn(20)-lvm(25)_final(4).webm,0,139,139,63,,,,,,,,10:54:00:410,10:54:01:236,10:54:04:239,right,10:54:04:539,,2012_Dec_31_1015,59.9507267311,MP-Perception Experiment,xx22w42,
300,dmp_npsi(20)_final(9).webm,True,left,1,training(32).webm,0,140,140,17,,,,,,,,10:54:05:215,10:54:06:040,10:54:09:042,left,10:54:09:343,,2012_Dec_31_1015,59.9507267311,MP-Perception Experiment,xx22w42,
301,dmp_npsi(30)_final(6).webm,True,left,1,training(12).webm,0,141,141,77,,,,,,,,10:54:10:172,10:54:10:844,10:54:13:846,left,10:54:14:161,,2012_Dec_31_1015,59.9507267311,MP-Perception Experiment,xx22w42,
302,map_gpdm_final(8).webm,False,left,1,training(19).webm,0,142,142,92,,,,,,,,10:54:14:978,10:54:15:664,10:54:18:666,left,10:54:19:200,,2012_Dec_31_1015,59.9507267311,MP-Perception Experiment,xx22w42,
303,map_cgpdm_final(4).webm,False,left,1,training(4).webm,0,143,143,145,,,,,,,,10:54:19:935,10:54:20:701,10:54:23:704,left,10:54:23:970,,2012_Dec_31_1015,59.9507267311,MP-Perception Experiment,xx22w42,
304,training(32).webm,True,right,1,vgpdm_dyn(20)-lvm(20)_final(3).webm,0,144,144,148,,,,,,,,10:54:24:820,10:54:25:473,10:54:28:459,left,10:54:28:826,,2012_Dec_31_1015,59.9507267311,MP-Perception Experiment,xx22w42,
305,vgpdm_dyn(35)-lvm(5)_final(2).webm,False,left,1,training(18).webm,0,145,145,2,,,,,,,,10:54:29:578,10:54:30:327,10:54:33:331,right,10:54:33:698,,2012_Dec_31_1015,59.9507267311,MP-Perception Experiment,xx22w42,
306,training(24).webm,False,right,1,vcgpdm_dyn(5)-lvm(15)_final(3).webm,0,146,146,80,,,,,,,,10:54:34:543,10:54:35:199,10:54:38:201,right,10:54:38:852,,2012_Dec_31_1015,59.9507267311,MP-Perception Experiment,xx22w42,
307,map_cgpdm_final(9).webm,False,left,1,training(15).webm,0,147,147,24,,,,,,,,10:54:39:594,10:54:40:353,10:54:43:356,left,10:54:43:606,,2012_Dec_31_1015,59.9507267311,MP-Perception Experiment,xx22w42,
308,training(16).webm,True,right,1,tmp_numprim(7)_final(4).webm,0,148,148,14,,,,,,,,10:54:44:439,10:54:45:107,10:54:48:109,left,10:54:48:643,,2012_Dec_31_1015,59.9507267311,MP-Perception Experiment,xx22w42,
309,training(40).webm,False,right,1,vcgpdm_dyn(30)-lvm(25)_final(1).webm,0,149,149,50,,,,,,,,10:54:49:479,10:54:50:145,10:54:53:148,right,10:54:53:398,,2012_Dec_31_1015,59.9507267311,MP-Perception Experiment,xx22w42,
310,training(14).webm,False,right,1,vgpdm_dyn(10)-lvm(15)_final(8).webm,0,150,150,99,,,,,,,,10:54:54:080,10:54:54:899,10:54:57:902,right,10:54:58:335,,2012_Dec_31_1015,59.9507267311,MP-Perception Experiment,xx22w42,
311,training(15).webm,True,right,1,vgpdm_dyn(30)-lvm(35)_final(8).webm,0,151,151,16,,,,,,,,10:54:59:017,10:54:59:836,10:55:02:839,left,10:55:03:189,,2012_Dec_31_1015,59.9507267311,MP-Perception Experiment,xx22w42,
312,vcgpdm_dyn(20)-lvm(20)_final(9).webm,False,left,1,training(8).webm,0,152,152,68,,,,,,,,10:55:03:875,10:55:04:705,10:55:07:692,right,10:55:08:009,,2012_Dec_31_1015,59.9507267311,MP-Perception Experiment,xx22w42,
313,vcgpdm_dyn(30)-lvm(5)_final(4).webm,True,left,1,training(28).webm,0,153,153,35,,,,,,,,10:55:08:686,10:55:09:510,10:55:12:513,left,10:55:12:796,,2012_Dec_31_1015,59.9507267311,MP-Perception Experiment,xx22w42,
314,vgpdm_dyn(20)-lvm(25)_final(2).webm,False,left,1,training(41).webm,0,154,154,54,,,,,,,,10:55:13:479,10:55:14:297,10:55:17:285,right,10:55:23:990,,2012_Dec_31_1015,59.9507267311,MP-Perception Experiment,xx22w42,
315,vgpdm_dyn(25)-lvm(35)_final(4).webm,False,left,1,training(11).webm,0,155,155,25,,,,,,,,10:55:24:761,10:55:25:492,10:55:28:495,left,10:55:29:562,,2012_Dec_31_1015,59.9507267311,MP-Perception Experiment,xx22w42,
316,vcgpdm_dyn(35)-lvm(25)_final(6).webm,True,left,1,training(15).webm,0,156,156,74,,,,,,,,10:55:30:350,10:55:31:064,10:55:34:066,left,10:55:34:266,,2012_Dec_31_1015,59.9507267311,MP-Perception Experiment,xx22w42,
317,tmp_numprim(8)_final(7).webm,False,left,1,training(38).webm,0,157,157,49,,,,,,,,10:55:35:115,10:55:35:767,10:55:38:770,right,10:55:39:387,,2012_Dec_31_1015,59.9507267311,MP-Perception Experiment,xx22w42,
318,vcgpdm_dyn(15)-lvm(10)_final(1).webm,False,left,1,training(24).webm,0,158,158,110,,,,,,,,10:55:40:069,10:55:40:888,10:55:43:892,right,10:55:44:409,,2012_Dec_31_1015,59.9507267311,MP-Perception Experiment,xx22w42,
319,vcgpdm_dyn(10)-lvm(20)_final(1).webm,False,left,2,training(7).webm,0,0,0,74,,,,,,,,10:57:55:366,10:57:56:172,10:57:59:158,left,10:57:59:458,,2012_Dec_31_1015,59.9507267311,MP-Perception Experiment,xx22w42,
320,training(29).webm,True,right,2,dmp_npsi(35)_final(4).webm,0,1,1,92,,,,,,,,10:58:00:140,10:58:00:959,10:58:03:963,left,10:58:04:613,,2012_Dec_31_1015,59.9507267311,MP-Perception Experiment,xx22w42,
321,vcgpdm_dyn(25)-lvm(25)_final(4).webm,True,left,2,training(4).webm,0,2,2,95,,,,,,,,10:58:05:295,10:58:06:114,10:58:09:117,left,10:58:09:384,,2012_Dec_31_1015,59.9507267311,MP-Perception Experiment,xx22w42,
322,training(41).webm,False,right,2,vcgpdm_dyn(35)-lvm(25)_final(7).webm,0,3,3,47,,,,,,,,10:58:10:063,10:58:10:885,10:58:13:887,right,10:58:15:906,,2012_Dec_31_1015,59.9507267311,MP-Perception Experiment,xx22w42,
323,vgpdm_dyn(30)-lvm(5)_final(8).webm,True,left,2,training(41).webm,0,4,4,39,,,,,,,,10:58:16:585,10:58:17:407,10:58:20:410,left,10:58:20:711,,2012_Dec_31_1015,59.9507267311,MP-Perception Experiment,xx22w42,
324,training(40).webm,False,right,2,vcgpdm_dyn(10)-lvm(30)_final(0).webm,0,5,5,79,,,,,,,,10:58:21:398,10:58:22:212,10:58:25:212,right,10:58:25:346,,2012_Dec_31_1015,59.9507267311,MP-Perception Experiment,xx22w42,
325,dmp_npsi(50)_final(0).webm,False,left,2,training(13).webm,0,6,6,134,,,,,,,,10:58:26:029,10:58:26:847,10:58:29:850,right,10:58:29:933,,2012_Dec_31_1015,59.9507267311,MP-Perception Experiment,xx22w42,
326,vcgpdm_dyn(10)-lvm(5)_final(0).webm,False,left,2,training(13).webm,0,7,7,155,,,,,,,,10:58:30:615,10:58:31:434,10:58:34:437,left,10:58:34:670,,2012_Dec_31_1015,59.9507267311,MP-Perception Experiment,xx22w42,
327,training(13).webm,False,right,2,vgpdm_dyn(35)-lvm(30)_final(1).webm,0,8,8,112,,,,,,,,10:58:35:497,10:58:36:171,10:58:39:160,left,10:58:39:393,,2012_Dec_31_1015,59.9507267311,MP-Perception Experiment,xx22w42,
328,training(11).webm,True,right,2,vcgpdm_dyn(5)-lvm(15)_final(6).webm,0,9,9,3,,,,,,,,10:58:40:240,10:58:40:894,10:58:43:897,right,10:58:44:297,,2012_Dec_31_1015,59.9507267311,MP-Perception Experiment,xx22w42,
329,vcgpdm_dyn(30)-lvm(35)_final(1).webm,False,left,2,training(6).webm,0,10,10,35,,,,,,,,10:58:44:976,10:58:45:798,10:58:48:801,left,10:58:49:168,,2012_Dec_31_1015,59.9507267311,MP-Perception Experiment,xx22w42,
330,vcgpdm_dyn(10)-lvm(5)_final(2).webm,False,left,2,training(37).webm,0,11,11,143,,,,,,,,10:58:49:914,10:58:50:669,10:58:53:672,left,10:58:53:988,,2012_Dec_31_1015,59.9507267311,MP-Perception Experiment,xx22w42,
331,training(10).webm,True,right,2,vcgpdm_dyn(15)-lvm(35)_final(5).webm,0,12,12,119,,,,,,,,10:58:54:802,10:58:55:491,10:58:58:493,right,10:58:58:810,,2012_Dec_31_1015,59.9507267311,MP-Perception Experiment,xx22w42,
332,vgpdm_dyn(15)-lvm(5)_final(9).webm,True,left,2,training(29).webm,0,13,13,42,,,,,,,,10:58:59:486,10:59:00:311,10:59:03:314,left,10:59:03:580,,2012_Dec_31_1015,59.9507267311,MP-Perception Experiment,xx22w42,
333,vgpdm_dyn(30)-lvm(15)_final(0).webm,False,left,2,training(4).webm,0,14,14,17,,,,,,,,10:59:04:420,10:59:05:082,10:59:08:084,left,10:59:08:368,,2012_Dec_31_1015,59.9507267311,MP-Perception Experiment,xx22w42,
334,training(3).webm,True,right,2,vgpdm_dyn(10)-lvm(20)_final(0).webm,0,15,15,14,,,,,,,,10:59:09:213,10:59:09:869,10:59:12:872,left,10:59:13:139,,2012_Dec_31_1015,59.9507267311,MP-Perception Experiment,xx22w42,
335,training(11).webm,False,right,2,tmp_numprim(6)_final(6).webm,0,16,16,152,,,,,,,,10:59:13:992,10:59:14:655,10:59:17:641,right,10:59:18:075,,2012_Dec_31_1015,59.9507267311,MP-Perception Experiment,xx22w42,
336,vgpdm_dyn(5)-lvm(30)_final(1).webm,True,left,2,training(0).webm,0,17,17,85,,,,,,,,10:59:18:751,10:59:19:576,10:59:22:578,left,10:59:23:112,,2012_Dec_31_1015,59.9507267311,MP-Perception Experiment,xx22w42,
337,tmp_numprim(9)_final(0).webm,False,left,2,training(35).webm,0,18,18,121,,,,,,,,10:59:23:789,10:59:24:613,10:59:27:601,left,10:59:27:968,,2012_Dec_31_1015,59.9507267311,MP-Perception Experiment,xx22w42,
338,training(9).webm,False,right,2,vcgpdm_dyn(15)-lvm(15)_final(0).webm,0,19,19,125,,,,,,,,10:59:28:650,10:59:29:469,10:59:32:473,right,10:59:32:873,,2012_Dec_31_1015,59.9507267311,MP-Perception Experiment,xx22w42,
339,vcgpdm_dyn(15)-lvm(5)_final(1).webm,True,left,2,training(6).webm,0,20,20,68,,,,,,,,10:59:33:552,10:59:34:374,10:59:37:377,left,10:59:37:577,,2012_Dec_31_1015,59.9507267311,MP-Perception Experiment,xx22w42,
340,training(13).webm,True,right,2,vcgpdm_dyn(30)-lvm(15)_final(9).webm,0,21,21,1,,,,,,,,10:59:38:422,10:59:39:078,10:59:42:080,right,10:59:43:081,,2012_Dec_31_1015,59.9507267311,MP-Perception Experiment,xx22w42,
341,training(13).webm,True,right,2,vcgpdm_dyn(10)-lvm(35)_final(3).webm,0,22,22,116,,,,,,,,10:59:43:873,10:59:44:582,10:59:47:586,right,10:59:48:003,,2012_Dec_31_1015,59.9507267311,MP-Perception Experiment,xx22w42,
342,vgpdm_dyn(15)-lvm(5)_final(2).webm,True,left,2,training(15).webm,0,23,23,86,,,,,,,,10:59:48:850,10:59:49:504,10:59:52:506,left,10:59:57:277,,2012_Dec_31_1015,59.9507267311,MP-Perception Experiment,xx22w42,
343,training(40).webm,True,right,2,vcgpdm_dyn(20)-lvm(35)_final(4).webm,0,24,24,75,,,,,,,,10:59:57:956,10:59:58:778,11:00:01:781,right,11:00:02:164,,2012_Dec_31_1015,59.9507267311,MP-Perception Experiment,xx22w42,
344,training(34).webm,False,right,2,vgpdm_dyn(25)-lvm(25)_final(1)_bad.webm,0,25,25,105,,,,,,,,11:00:02:843,11:00:03:665,11:00:06:667,right,11:00:07:618,,2012_Dec_31_1015,59.9507267311,MP-Perception Experiment,xx22w42,
345,training(3).webm,True,right,2,dmp_npsi(50)_final(2).webm,0,26,26,83,,,,,,,,11:00:08:319,11:00:09:119,11:00:12:121,right,11:00:12:572,,2012_Dec_31_1015,59.9507267311,MP-Perception Experiment,xx22w42,
346,training(34).webm,False,right,2,vcgpdm_dyn(30)-lvm(30)_final(4).webm,0,27,27,137,,,,,,,,11:00:13:261,11:00:14:073,11:00:17:060,right,11:00:20:930,,2012_Dec_31_1015,59.9507267311,MP-Perception Experiment,xx22w42,
347,training(25).webm,False,right,2,tmp_numprim(6)_final(9).webm,0,28,28,107,,,,,,,,11:00:21:774,11:00:22:432,11:00:25:435,right,11:00:26:502,,2012_Dec_31_1015,59.9507267311,MP-Perception Experiment,xx22w42,
348,training(40).webm,False,right,2,vgpdm_dyn(25)-lvm(35)_final(7).webm,0,29,29,156,,,,,,,,11:00:27:349,11:00:28:004,11:00:31:006,right,11:00:31:423,,2012_Dec_31_1015,59.9507267311,MP-Perception Experiment,xx22w42,
349,training(6).webm,False,right,2,vcgpdm_dyn(10)-lvm(30)_final(4).webm,0,30,30,113,,,,,,,,11:00:32:109,11:00:32:924,11:00:35:927,right,11:00:36:460,,2012_Dec_31_1015,59.9507267311,MP-Perception Experiment,xx22w42,
350,training(29).webm,True,right,2,vgpdm_dyn(5)-lvm(20)_final(8).webm,0,31,31,73,,,,,,,,11:00:37:144,11:00:37:962,11:00:40:965,right,11:00:41:349,,2012_Dec_31_1015,59.9507267311,MP-Perception Experiment,xx22w42,
351,training(23).webm,True,right,2,dmp_npsi(25)_final(1).webm,0,32,32,53,,,,,,,,11:00:42:036,11:00:42:850,11:00:45:852,right,11:00:46:353,,2012_Dec_31_1015,59.9507267311,MP-Perception Experiment,xx22w42,
352,training(26).webm,False,right,2,vgpdm_dyn(25)-lvm(15)_final(4)_out_of_screen.webm,0,33,33,100,,,,,,,,11:00:47:035,11:00:47:854,11:00:50:856,right,11:00:51:474,,2012_Dec_31_1015,59.9507267311,MP-Perception Experiment,xx22w42,
353,training(0).webm,True,right,2,vcgpdm_dyn(5)-lvm(25)_final(0).webm,0,34,34,135,,,,,,,,11:00:52:272,11:00:52:975,11:00:55:975,right,11:00:56:376,,2012_Dec_31_1015,59.9507267311,MP-Perception Experiment,xx22w42,
354,vgpdm_dyn(20)-lvm(20)_final(0).webm,False,left,2,training(21).webm,0,35,35,5,,,,,,,,11:00:57:108,11:00:57:878,11:01:00:880,right,11:01:02:632,,2012_Dec_31_1015,59.9507267311,MP-Perception Experiment,xx22w42,
355,training(7).webm,False,right,2,vcgpdm_dyn(15)-lvm(30)_final(4).webm,0,36,36,149,,,,,,,,11:01:03:310,11:01:04:133,11:01:07:135,right,11:01:07:319,,2012_Dec_31_1015,59.9507267311,MP-Perception Experiment,xx22w42,
356,tmp_numprim(7)_final(4).webm,False,left,2,training(8).webm,0,37,37,11,,,,,,,,11:01:07:995,11:01:08:820,11:01:11:808,right,11:01:18:581,,2012_Dec_31_1015,59.9507267311,MP-Perception Experiment,xx22w42,
357,tmp_numprim(2)_final(7).webm,False,left,2,training(4).webm,0,38,38,45,,,,,,,,11:01:19:289,11:01:20:082,11:01:23:084,left,11:01:25:686,,2012_Dec_31_1015,59.9507267311,MP-Perception Experiment,xx22w42,
358,training(21).webm,True,right,2,vcgpdm_dyn(5)-lvm(25)_final(6).webm,0,39,39,148,,,,,,,,11:01:26:531,11:01:27:188,11:01:30:190,right,11:01:30:657,,2012_Dec_31_1015,59.9507267311,MP-Perception Experiment,xx22w42,
359,vcgpdm_dyn(15)-lvm(30)_final(7).webm,True,left,2,training(38).webm,0,40,40,88,,,,,,,,11:01:31:438,11:01:32:159,11:01:35:162,left,11:01:35:195,,2012_Dec_31_1015,59.9507267311,MP-Perception Experiment,xx22w42,
360,vcgpdm_dyn(25)-lvm(35)_final(0).webm,True,left,2,training(37).webm,0,41,41,91,,,,,,,,11:01:35:875,11:01:36:696,11:01:39:699,left,11:01:39:982,,2012_Dec_31_1015,59.9507267311,MP-Perception Experiment,xx22w42,
361,vgpdm_dyn(35)-lvm(25)_final(2).webm,False,left,2,training(23).webm,0,42,42,51,,,,,,,,11:01:40:661,11:01:41:483,11:01:44:486,left,11:01:45:969,,2012_Dec_31_1015,59.9507267311,MP-Perception Experiment,xx22w42,
362,training(17).webm,False,right,2,vcgpdm_dyn(25)-lvm(25)_final(9).webm,0,43,43,114,,,,,,,,11:01:46:645,11:01:47:470,11:01:50:473,right,11:01:51:107,,2012_Dec_31_1015,59.9507267311,MP-Perception Experiment,xx22w42,
363,map_gpdm_final(6).webm,False,left,2,training(29).webm,0,44,44,23,,,,,,,,11:01:51:791,11:01:52:608,11:01:55:611,left,11:01:56:078,,2012_Dec_31_1015,59.9507267311,MP-Perception Experiment,xx22w42,
364,vcgpdm_dyn(20)-lvm(10)_final(5).webm,True,left,2,training(35).webm,0,45,45,57,,,,,,,,11:01:56:760,11:01:57:581,11:02:00:583,left,11:02:00:967,,2012_Dec_31_1015,59.9507267311,MP-Perception Experiment,xx22w42,
365,training(13).webm,True,right,2,tmp_numprim(6)_final(0).webm,0,46,46,46,,,,,,,,11:02:01:815,11:02:02:468,11:02:05:471,left,11:02:06:338,,2012_Dec_31_1015,59.9507267311,MP-Perception Experiment,xx22w42,
366,tmp_numprim(9)_final(6).webm,True,left,2,training(29).webm,0,47,47,153,,,,,,,,11:02:07:021,11:02:07:840,11:02:10:843,left,11:02:11:410,,2012_Dec_31_1015,59.9507267311,MP-Perception Experiment,xx22w42,
367,tmp_numprim(10)_final(0).webm,False,left,2,training(19).webm,0,48,48,98,,,,,,,,11:02:12:084,11:02:12:911,11:02:15:913,left,11:02:16:147,,2012_Dec_31_1015,59.9507267311,MP-Perception Experiment,xx22w42,
368,vgpdm_dyn(35)-lvm(10)_final(7).webm,True,left,2,training(29).webm,0,49,49,38,,,,,,,,11:02:16:990,11:02:17:648,11:02:20:651,right,11:02:34:978,,2012_Dec_31_1015,59.9507267311,MP-Perception Experiment,xx22w42,
369,training(26).webm,True,right,2,dmp_npsi(30)_final(7).webm,0,50,50,10,,,,,,,,11:02:35:679,11:02:36:479,11:02:39:482,right,11:02:50:010,,2012_Dec_31_1015,59.9507267311,MP-Perception Experiment,xx22w42,
370,training(23).webm,True,right,2,vcgpdm_dyn(10)-lvm(10)_final(7).webm,0,51,51,54,,,,,,,,11:02:50:852,11:02:51:511,11:02:54:513,right,11:02:55:014,,2012_Dec_31_1015,59.9507267311,MP-Perception Experiment,xx22w42,
371,training(21).webm,True,right,2,tmp_numprim(8)_final(9).webm,0,52,52,30,,,,,,,,11:02:55:860,11:02:56:515,11:02:59:518,right,11:02:59:952,,2012_Dec_31_1015,59.9507267311,MP-Perception Experiment,xx22w42,
372,vgpdm_dyn(30)-lvm(20)_final(9).webm,True,left,2,training(9).webm,0,53,53,56,,,,,,,,11:03:00:630,11:03:01:453,11:03:04:456,left,11:03:04:789,,2012_Dec_31_1015,59.9507267311,MP-Perception Experiment,xx22w42,
373,training(30).webm,False,right,2,vcgpdm_dyn(5)-lvm(10)_final(2).webm,0,54,54,61,,,,,,,,11:03:05:468,11:03:06:290,11:03:09:293,right,11:03:09:593,,2012_Dec_31_1015,59.9507267311,MP-Perception Experiment,xx22w42,
374,training(3).webm,False,right,2,vgpdm_dyn(20)-lvm(20)_final(7).webm,0,55,55,89,,,,,,,,11:03:10:410,11:03:11:094,11:03:14:097,right,11:03:14:430,,2012_Dec_31_1015,59.9507267311,MP-Perception Experiment,xx22w42,
375,vgpdm_dyn(15)-lvm(30)_final(5).webm,True,left,2,training(22).webm,0,56,56,140,,,,,,,,11:03:15:107,11:03:15:931,11:03:18:935,left,11:03:19:252,,2012_Dec_31_1015,59.9507267311,MP-Perception Experiment,xx22w42,
376,training(9).webm,False,right,2,tmp_numprim(3)_final(2).webm,0,57,57,49,,,,,,,,11:03:20:107,11:03:20:753,11:03:23:756,right,11:03:24:123,,2012_Dec_31_1015,59.9507267311,MP-Perception Experiment,xx22w42,
377,vgpdm_dyn(35)-lvm(30)_final(8).webm,False,left,2,training(29).webm,0,58,58,120,,,,,,,,11:03:24:907,11:03:25:638,11:03:28:641,left,11:03:28:925,,2012_Dec_31_1015,59.9507267311,MP-Perception Experiment,xx22w42,
378,vgpdm_dyn(30)-lvm(30)_final(0).webm,True,left,2,training(20).webm,0,59,59,65,,,,,,,,11:03:29:601,11:03:30:426,11:03:33:428,left,11:03:33:695,,2012_Dec_31_1015,59.9507267311,MP-Perception Experiment,xx22w42,
379,vcgpdm_dyn(35)-lvm(5)_final(8).webm,True,left,2,training(8).webm,0,60,60,77,,,,,,,,11:03:34:423,11:03:35:197,11:03:38:185,left,11:03:38:568,,2012_Dec_31_1015,59.9507267311,MP-Perception Experiment,xx22w42,
380,training(5).webm,False,right,2,vgpdm_dyn(5)-lvm(15)_final(3).webm,0,61,61,133,,,,,,,,11:03:39:262,11:03:40:070,11:03:43:072,right,11:03:43:422,,2012_Dec_31_1015,59.9507267311,MP-Perception Experiment,xx22w42,
381,training(0).webm,True,right,2,vgpdm_dyn(20)-lvm(15)_final(7).webm,0,62,62,15,,,,,,,,11:03:44:096,11:03:44:923,11:03:47:926,left,11:03:48:410,,2012_Dec_31_1015,59.9507267311,MP-Perception Experiment,xx22w42,
382,vcgpdm_dyn(15)-lvm(35)_final(6).webm,False,left,2,training(5).webm,0,63,63,80,,,,,,,,11:03:49:187,11:03:49:911,11:03:52:914,left,11:03:55:016,,2012_Dec_31_1015,59.9507267311,MP-Perception Experiment,xx22w42,
383,vcgpdm_dyn(30)-lvm(30)_final(4).webm,True,left,2,training(36).webm,0,64,64,66,,,,,,,,11:03:55:692,11:03:56:517,11:03:59:520,left,11:04:00:003,,2012_Dec_31_1015,59.9507267311,MP-Perception Experiment,xx22w42,
384,map_cgpdm_final(2).webm,False,left,2,training(18).webm,0,65,65,52,,,,,,,,11:04:00:743,11:04:01:504,11:04:04:507,left,11:04:06:842,,2012_Dec_31_1015,59.9507267311,MP-Perception Experiment,xx22w42,
385,training(8).webm,False,right,2,vgpdm_dyn(25)-lvm(35)_final(3).webm,0,66,66,87,,,,,,,,11:04:07:525,11:04:08:343,11:04:11:347,right,11:04:15:582,,2012_Dec_31_1015,59.9507267311,MP-Perception Experiment,xx22w42,
386,training(38).webm,False,right,2,vgpdm_dyn(35)-lvm(5)_final(5).webm,0,67,67,48,,,,,,,,11:04:16:399,11:04:17:083,11:04:20:086,right,11:04:20:436,,2012_Dec_31_1015,59.9507267311,MP-Perception Experiment,xx22w42,
387,training(27).webm,True,right,2,vgpdm_dyn(30)-lvm(35)_final(1).webm,0,68,68,111,,,,,,,,11:04:21:121,11:04:21:937,11:04:24:939,left,11:04:25:223,,2012_Dec_31_1015,59.9507267311,MP-Perception Experiment,xx22w42,
388,vcgpdm_dyn(25)-lvm(10)_final(5).webm,False,left,2,training(5).webm,0,69,69,29,,,,,,,,11:04:25:901,11:04:26:726,11:04:29:713,left,11:04:30:013,,2012_Dec_31_1015,59.9507267311,MP-Perception Experiment,xx22w42,
389,training(9).webm,False,right,2,vgpdm_dyn(30)-lvm(25)_final(5).webm,0,70,70,90,,,,,,,,11:04:30:697,11:04:31:514,11:04:34:517,right,11:04:35:334,,2012_Dec_31_1015,59.9507267311,MP-Perception Experiment,xx22w42,
390,training(11).webm,False,right,2,vcgpdm_dyn(20)-lvm(25)_final(8).webm,0,71,71,76,,,,,,,,11:04:36:012,11:04:36:835,11:04:39:838,right,11:04:40:321,,2012_Dec_31_1015,59.9507267311,MP-Perception Experiment,xx22w42,
391,training(8).webm,False,right,2,vgpdm_dyn(25)-lvm(20)_final(5).webm,0,72,72,62,,,,,,,,11:04:41:032,11:04:41:822,11:04:44:826,right,11:04:45:276,,2012_Dec_31_1015,59.9507267311,MP-Perception Experiment,xx22w42,
392,training(25).webm,False,right,2,vgpdm_dyn(25)-lvm(20)_final(6).webm,0,73,73,103,,,,,,,,11:04:45:956,11:04:46:777,11:04:49:780,right,11:04:50:314,,2012_Dec_31_1015,59.9507267311,MP-Perception Experiment,xx22w42,
393,training(48).webm,True,right,2,vcgpdm_dyn(30)-lvm(10)_final(4).webm,0,74,74,84,,,,,,,,11:04:50:996,11:04:51:815,11:04:54:817,right,11:04:55:184,,2012_Dec_31_1015,59.9507267311,MP-Perception Experiment,xx22w42,
394,training(0).webm,False,right,2,dmp_npsi(45)_final(2).webm,0,75,75,20,,,,,,,,11:04:56:023,11:04:56:685,11:04:59:688,right,11:05:03:625,,2012_Dec_31_1015,59.9507267311,MP-Perception Experiment,xx22w42,
395,tmp_numprim(7)_final(6).webm,True,left,2,training(12).webm,0,76,76,60,,,,,,,,11:05:04:306,11:05:05:141,11:05:08:127,left,11:05:08:377,,2012_Dec_31_1015,59.9507267311,MP-Perception Experiment,xx22w42,
396,training(34).webm,True,right,2,vcgpdm_dyn(30)-lvm(5)_final(5).webm,0,77,77,8,,,,,,,,11:05:09:222,11:05:09:879,11:05:12:881,right,11:05:13:098,,2012_Dec_31_1015,59.9507267311,MP-Perception Experiment,xx22w42,
397,training(1).webm,False,right,2,vcgpdm_dyn(25)-lvm(15)_final(4).webm,0,78,78,27,,,,,,,,11:05:13:912,11:05:14:599,11:05:17:587,right,11:05:18:020,,2012_Dec_31_1015,59.9507267311,MP-Perception Experiment,xx22w42,
398,vcgpdm_dyn(15)-lvm(15)_final(6).webm,True,left,2,training(29).webm,0,79,79,128,,,,,,,,11:05:18:757,11:05:19:522,11:05:22:525,left,11:05:23:142,,2012_Dec_31_1015,59.9507267311,MP-Perception Experiment,xx22w42,
399,vgpdm_dyn(5)-lvm(30)_final(4).webm,False,left,2,training(9).webm,0,80,80,102,,,,,,,,11:05:23:959,11:05:24:643,11:05:27:646,left,11:05:31:516,,2012_Dec_31_1015,59.9507267311,MP-Perception Experiment,xx22w42,
400,training(7).webm,True,right,2,vgpdm_dyn(35)-lvm(10)_final(4).webm,0,81,81,96,,,,,,,,11:05:32:328,11:05:33:017,11:05:36:019,right,11:05:36:453,,2012_Dec_31_1015,59.9507267311,MP-Perception Experiment,xx22w42,
401,vgpdm_dyn(15)-lvm(30)_final(1).webm,False,left,2,training(20).webm,0,82,82,36,,,,,,,,11:05:37:284,11:05:37:955,11:05:40:958,left,11:05:41:324,,2012_Dec_31_1015,59.9507267311,MP-Perception Experiment,xx22w42,
402,training(24).webm,True,right,2,vcgpdm_dyn(25)-lvm(20)_final(9).webm,0,83,83,25,,,,,,,,11:05:42:020,11:05:42:826,11:05:45:828,right,11:05:46:462,,2012_Dec_31_1015,59.9507267311,MP-Perception Experiment,xx22w42,
403,training(23).webm,False,right,2,dmp_npsi(50)_final(6).webm,0,84,84,44,,,,,,,,11:05:47:148,11:05:47:963,11:05:50:965,right,11:05:51:349,,2012_Dec_31_1015,59.9507267311,MP-Perception Experiment,xx22w42,
404,vgpdm_dyn(25)-lvm(35)_final(1).webm,True,left,2,training(36).webm,0,85,85,34,,,,,,,,11:05:52:026,11:05:52:850,11:05:55:852,left,11:05:56:102,,2012_Dec_31_1015,59.9507267311,MP-Perception Experiment,xx22w42,
405,vcgpdm_dyn(5)-lvm(30)_final(2)_bad.webm,True,left,2,training(10).webm,0,86,86,110,,,,,,,,11:05:56:790,11:05:57:603,11:06:00:606,left,11:06:00:940,,2012_Dec_31_1015,59.9507267311,MP-Perception Experiment,xx22w42,
406,map_gpdm_final(7).webm,False,left,2,training(35).webm,0,87,87,93,,,,,,,,11:06:01:623,11:06:02:441,11:06:05:443,left,11:06:07:196,,2012_Dec_31_1015,59.9507267311,MP-Perception Experiment,xx22w42,
407,vcgpdm_dyn(35)-lvm(30)_final(5).webm,True,left,2,training(31).webm,0,88,88,127,,,,,,,,11:06:07:874,11:06:08:697,11:06:11:700,left,11:06:11:968,,2012_Dec_31_1015,59.9507267311,MP-Perception Experiment,xx22w42,
408,training(10).webm,False,right,2,vcgpdm_dyn(10)-lvm(20)_final(7).webm,0,89,89,130,,,,,,,,11:06:12:650,11:06:13:469,11:06:16:472,right,11:06:17:673,,2012_Dec_31_1015,59.9507267311,MP-Perception Experiment,xx22w42,
409,vgpdm_dyn(15)-lvm(25)_final(8).webm,True,left,2,training(1).webm,0,90,90,132,,,,,,,,11:06:18:355,11:06:19:174,11:06:22:176,left,11:06:22:576,,2012_Dec_31_1015,59.9507267311,MP-Perception Experiment,xx22w42,
410,training(32).webm,True,right,2,vgpdm_dyn(35)-lvm(25)_final(1).webm,0,91,91,158,,,,,,,,11:06:23:254,11:06:24:078,11:06:27:080,left,11:06:28:081,,2012_Dec_31_1015,59.9507267311,MP-Perception Experiment,xx22w42,
411,training(29).webm,True,right,2,dmp_npsi(25)_final(7).webm,0,92,92,144,,,,,,,,11:06:28:760,11:06:29:583,11:06:32:586,right,11:06:32:869,,2012_Dec_31_1015,59.9507267311,MP-Perception Experiment,xx22w42,
412,training(5).webm,True,right,2,vgpdm_dyn(10)-lvm(30)_final(6).webm,0,93,93,138,,,,,,,,11:06:33:550,11:06:34:370,11:06:37:373,right,11:06:37:756,,2012_Dec_31_1015,59.9507267311,MP-Perception Experiment,xx22w42,
413,training(2).webm,False,right,2,vcgpdm_dyn(20)-lvm(5)_final(9).webm,0,94,94,40,,,,,,,,11:06:38:439,11:06:39:257,11:06:42:260,right,11:06:42:594,,2012_Dec_31_1015,59.9507267311,MP-Perception Experiment,xx22w42,
414,training(25).webm,False,right,2,vcgpdm_dyn(15)-lvm(30)_final(4).webm,0,95,95,129,,,,,,,,11:06:43:266,11:06:44:095,11:06:47:096,right,11:06:47:347,,2012_Dec_31_1015,59.9507267311,MP-Perception Experiment,xx22w42,
415,vcgpdm_dyn(5)-lvm(5)_final(9).webm,True,left,2,training(33).webm,0,96,96,70,,,,,,,,11:06:48:047,11:06:48:848,11:06:51:850,left,11:06:52:184,,2012_Dec_31_1015,59.9507267311,MP-Perception Experiment,xx22w42,
416,training(19).webm,True,right,2,vcgpdm_dyn(25)-lvm(30)_final(7).webm,0,97,97,117,,,,,,,,11:06:52:859,11:06:53:685,11:06:56:688,right,11:06:59:592,,2012_Dec_31_1015,59.9507267311,MP-Perception Experiment,xx22w42,
417,vcgpdm_dyn(30)-lvm(10)_final(4).webm,False,left,2,training(34).webm,0,98,98,6,,,,,,,,11:07:00:267,11:07:01:093,11:07:04:095,left,11:07:04:196,,2012_Dec_31_1015,59.9507267311,MP-Perception Experiment,xx22w42,
418,tmp_numprim(2)_final(2).webm,True,left,2,training(23).webm,0,99,99,157,,,,,,,,11:07:04:878,11:07:05:697,11:07:08:700,left,11:07:09:117,,2012_Dec_31_1015,59.9507267311,MP-Perception Experiment,xx22w42,
419,training(37).webm,False,right,2,vcgpdm_dyn(15)-lvm(5)_final(1).webm,0,100,100,13,,,,,,,,11:07:09:793,11:07:10:618,11:07:13:621,right,11:07:14:004,,2012_Dec_31_1015,59.9507267311,MP-Perception Experiment,xx22w42,
420,vgpdm_dyn(25)-lvm(5)_final(5).webm,True,left,2,training(30).webm,0,101,101,9,,,,,,,,11:07:14:686,11:07:15:505,11:07:18:508,left,11:07:18:825,,2012_Dec_31_1015,59.9507267311,MP-Perception Experiment,xx22w42,
421,training(35).webm,True,right,2,vcgpdm_dyn(15)-lvm(30)_final(0).webm,0,102,102,16,,,,,,,,11:07:19:509,11:07:20:326,11:07:23:330,right,11:07:23:763,,2012_Dec_31_1015,59.9507267311,MP-Perception Experiment,xx22w42,
422,vcgpdm_dyn(25)-lvm(15)_final(4).webm,False,left,2,training(3).webm,0,103,103,7,,,,,,,,11:07:24:439,11:07:25:264,11:07:28:267,left,11:07:28:600,,2012_Dec_31_1015,59.9507267311,MP-Perception Experiment,xx22w42,
423,training(34).webm,True,right,2,vgpdm_dyn(5)-lvm(10)_final(1).webm,0,104,104,146,,,,,,,,11:07:29:276,11:07:30:102,11:07:33:104,right,11:07:33:421,,2012_Dec_31_1015,59.9507267311,MP-Perception Experiment,xx22w42,
424,vcgpdm_dyn(30)-lvm(15)_final(2).webm,True,left,2,training(4).webm,0,105,105,99,,,,,,,,11:07:34:186,11:07:34:937,11:07:37:923,left,11:07:38:140,,2012_Dec_31_1015,59.9507267311,MP-Perception Experiment,xx22w42,
425,vgpdm_dyn(10)-lvm(5)_final(0).webm,True,left,2,training(15).webm,0,106,106,4,,,,,,,,11:07:38:815,11:07:39:642,11:07:42:644,left,11:07:43:512,,2012_Dec_31_1015,59.9507267311,MP-Perception Experiment,xx22w42,
426,training(9).webm,True,right,2,vgpdm_dyn(25)-lvm(35)_final(4).webm,0,107,107,67,,,,,,,,11:07:44:185,11:07:45:013,11:07:48:000,left,11:07:48:134,,2012_Dec_31_1015,59.9507267311,MP-Perception Experiment,xx22w42,
427,vcgpdm_dyn(5)-lvm(20)_final(0).webm,True,left,2,training(48).webm,0,108,108,64,,,,,,,,11:07:48:988,11:07:49:635,11:07:52:638,left,11:07:52:754,,2012_Dec_31_1015,59.9507267311,MP-Perception Experiment,xx22w42,
428,vcgpdm_dyn(25)-lvm(5)_final(6).webm,False,left,2,training(30).webm,0,109,109,151,,,,,,,,11:07:53:430,11:07:54:255,11:07:57:259,right,11:07:57:559,,2012_Dec_31_1015,59.9507267311,MP-Perception Experiment,xx22w42,
429,training(35).webm,False,right,2,vcgpdm_dyn(30)-lvm(5)_final(9).webm,0,110,110,147,,,,,,,,11:07:58:238,11:07:59:060,11:08:02:063,right,11:08:02:396,,2012_Dec_31_1015,59.9507267311,MP-Perception Experiment,xx22w42,
430,dmp_npsi(15)_final(6).webm,False,left,2,training(9).webm,0,111,111,18,,,,,,,,11:08:03:074,11:08:03:897,11:08:06:900,left,11:08:07:200,,2012_Dec_31_1015,59.9507267311,MP-Perception Experiment,xx22w42,
431,vcgpdm_dyn(25)-lvm(10)_final(0).webm,True,left,2,training(31).webm,0,112,112,82,,,,,,,,11:08:07:931,11:08:08:701,11:08:11:704,left,11:08:12:004,,2012_Dec_31_1015,59.9507267311,MP-Perception Experiment,xx22w42,
432,vcgpdm_dyn(25)-lvm(35)_final(1).webm,True,left,2,training(1).webm,0,113,113,50,,,,,,,,11:08:12:736,11:08:13:505,11:08:16:509,left,11:08:16:776,,2012_Dec_31_1015,59.9507267311,MP-Perception Experiment,xx22w42,
433,training(38).webm,True,right,2,vgpdm_dyn(20)-lvm(25)_final(0).webm,0,114,114,69,,,,,,,,11:08:17:451,11:08:18:277,11:08:21:279,right,11:08:21:613,,2012_Dec_31_1015,59.9507267311,MP-Perception Experiment,xx22w42,
434,vcgpdm_dyn(35)-lvm(20)_final(0).webm,True,left,2,training(9).webm,0,115,115,26,,,,,,,,11:08:22:340,11:08:23:114,11:08:26:115,left,11:08:26:398,,2012_Dec_31_1015,59.9507267311,MP-Perception Experiment,xx22w42,
435,training(17).webm,True,right,2,vgpdm_dyn(10)-lvm(30)_final(7).webm,0,116,116,58,,,,,,,,11:08:27:219,11:08:27:899,11:08:30:902,right,11:08:31:269,,2012_Dec_31_1015,59.9507267311,MP-Perception Experiment,xx22w42,
436,vcgpdm_dyn(30)-lvm(15)_final(0).webm,True,left,2,training(13).webm,0,117,117,150,,,,,,,,11:08:32:016,11:08:32:771,11:08:35:774,left,11:08:36:024,,2012_Dec_31_1015,59.9507267311,MP-Perception Experiment,xx22w42,
437,training(48).webm,True,right,2,vcgpdm_dyn(10)-lvm(25)_final(1).webm,0,118,118,41,,,,,,,,11:08:36:845,11:08:37:525,11:08:40:512,right,11:08:40:929,,2012_Dec_31_1015,59.9507267311,MP-Perception Experiment,xx22w42,
438,vcgpdm_dyn(10)-lvm(15)_final(1).webm,True,left,2,training(30).webm,0,119,119,24,,,,,,,,11:08:41:611,11:08:42:431,11:08:45:433,left,11:08:45:733,,2012_Dec_31_1015,59.9507267311,MP-Perception Experiment,xx22w42,
439,training(7).webm,True,right,2,vgpdm_dyn(5)-lvm(10)_final(3).webm,0,120,120,154,,,,,,,,11:08:46:410,11:08:47:234,11:08:50:238,right,11:08:51:255,,2012_Dec_31_1015,59.9507267311,MP-Perception Experiment,xx22w42,
440,training(8).webm,True,right,2,vcgpdm_dyn(25)-lvm(25)_final(2).webm,0,121,121,142,,,,,,,,11:08:51:960,11:08:52:757,11:08:55:759,right,11:08:56:059,,2012_Dec_31_1015,59.9507267311,MP-Perception Experiment,xx22w42,
441,training(12).webm,True,right,2,vgpdm_dyn(10)-lvm(10)_final(9).webm,0,122,122,81,,,,,,,,11:08:56:746,11:08:57:560,11:09:00:563,right,11:09:00:847,,2012_Dec_31_1015,59.9507267311,MP-Perception Experiment,xx22w42,
442,tmp_numprim(4)_final(4).webm,False,left,2,training(14).webm,0,123,123,19,,,,,,,,11:09:01:522,11:09:02:348,11:09:05:350,left,11:09:05:650,,2012_Dec_31_1015,59.9507267311,MP-Perception Experiment,xx22w42,
443,vcgpdm_dyn(5)-lvm(25)_final(6).webm,False,left,2,training(12).webm,0,124,124,97,,,,,,,,11:09:06:327,11:09:07:153,11:09:10:155,left,11:09:10:472,,2012_Dec_31_1015,59.9507267311,MP-Perception Experiment,xx22w42,
444,dmp_npsi(15)_final(9).webm,True,left,2,training(34).webm,0,125,125,55,,,,,,,,11:09:11:149,11:09:11:973,11:09:14:974,left,11:09:15:307,,2012_Dec_31_1015,59.9507267311,MP-Perception Experiment,xx22w42,
445,tmp_numprim(3)_final(6).webm,True,left,2,training(21).webm,0,126,126,0,,,,,,,,11:09:15:988,11:09:16:809,11:09:19:811,left,11:09:20:128,,2012_Dec_31_1015,59.9507267311,MP-Perception Experiment,xx22w42,
446,vcgpdm_dyn(15)-lvm(20)_final(3).webm,True,left,2,training(35).webm,0,127,127,63,,,,,,,,11:09:20:971,11:09:21:629,11:09:24:633,left,11:09:24:950,,2012_Dec_31_1015,59.9507267311,MP-Perception Experiment,xx22w42,
447,dmp_npsi(40)_final(2).webm,False,left,2,training(0).webm,0,128,128,122,,,,,,,,11:09:25:625,11:09:26:451,11:09:29:438,right,11:09:29:722,,2012_Dec_31_1015,59.9507267311,MP-Perception Experiment,xx22w42,
448,vgpdm_dyn(15)-lvm(30)_final(1).webm,True,left,2,training(25).webm,0,129,129,123,,,,,,,,11:09:30:396,11:09:31:223,11:09:34:226,left,11:09:35:160,,2012_Dec_31_1015,59.9507267311,MP-Perception Experiment,xx22w42,
449,training(18).webm,False,right,2,vgpdm_dyn(10)-lvm(25)_final(8).webm,0,130,130,32,,,,,,,,11:09:35:844,11:09:36:661,11:09:39:663,right,11:09:39:963,,2012_Dec_31_1015,59.9507267311,MP-Perception Experiment,xx22w42,
450,vcgpdm_dyn(15)-lvm(10)_final(9).webm,False,left,2,training(23).webm,0,131,131,118,,,,,,,,11:09:40:727,11:09:41:465,11:09:44:468,left,11:09:44:835,,2012_Dec_31_1015,59.9507267311,MP-Perception Experiment,xx22w42,
451,dmp_npsi(25)_final(9).webm,False,left,2,training(32).webm,0,132,132,141,,,,,,,,11:09:45:597,11:09:46:336,11:09:49:339,left,11:09:49:672,,2012_Dec_31_1015,59.9507267311,MP-Perception Experiment,xx22w42,
452,training(13).webm,False,right,2,tmp_numprim(5)_final(3).webm,0,133,133,108,,,,,,,,11:09:50:514,11:09:51:173,11:09:54:176,right,11:09:54:493,,2012_Dec_31_1015,59.9507267311,MP-Perception Experiment,xx22w42,
453,training(30).webm,True,right,2,vgpdm_dyn(15)-lvm(30)_final(4).webm,0,134,134,71,,,,,,,,11:09:55:359,11:09:55:994,11:09:58:997,right,11:09:59:348,,2012_Dec_31_1015,59.9507267311,MP-Perception Experiment,xx22w42,
454,training(4).webm,True,right,2,vgpdm_dyn(25)-lvm(5)_final(5).webm,0,135,135,101,,,,,,,,11:10:00:023,11:10:00:849,11:10:03:851,right,11:10:04:185,,2012_Dec_31_1015,59.9507267311,MP-Perception Experiment,xx22w42,
455,vcgpdm_dyn(5)-lvm(15)_final(0).webm,False,left,2,training(21).webm,0,136,136,139,,,,,,,,11:10:05:007,11:10:05:701,11:10:08:687,left,11:10:13:024,,2012_Dec_31_1015,59.9507267311,MP-Perception Experiment,xx22w42,
456,training(5).webm,True,right,2,vgpdm_dyn(20)-lvm(5)_final(0).webm,0,137,137,22,,,,,,,,11:10:13:701,11:10:14:525,11:10:17:513,right,11:10:18:631,,2012_Dec_31_1015,59.9507267311,MP-Perception Experiment,xx22w42,
457,dmp_npsi(20)_final(5).webm,True,left,2,training(5).webm,0,138,138,12,,,,,,,,11:10:19:307,11:10:20:132,11:10:23:134,left,11:10:23:535,,2012_Dec_31_1015,59.9507267311,MP-Perception Experiment,xx22w42,
458,vgpdm_dyn(10)-lvm(5)_final(9).webm,False,left,2,training(9).webm,0,139,139,21,,,,,,,,11:10:24:216,11:10:25:036,11:10:28:039,left,11:10:28:456,,2012_Dec_31_1015,59.9507267311,MP-Perception Experiment,xx22w42,
459,dmp_npsi(45)_final(4).webm,False,left,2,training(35).webm,0,140,140,109,,,,,,,,11:10:29:132,11:10:29:957,11:10:32:959,right,11:10:33:293,,2012_Dec_31_1015,59.9507267311,MP-Perception Experiment,xx22w42,
460,vgpdm_dyn(25)-lvm(30)_final(9).webm,True,left,2,training(38).webm,0,141,141,126,,,,,,,,11:10:33:969,11:10:34:795,11:10:37:798,left,11:10:38:014,,2012_Dec_31_1015,59.9507267311,MP-Perception Experiment,xx22w42,
461,training(26).webm,True,right,2,vcgpdm_dyn(35)-lvm(20)_final(2).webm,0,142,142,115,,,,,,,,11:10:38:864,11:10:39:515,11:10:42:518,right,11:10:42:618,,2012_Dec_31_1015,59.9507267311,MP-Perception Experiment,xx22w42,
462,training(23).webm,True,right,2,dmp_npsi(35)_final(3).webm,0,143,143,37,,,,,,,,11:10:43:468,11:10:44:119,11:10:47:121,right,11:10:47:572,,2012_Dec_31_1015,59.9507267311,MP-Perception Experiment,xx22w42,
463,vcgpdm_dyn(10)-lvm(20)_final(5).webm,True,left,2,training(41).webm,0,144,144,59,,,,,,,,11:10:48:254,11:10:49:073,11:10:52:077,left,11:10:52:410,,2012_Dec_31_1015,59.9507267311,MP-Perception Experiment,xx22w42,
464,training(40).webm,True,right,2,vgpdm_dyn(30)-lvm(25)_final(0).webm,0,145,145,104,,,,,,,,11:10:53:089,11:10:53:911,11:10:56:912,right,11:11:01:666,,2012_Dec_31_1015,59.9507267311,MP-Perception Experiment,xx22w42,
465,map_cgpdm_final(8).webm,False,left,2,training(16).webm,0,146,146,31,,,,,,,,11:11:02:489,11:11:03:167,11:11:06:170,left,11:11:08:004,,2012_Dec_31_1015,59.9507267311,MP-Perception Experiment,xx22w42,
466,vgpdm_dyn(5)-lvm(20)_final(9).webm,False,left,2,training(12).webm,0,147,147,43,,,,,,,,11:11:08:685,11:11:09:508,11:11:12:494,right,11:11:12:878,,2012_Dec_31_1015,59.9507267311,MP-Perception Experiment,xx22w42,
467,training(7).webm,False,right,2,vcgpdm_dyn(5)-lvm(10)_final(8).webm,0,148,148,94,,,,,,,,11:11:13:554,11:11:14:379,11:11:17:381,right,11:11:21:685,,2012_Dec_31_1015,59.9507267311,MP-Perception Experiment,xx22w42,
468,training(37).webm,False,right,2,vcgpdm_dyn(15)-lvm(25)_final(5).webm,0,149,149,131,,,,,,,,11:11:22:493,11:11:23:186,11:11:26:189,right,11:11:26:623,,2012_Dec_31_1015,59.9507267311,MP-Perception Experiment,xx22w42,
