trial_number,right,flipped,correct,block,left,trials.thisRepN,trials.thisTrialN,trials.thisN,trials.thisIndex,flipwelcome.keys,flipwelcome.corr,flipwelcome.rt,flippreparations.keys,flippreparations.rt,flipInstructions.keys,flipInstructions.rt,time_at_fixation_cross_onset,time_at_videoonset,time_at_videoend,participant_key_response,time_at_key_response,key_resp_4.keys,date,frameRate,expName,participant,
,,,,,,,,,,space,0,104.10473167,,,,,,,,,,,2012_Dec_31_1206,59.9520256822,MP-Perception Experiment,xx23w20,
,,,,,,,,,,,,,space,12.2787363219,,,,,,,,,2012_Dec_31_1206,59.9520256822,MP-Perception Experiment,xx23w20,
,,,,,,,,,,,,,,,space,19.6167452372,,,,,,,2012_Dec_31_1206,59.9520256822,MP-Perception Experiment,xx23w20,
1,vcgpdm_dyn(20)-lvm(15)_final(1).webm,False,left,0,training(17).webm,0,0,0,15,,,,,,,,12:08:32:596,12:08:33:333,12:08:36:319,right,12:08:37:136,,2012_Dec_31_1206,59.9520256822,MP-Perception Experiment,xx23w20,
2,vcgpdm_dyn(15)-lvm(10)_final(2).webm,False,left,0,training(13).webm,0,1,1,132,,,,,,,,12:08:37:923,12:08:38:637,12:08:41:640,left,12:08:42:557,,2012_Dec_31_1206,59.9520256822,MP-Perception Experiment,xx23w20,
3,dmp_npsi(25)_final(5).webm,True,left,0,training(17).webm,0,2,2,30,,,,,,,,12:08:43:239,12:08:44:058,12:08:47:059,left,12:08:47:710,,2012_Dec_31_1206,59.9520256822,MP-Perception Experiment,xx23w20,
4,vgpdm_dyn(30)-lvm(30)_final(2).webm,False,left,0,training(41).webm,0,3,3,98,,,,,,,,12:08:48:453,12:08:49:211,12:08:52:214,right,12:08:53:782,,2012_Dec_31_1206,59.9520256822,MP-Perception Experiment,xx23w20,
5,training(28).webm,True,right,0,vcgpdm_dyn(30)-lvm(5)_final(5).webm,0,4,4,154,,,,,,,,12:08:54:460,12:08:55:283,12:08:58:286,left,12:08:59:872,,2012_Dec_31_1206,59.9520256822,MP-Perception Experiment,xx23w20,
6,training(25).webm,True,right,0,vcgpdm_dyn(15)-lvm(10)_final(0).webm,0,5,5,55,,,,,,,,12:09:00:685,12:09:01:373,12:09:04:376,left,12:09:05:076,,2012_Dec_31_1206,59.9520256822,MP-Perception Experiment,xx23w20,
7,vgpdm_dyn(30)-lvm(5)_final(8).webm,True,left,0,training(36).webm,0,6,6,113,,,,,,,,12:09:05:753,12:09:06:578,12:09:09:581,right,12:09:10:198,,2012_Dec_31_1206,59.9520256822,MP-Perception Experiment,xx23w20,
8,training(11).webm,False,right,0,vgpdm_dyn(30)-lvm(35)_final(8).webm,0,7,7,75,,,,,,,,12:09:10:877,12:09:11:699,12:09:14:702,left,12:09:15:853,,2012_Dec_31_1206,59.9520256822,MP-Perception Experiment,xx23w20,
9,vcgpdm_dyn(20)-lvm(30)_final(3).webm,True,left,0,training(17).webm,0,8,8,2,,,,,,,,12:09:16:594,12:09:17:354,12:09:20:357,left,12:09:23:009,,2012_Dec_31_1206,59.9520256822,MP-Perception Experiment,xx23w20,
10,training(11).webm,True,right,0,vgpdm_dyn(10)-lvm(15)_final(9).webm,0,9,9,77,,,,,,,,12:09:23:859,12:09:24:510,12:09:27:513,right,12:09:28:247,,2012_Dec_31_1206,59.9520256822,MP-Perception Experiment,xx23w20,
11,training(4).webm,False,right,0,vcgpdm_dyn(25)-lvm(25)_final(5).webm,0,10,10,103,,,,,,,,12:09:29:095,12:09:29:748,12:09:32:751,right,12:09:33:268,,2012_Dec_31_1206,59.9520256822,MP-Perception Experiment,xx23w20,
12,training(21).webm,False,right,0,vcgpdm_dyn(20)-lvm(30)_final(1).webm,0,11,11,150,,,,,,,,12:09:34:116,12:09:34:769,12:09:37:770,right,12:09:38:237,,2012_Dec_31_1206,59.9520256822,MP-Perception Experiment,xx23w20,
13,vcgpdm_dyn(5)-lvm(10)_final(1).webm,False,left,0,training(19).webm,0,12,12,19,,,,,,,,12:09:39:089,12:09:39:738,12:09:42:740,left,12:09:43:258,,2012_Dec_31_1206,59.9520256822,MP-Perception Experiment,xx23w20,
14,dmp_npsi(40)_final(7).webm,False,left,0,training(1).webm,0,13,13,141,,,,,,,,12:09:43:945,12:09:44:760,12:09:47:747,left,12:09:48:248,,2012_Dec_31_1206,59.9520256822,MP-Perception Experiment,xx23w20,
15,vgpdm_dyn(20)-lvm(35)_final(7).webm,False,left,0,training(1).webm,0,14,14,4,,,,,,,,12:09:48:927,12:09:49:749,12:09:52:751,left,12:09:53:368,,2012_Dec_31_1206,59.9520256822,MP-Perception Experiment,xx23w20,
16,vgpdm_dyn(35)-lvm(35)_final(0).webm,False,left,0,training(15).webm,0,15,15,143,,,,,,,,12:09:54:140,12:09:54:870,12:09:57:872,left,12:09:59:106,,2012_Dec_31_1206,59.9520256822,MP-Perception Experiment,xx23w20,
17,training(15).webm,False,right,0,vgpdm_dyn(30)-lvm(30)_final(9).webm,0,16,16,147,,,,,,,,12:09:59:956,12:10:00:607,12:10:03:611,left,12:10:05:412,,2012_Dec_31_1206,59.9520256822,MP-Perception Experiment,xx23w20,
18,training(25).webm,False,right,0,vgpdm_dyn(35)-lvm(35)_final(0).webm,0,17,17,81,,,,,,,,12:10:06:090,12:10:06:914,12:10:09:916,left,12:10:11:050,,2012_Dec_31_1206,59.9520256822,MP-Perception Experiment,xx23w20,
19,training(33).webm,False,right,0,vcgpdm_dyn(25)-lvm(15)_final(1).webm,0,18,18,34,,,,,,,,12:10:11:727,12:10:12:551,12:10:15:554,left,12:10:17:873,,2012_Dec_31_1206,59.9520256822,MP-Perception Experiment,xx23w20,
20,training(2).webm,True,right,0,vcgpdm_dyn(35)-lvm(25)_final(5).webm,0,19,19,73,,,,,,,,12:10:18:553,12:10:19:375,12:10:22:377,right,12:10:23:111,,2012_Dec_31_1206,59.9520256822,MP-Perception Experiment,xx23w20,
21,training(25).webm,True,right,0,vcgpdm_dyn(15)-lvm(25)_final(5).webm,0,20,20,39,,,,,,,,12:10:23:791,12:10:24:612,12:10:27:613,left,12:10:28:564,,2012_Dec_31_1206,59.9520256822,MP-Perception Experiment,xx23w20,
22,vcgpdm_dyn(25)-lvm(5)_final(1).webm,False,left,0,training(38).webm,0,21,21,99,,,,,,,,12:10:29:289,12:10:30:065,12:10:33:067,left,12:10:33:684,,2012_Dec_31_1206,59.9520256822,MP-Perception Experiment,xx23w20,
23,training(20).webm,True,right,0,vcgpdm_dyn(30)-lvm(10)_final(2).webm,0,22,22,158,,,,,,,,12:10:34:531,12:10:35:186,12:10:38:189,right,12:10:38:556,,2012_Dec_31_1206,59.9520256822,MP-Perception Experiment,xx23w20,
24,vgpdm_dyn(35)-lvm(35)_final(9).webm,True,left,0,training(8).webm,0,23,23,21,,,,,,,,12:10:39:232,12:10:40:059,12:10:43:045,right,12:10:46:414,,2012_Dec_31_1206,59.9520256822,MP-Perception Experiment,xx23w20,
25,vcgpdm_dyn(30)-lvm(35)_final(5).webm,False,left,0,training(1).webm,0,24,24,86,,,,,,,,12:10:47:249,12:10:47:915,12:10:50:918,left,12:10:51:502,,2012_Dec_31_1206,59.9520256822,MP-Perception Experiment,xx23w20,
26,training(11).webm,False,right,0,vcgpdm_dyn(15)-lvm(30)_final(9).webm,0,25,25,157,,,,,,,,12:10:52:314,12:10:53:003,12:10:56:006,right,12:10:56:490,,2012_Dec_31_1206,59.9520256822,MP-Perception Experiment,xx23w20,
27,training(1).webm,False,right,0,map_gpdm_final(7).webm,0,26,26,102,,,,,,,,12:10:57:170,12:10:57:991,12:11:00:994,right,12:11:01:477,,2012_Dec_31_1206,59.9520256822,MP-Perception Experiment,xx23w20,
28,training(16).webm,False,right,0,vgpdm_dyn(10)-lvm(10)_final(7).webm,0,27,27,45,,,,,,,,12:11:02:155,12:11:02:978,12:11:05:981,left,12:11:07:716,,2012_Dec_31_1206,59.9520256822,MP-Perception Experiment,xx23w20,
29,training(26).webm,False,right,0,vgpdm_dyn(5)-lvm(20)_final(2).webm,0,28,28,95,,,,,,,,12:11:08:559,12:11:09:217,12:11:12:220,right,12:11:13:004,,2012_Dec_31_1206,59.9520256822,MP-Perception Experiment,xx23w20,
30,training(38).webm,False,right,0,vcgpdm_dyn(30)-lvm(10)_final(7).webm,0,29,29,20,,,,,,,,12:11:13:681,12:11:14:505,12:11:17:506,right,12:11:17:856,,2012_Dec_31_1206,59.9520256822,MP-Perception Experiment,xx23w20,
31,vcgpdm_dyn(30)-lvm(35)_final(6).webm,False,left,0,training(3).webm,0,30,30,43,,,,,,,,12:11:18:689,12:11:19:358,12:11:22:360,left,12:11:22:777,,2012_Dec_31_1206,59.9520256822,MP-Perception Experiment,xx23w20,
32,training(39).webm,False,right,0,dmp_npsi(15)_final(9).webm,0,31,31,109,,,,,,,,12:11:23:449,12:11:24:278,12:11:27:266,right,12:11:27:766,,2012_Dec_31_1206,59.9520256822,MP-Perception Experiment,xx23w20,
33,tmp_numprim(3)_final(9).webm,False,left,0,training(21).webm,0,32,32,146,,,,,,,,12:11:28:445,12:11:29:268,12:11:32:271,left,12:11:32:955,,2012_Dec_31_1206,59.9520256822,MP-Perception Experiment,xx23w20,
34,vcgpdm_dyn(5)-lvm(25)_final(9).webm,False,left,0,training(38).webm,0,33,33,16,,,,,,,,12:11:33:630,12:11:34:456,12:11:37:458,left,12:11:37:875,,2012_Dec_31_1206,59.9520256822,MP-Perception Experiment,xx23w20,
35,tmp_numprim(10)_final(4).webm,True,left,0,training(25).webm,0,34,34,56,,,,,,,,12:11:38:600,12:11:39:376,12:11:42:379,right,12:11:43:947,,2012_Dec_31_1206,59.9520256822,MP-Perception Experiment,xx23w20,
36,tmp_numprim(10)_final(9).webm,False,left,0,training(36).webm,0,35,35,6,,,,,,,,12:11:44:626,12:11:45:448,12:11:48:452,right,12:11:48:835,,2012_Dec_31_1206,59.9520256822,MP-Perception Experiment,xx23w20,
37,vcgpdm_dyn(10)-lvm(20)_final(8).webm,True,left,0,training(33).webm,0,36,36,84,,,,,,,,12:11:49:515,12:11:50:336,12:11:53:339,left,12:11:53:839,,2012_Dec_31_1206,59.9520256822,MP-Perception Experiment,xx23w20,
38,vcgpdm_dyn(15)-lvm(35)_final(2).webm,False,left,0,training(34).webm,0,37,37,35,,,,,,,,12:11:54:628,12:11:55:340,12:11:58:343,left,12:11:59:010,,2012_Dec_31_1206,59.9520256822,MP-Perception Experiment,xx23w20,
39,training(20).webm,True,right,0,vcgpdm_dyn(10)-lvm(10)_final(7).webm,0,38,38,93,,,,,,,,12:11:59:688,12:12:00:511,12:12:03:515,right,12:12:04:015,,2012_Dec_31_1206,59.9520256822,MP-Perception Experiment,xx23w20,
40,vgpdm_dyn(10)-lvm(15)_final(8).webm,False,left,0,training(18).webm,0,39,39,54,,,,,,,,12:12:04:691,12:12:05:531,12:12:08:517,right,12:12:09:318,,2012_Dec_31_1206,59.9520256822,MP-Perception Experiment,xx23w20,
41,training(32).webm,True,right,0,vcgpdm_dyn(20)-lvm(5)_final(1).webm,0,40,40,134,,,,,,,,12:12:10:168,12:12:10:819,12:12:13:821,left,12:12:14:438,,2012_Dec_31_1206,59.9520256822,MP-Perception Experiment,xx23w20,
42,training(25).webm,False,right,0,vgpdm_dyn(15)-lvm(10)_final(5)_out_of_screen.webm,0,41,41,149,,,,,,,,12:12:15:118,12:12:15:940,12:12:18:927,right,12:12:19:628,,2012_Dec_31_1206,59.9520256822,MP-Perception Experiment,xx23w20,
43,dmp_npsi(20)_final(7).webm,True,left,0,training(32).webm,0,42,42,65,,,,,,,,12:12:20:304,12:12:21:130,12:12:24:132,left,12:12:24:716,,2012_Dec_31_1206,59.9520256822,MP-Perception Experiment,xx23w20,
44,vcgpdm_dyn(20)-lvm(20)_final(8).webm,False,left,0,training(1).webm,0,43,43,48,,,,,,,,12:12:25:391,12:12:26:217,12:12:29:220,right,12:12:29:670,,2012_Dec_31_1206,59.9520256822,MP-Perception Experiment,xx23w20,
45,vcgpdm_dyn(30)-lvm(30)_final(2).webm,False,left,0,training(24).webm,0,44,44,23,,,,,,,,12:12:30:406,12:12:31:171,12:12:34:174,left,12:12:35:725,,2012_Dec_31_1206,59.9520256822,MP-Perception Experiment,xx23w20,
46,training(25).webm,False,right,0,tmp_numprim(8)_final(1).webm,0,45,45,111,,,,,,,,12:12:36:574,12:12:37:226,12:12:40:230,left,12:12:40:747,,2012_Dec_31_1206,59.9520256822,MP-Perception Experiment,xx23w20,
47,training(10).webm,True,right,0,vgpdm_dyn(35)-lvm(35)_final(7).webm,0,46,46,101,,,,,,,,12:12:41:425,12:12:42:248,12:12:45:251,left,12:12:45:701,,2012_Dec_31_1206,59.9520256822,MP-Perception Experiment,xx23w20,
48,vcgpdm_dyn(35)-lvm(25)_final(1).webm,False,left,0,training(12).webm,0,47,47,42,,,,,,,,12:12:46:449,12:12:47:202,12:12:50:205,left,12:12:50:722,,2012_Dec_31_1206,59.9520256822,MP-Perception Experiment,xx23w20,
49,training(27).webm,False,right,0,map_gpdm_final(8).webm,0,48,48,3,,,,,,,,12:12:51:399,12:12:52:223,12:12:55:223,right,12:12:55:558,,2012_Dec_31_1206,59.9520256822,MP-Perception Experiment,xx23w20,
50,training(0).webm,True,right,0,tmp_numprim(2)_final(6).webm,0,49,49,38,,,,,,,,12:12:56:389,12:12:57:059,12:13:00:062,right,12:13:00:479,,2012_Dec_31_1206,59.9520256822,MP-Perception Experiment,xx23w20,
51,vgpdm_dyn(25)-lvm(30)_final(9).webm,True,left,0,training(1).webm,0,50,50,37,,,,,,,,12:13:01:155,12:13:01:980,12:13:04:982,left,12:13:05:399,,2012_Dec_31_1206,59.9520256822,MP-Perception Experiment,xx23w20,
52,vcgpdm_dyn(35)-lvm(30)_final(8).webm,True,left,0,training(19).webm,0,51,51,142,,,,,,,,12:13:06:074,12:13:06:900,12:13:09:888,left,12:13:10:505,,2012_Dec_31_1206,59.9520256822,MP-Perception Experiment,xx23w20,
53,vgpdm_dyn(20)-lvm(5)_final(3).webm,False,left,0,training(27).webm,0,52,52,8,,,,,,,,12:13:11:185,12:13:12:006,12:13:15:010,left,12:13:15:544,,2012_Dec_31_1206,59.9520256822,MP-Perception Experiment,xx23w20,
54,training(40).webm,True,right,0,vgpdm_dyn(10)-lvm(15)_final(6).webm,0,53,53,136,,,,,,,,12:13:16:356,12:13:17:045,12:13:20:047,right,12:13:20:598,,2012_Dec_31_1206,59.9520256822,MP-Perception Experiment,xx23w20,
55,vgpdm_dyn(10)-lvm(20)_final(7).webm,True,left,0,training(22).webm,0,54,54,13,,,,,,,,12:13:21:275,12:13:22:099,12:13:25:101,left,12:13:25:668,,2012_Dec_31_1206,59.9520256822,MP-Perception Experiment,xx23w20,
56,training(30).webm,False,right,0,dmp_npsi(50)_final(6).webm,0,55,55,110,,,,,,,,12:13:26:344,12:13:27:169,12:13:30:172,right,12:13:30:824,,2012_Dec_31_1206,59.9520256822,MP-Perception Experiment,xx23w20,
57,training(4).webm,True,right,0,vcgpdm_dyn(20)-lvm(5)_final(2).webm,0,56,56,29,,,,,,,,12:13:31:635,12:13:32:325,12:13:35:327,left,12:13:35:711,,2012_Dec_31_1206,59.9520256822,MP-Perception Experiment,xx23w20,
58,training(17).webm,True,right,0,vcgpdm_dyn(5)-lvm(35)_final(7)_bad.webm,0,57,57,114,,,,,,,,12:13:36:386,12:13:37:212,12:13:40:215,right,12:13:40:631,,2012_Dec_31_1206,59.9520256822,MP-Perception Experiment,xx23w20,
59,vgpdm_dyn(25)-lvm(35)_final(7).webm,True,left,0,training(38).webm,0,58,58,130,,,,,,,,12:13:41:311,12:13:42:133,12:13:45:135,left,12:13:45:800,,2012_Dec_31_1206,59.9520256822,MP-Perception Experiment,xx23w20,
60,training(25).webm,True,right,0,vgpdm_dyn(30)-lvm(15)_final(0).webm,0,59,59,153,,,,,,,,12:13:46:476,12:13:47:302,12:13:50:305,right,12:13:50:772,,2012_Dec_31_1206,59.9520256822,MP-Perception Experiment,xx23w20,
61,tmp_numprim(3)_final(9).webm,True,left,0,training(30).webm,0,60,60,72,,,,,,,,12:13:51:447,12:13:52:273,12:13:55:276,left,12:13:55:826,,2012_Dec_31_1206,59.9520256822,MP-Perception Experiment,xx23w20,
62,vcgpdm_dyn(15)-lvm(5)_final(5).webm,False,left,0,training(15).webm,0,61,61,68,,,,,,,,12:13:56:659,12:13:57:329,12:14:00:315,left,12:14:00:649,,2012_Dec_31_1206,59.9520256822,MP-Perception Experiment,xx23w20,
63,training(12).webm,False,right,0,vgpdm_dyn(30)-lvm(15)_final(7).webm,0,62,62,70,,,,,,,,12:14:01:323,12:14:02:150,12:14:05:152,right,12:14:05:487,,2012_Dec_31_1206,59.9520256822,MP-Perception Experiment,xx23w20,
64,training(32).webm,True,right,0,vcgpdm_dyn(20)-lvm(25)_final(1).webm,0,63,63,60,,,,,,,,12:14:06:337,12:14:06:988,12:14:09:991,left,12:14:10:708,,2012_Dec_31_1206,59.9520256822,MP-Perception Experiment,xx23w20,
65,training(41).webm,False,right,0,vgpdm_dyn(35)-lvm(5)_final(1).webm,0,64,64,106,,,,,,,,12:14:11:556,12:14:12:209,12:14:15:211,right,12:14:15:712,,2012_Dec_31_1206,59.9520256822,MP-Perception Experiment,xx23w20,
66,training(34).webm,False,right,0,vgpdm_dyn(30)-lvm(5)_final(7).webm,0,65,65,83,,,,,,,,12:14:16:384,12:14:17:213,12:14:20:215,right,12:14:20:699,,2012_Dec_31_1206,59.9520256822,MP-Perception Experiment,xx23w20,
67,vcgpdm_dyn(25)-lvm(20)_final(0).webm,True,left,0,training(17).webm,0,66,66,126,,,,,,,,12:14:21:431,12:14:22:200,12:14:25:204,left,12:14:25:671,,2012_Dec_31_1206,59.9520256822,MP-Perception Experiment,xx23w20,
68,training(25).webm,True,right,0,vgpdm_dyn(5)-lvm(20)_final(0).webm,0,67,67,107,,,,,,,,12:14:26:483,12:14:27:172,12:14:30:174,right,12:14:31:275,,2012_Dec_31_1206,59.9520256822,MP-Perception Experiment,xx23w20,
69,vcgpdm_dyn(30)-lvm(5)_final(2).webm,True,left,0,training(11).webm,0,68,68,139,,,,,,,,12:14:31:957,12:14:32:776,12:14:35:777,right,12:14:36:278,,2012_Dec_31_1206,59.9520256822,MP-Perception Experiment,xx23w20,
70,training(23).webm,True,right,0,tmp_numprim(7)_final(7).webm,0,69,69,112,,,,,,,,12:14:36:958,12:14:37:779,12:14:40:782,left,12:14:41:266,,2012_Dec_31_1206,59.9520256822,MP-Perception Experiment,xx23w20,
71,training(22).webm,False,right,0,vgpdm_dyn(20)-lvm(35)_final(9).webm,0,70,70,92,,,,,,,,12:14:42:117,12:14:42:767,12:14:45:770,right,12:14:46:253,,2012_Dec_31_1206,59.9520256822,MP-Perception Experiment,xx23w20,
72,vgpdm_dyn(20)-lvm(5)_final(0).webm,False,left,0,training(4).webm,0,71,71,97,,,,,,,,12:14:46:929,12:14:47:754,12:14:50:742,left,12:14:51:059,,2012_Dec_31_1206,59.9520256822,MP-Perception Experiment,xx23w20,
73,training(11).webm,True,right,0,vgpdm_dyn(30)-lvm(30)_final(8).webm,0,72,72,152,,,,,,,,12:14:51:739,12:14:52:560,12:14:55:563,left,12:14:56:230,,2012_Dec_31_1206,59.9520256822,MP-Perception Experiment,xx23w20,
74,dmp_npsi(50)_final(0).webm,True,left,0,training(29).webm,0,73,73,76,,,,,,,,12:14:56:907,12:14:57:731,12:15:00:735,right,12:15:01:218,,2012_Dec_31_1206,59.9520256822,MP-Perception Experiment,xx23w20,
75,training(13).webm,False,right,0,vcgpdm_dyn(30)-lvm(15)_final(0).webm,0,74,74,28,,,,,,,,12:15:01:896,12:15:02:719,12:15:05:722,right,12:15:06:406,,2012_Dec_31_1206,59.9520256822,MP-Perception Experiment,xx23w20,
76,training(23).webm,True,right,0,vcgpdm_dyn(25)-lvm(35)_final(4).webm,0,75,75,125,,,,,,,,12:15:07:079,12:15:07:907,12:15:10:909,left,12:15:11:360,,2012_Dec_31_1206,59.9520256822,MP-Perception Experiment,xx23w20,
77,training(30).webm,False,right,0,vgpdm_dyn(10)-lvm(25)_final(7).webm,0,76,76,63,,,,,,,,12:15:12:036,12:15:12:861,12:15:15:864,left,12:15:16:315,,2012_Dec_31_1206,59.9520256822,MP-Perception Experiment,xx23w20,
78,training(0).webm,True,right,0,vcgpdm_dyn(15)-lvm(30)_final(9).webm,0,77,77,50,,,,,,,,12:15:16:992,12:15:17:816,12:15:20:818,right,12:15:21:252,,2012_Dec_31_1206,59.9520256822,MP-Perception Experiment,xx23w20,
79,training(26).webm,False,right,0,vgpdm_dyn(25)-lvm(35)_final(6).webm,0,78,78,33,,,,,,,,12:15:21:957,12:15:22:753,12:15:25:754,right,12:15:26:154,,2012_Dec_31_1206,59.9520256822,MP-Perception Experiment,xx23w20,
80,training(1).webm,True,right,0,vgpdm_dyn(10)-lvm(30)_final(2).webm,0,79,79,18,,,,,,,,12:15:26:985,12:15:27:655,12:15:30:658,right,12:15:31:258,,2012_Dec_31_1206,59.9520256822,MP-Perception Experiment,xx23w20,
81,training(17).webm,True,right,0,tmp_numprim(8)_final(2).webm,0,80,80,135,,,,,,,,12:15:31:936,12:15:32:759,12:15:35:763,right,12:15:36:766,,2012_Dec_31_1206,59.9520256822,MP-Perception Experiment,xx23w20,
82,vgpdm_dyn(10)-lvm(20)_final(7).webm,True,left,0,training(39).webm,0,81,81,5,,,,,,,,12:15:37:438,12:15:38:267,12:15:41:269,left,12:15:41:803,,2012_Dec_31_1206,59.9520256822,MP-Perception Experiment,xx23w20,
83,training(28).webm,False,right,0,vgpdm_dyn(15)-lvm(30)_final(5).webm,0,82,82,144,,,,,,,,12:15:42:481,12:15:43:304,12:15:46:307,right,12:15:46:690,,2012_Dec_31_1206,59.9520256822,MP-Perception Experiment,xx23w20,
84,training(48).webm,True,right,0,vcgpdm_dyn(20)-lvm(5)_final(1).webm,0,83,83,26,,,,,,,,12:15:47:370,12:15:48:191,12:15:51:195,right,12:15:53:330,,2012_Dec_31_1206,59.9520256822,MP-Perception Experiment,xx23w20,
85,training(33).webm,True,right,0,vcgpdm_dyn(10)-lvm(15)_final(0).webm,0,84,84,44,,,,,,,,12:15:54:013,12:15:54:831,12:15:57:834,left,12:15:58:417,,2012_Dec_31_1206,59.9520256822,MP-Perception Experiment,xx23w20,
86,training(7).webm,True,right,0,vcgpdm_dyn(5)-lvm(5)_final(4).webm,0,85,85,22,,,,,,,,12:15:59:268,12:15:59:918,12:16:02:921,right,12:16:05:490,,2012_Dec_31_1206,59.9520256822,MP-Perception Experiment,xx23w20,
87,vgpdm_dyn(35)-lvm(25)_final(3).webm,False,left,0,training(48).webm,0,86,86,9,,,,,,,,12:16:06:260,12:16:06:991,12:16:09:994,left,12:16:10:461,,2012_Dec_31_1206,59.9520256822,MP-Perception Experiment,xx23w20,
88,vgpdm_dyn(10)-lvm(5)_final(8).webm,True,left,0,training(23).webm,0,87,87,128,,,,,,,,12:16:11:290,12:16:11:962,12:16:14:965,left,12:16:15:464,,2012_Dec_31_1206,59.9520256822,MP-Perception Experiment,xx23w20,
89,training(13).webm,True,right,0,tmp_numprim(8)_final(9).webm,0,88,88,24,,,,,,,,12:16:16:145,12:16:16:965,12:16:19:967,right,12:16:20:451,,2012_Dec_31_1206,59.9520256822,MP-Perception Experiment,xx23w20,
90,training(17).webm,False,right,0,vcgpdm_dyn(15)-lvm(20)_final(2).webm,0,89,89,79,,,,,,,,12:16:21:130,12:16:21:952,12:16:24:955,right,12:16:25:556,,2012_Dec_31_1206,59.9520256822,MP-Perception Experiment,xx23w20,
91,vcgpdm_dyn(10)-lvm(10)_final(2).webm,True,left,0,training(32).webm,0,90,90,87,,,,,,,,12:16:26:236,12:16:27:059,12:16:30:045,right,12:16:30:729,,2012_Dec_31_1206,59.9520256822,MP-Perception Experiment,xx23w20,
92,training(32).webm,True,right,0,vcgpdm_dyn(25)-lvm(30)_final(0).webm,0,91,91,117,,,,,,,,12:16:31:586,12:16:32:230,12:16:35:232,left,12:16:35:699,,2012_Dec_31_1206,59.9520256822,MP-Perception Experiment,xx23w20,
93,vcgpdm_dyn(15)-lvm(30)_final(8).webm,False,left,0,training(24).webm,0,92,92,145,,,,,,,,12:16:36:374,12:16:37:201,12:16:40:203,right,12:16:40:837,,2012_Dec_31_1206,59.9520256822,MP-Perception Experiment,xx23w20,
94,vcgpdm_dyn(5)-lvm(10)_final(0).webm,False,left,0,training(2).webm,0,93,93,89,,,,,,,,12:16:41:587,12:16:42:338,12:16:45:342,left,12:16:45:809,,2012_Dec_31_1206,59.9520256822,MP-Perception Experiment,xx23w20,
95,vgpdm_dyn(30)-lvm(25)_final(0).webm,True,left,0,training(19).webm,0,94,94,94,,,,,,,,12:16:46:486,12:16:47:310,12:16:50:312,left,12:16:50:963,,2012_Dec_31_1206,59.9520256822,MP-Perception Experiment,xx23w20,
96,vgpdm_dyn(15)-lvm(25)_final(4).webm,False,left,0,training(15).webm,0,95,95,36,,,,,,,,12:16:51:692,12:16:52:464,12:16:55:466,left,12:16:55:983,,2012_Dec_31_1206,59.9520256822,MP-Perception Experiment,xx23w20,
97,training(0).webm,True,right,0,vgpdm_dyn(30)-lvm(10)_final(6).webm,0,96,96,25,,,,,,,,12:16:56:663,12:16:57:485,12:17:00:488,right,12:17:00:755,,2012_Dec_31_1206,59.9520256822,MP-Perception Experiment,xx23w20,
98,vcgpdm_dyn(15)-lvm(35)_final(6).webm,False,left,0,training(1).webm,0,97,97,123,,,,,,,,12:17:01:431,12:17:02:256,12:17:05:257,right,12:17:06:174,,2012_Dec_31_1206,59.9520256822,MP-Perception Experiment,xx23w20,
99,vgpdm_dyn(30)-lvm(15)_final(2).webm,True,left,0,training(40).webm,0,98,98,27,,,,,,,,12:17:06:851,12:17:07:675,12:17:10:678,left,12:17:11:145,,2012_Dec_31_1206,59.9520256822,MP-Perception Experiment,xx23w20,
100,vcgpdm_dyn(20)-lvm(15)_final(7).webm,True,left,0,training(16).webm,0,99,99,108,,,,,,,,12:17:11:937,12:17:12:646,12:17:15:649,right,12:17:16:366,,2012_Dec_31_1206,59.9520256822,MP-Perception Experiment,xx23w20,
101,training(10).webm,False,right,0,dmp_npsi(20)_final(0).webm,0,100,100,31,,,,,,,,12:17:17:215,12:17:17:868,12:17:20:855,right,12:17:21:239,,2012_Dec_31_1206,59.9520256822,MP-Perception Experiment,xx23w20,
102,vgpdm_dyn(10)-lvm(5)_final(4).webm,True,left,0,training(38).webm,0,101,101,62,,,,,,,,12:17:21:916,12:17:22:740,12:17:25:743,left,12:17:26:176,,2012_Dec_31_1206,59.9520256822,MP-Perception Experiment,xx23w20,
103,training(34).webm,False,right,0,vcgpdm_dyn(25)-lvm(10)_final(6).webm,0,102,102,0,,,,,,,,12:17:27:027,12:17:27:678,12:17:30:680,left,12:17:31:180,,2012_Dec_31_1206,59.9520256822,MP-Perception Experiment,xx23w20,
104,training(30).webm,True,right,0,map_gpdm_final(9).webm,0,103,103,100,,,,,,,,12:17:31:860,12:17:32:682,12:17:35:685,right,12:17:36:135,,2012_Dec_31_1206,59.9520256822,MP-Perception Experiment,xx23w20,
105,vcgpdm_dyn(15)-lvm(20)_final(3).webm,True,left,0,training(31).webm,0,104,104,11,,,,,,,,12:17:36:817,12:17:37:637,12:17:40:639,left,12:17:41:340,,2012_Dec_31_1206,59.9520256822,MP-Perception Experiment,xx23w20,
106,vgpdm_dyn(10)-lvm(35)_final(2).webm,True,left,0,training(10).webm,0,105,105,156,,,,,,,,12:17:42:163,12:17:42:841,12:17:45:843,left,12:17:46:277,,2012_Dec_31_1206,59.9520256822,MP-Perception Experiment,xx23w20,
107,training(16).webm,False,right,0,vgpdm_dyn(35)-lvm(30)_final(4).webm,0,106,106,121,,,,,,,,12:17:46:957,12:17:47:778,12:17:50:781,right,12:17:51:531,,2012_Dec_31_1206,59.9520256822,MP-Perception Experiment,xx23w20,
108,training(27).webm,False,right,0,vcgpdm_dyn(20)-lvm(20)_final(7).webm,0,107,107,104,,,,,,,,12:17:52:345,12:17:53:033,12:17:56:034,right,12:17:58:052,,2012_Dec_31_1206,59.9520256822,MP-Perception Experiment,xx23w20,
109,training(9).webm,True,right,0,tmp_numprim(5)_final(9).webm,0,108,108,61,,,,,,,,12:17:58:728,12:17:59:554,12:18:02:556,right,12:18:02:973,,2012_Dec_31_1206,59.9520256822,MP-Perception Experiment,xx23w20,
110,vgpdm_dyn(20)-lvm(15)_final(7).webm,True,left,0,training(34).webm,0,109,109,57,,,,,,,,12:18:03:648,12:18:04:474,12:18:07:462,left,12:18:08:029,,2012_Dec_31_1206,59.9520256822,MP-Perception Experiment,xx23w20,
111,training(39).webm,False,right,0,vcgpdm_dyn(20)-lvm(15)_final(6).webm,0,110,110,51,,,,,,,,12:18:08:877,12:18:09:530,12:18:12:534,right,12:18:13:201,,2012_Dec_31_1206,59.9520256822,MP-Perception Experiment,xx23w20,
112,dmp_npsi(35)_final(2).webm,False,left,0,training(2).webm,0,111,111,91,,,,,,,,12:18:13:876,12:18:14:702,12:18:17:704,left,12:18:18:405,,2012_Dec_31_1206,59.9520256822,MP-Perception Experiment,xx23w20,
113,vcgpdm_dyn(20)-lvm(10)_final(6).webm,False,left,0,training(17).webm,0,112,112,49,,,,,,,,12:18:19:079,12:18:19:906,12:18:22:909,right,12:18:23:526,,2012_Dec_31_1206,59.9520256822,MP-Perception Experiment,xx23w20,
114,vcgpdm_dyn(25)-lvm(20)_final(9).webm,True,left,0,training(38).webm,0,113,113,122,,,,,,,,12:18:24:204,12:18:25:027,12:18:28:030,right,12:18:28:381,,2012_Dec_31_1206,59.9520256822,MP-Perception Experiment,xx23w20,
115,vgpdm_dyn(10)-lvm(30)_final(7).webm,False,left,0,training(33).webm,0,114,114,119,,,,,,,,12:18:29:060,12:18:29:882,12:18:32:884,left,12:18:33:285,,2012_Dec_31_1206,59.9520256822,MP-Perception Experiment,xx23w20,
116,training(48).webm,False,right,0,vgpdm_dyn(30)-lvm(15)_final(2).webm,0,115,115,90,,,,,,,,12:18:33:959,12:18:34:786,12:18:37:788,right,12:18:40:440,,2012_Dec_31_1206,59.9520256822,MP-Perception Experiment,xx23w20,
117,vcgpdm_dyn(25)-lvm(35)_final(8).webm,True,left,0,training(27).webm,0,116,116,41,,,,,,,,12:18:41:212,12:18:41:941,12:18:44:944,left,12:18:45:527,,2012_Dec_31_1206,59.9520256822,MP-Perception Experiment,xx23w20,
118,vgpdm_dyn(35)-lvm(10)_final(2).webm,True,left,0,training(32).webm,0,117,117,17,,,,,,,,12:18:46:277,12:18:47:028,12:18:50:031,left,12:18:50:648,,2012_Dec_31_1206,59.9520256822,MP-Perception Experiment,xx23w20,
119,vgpdm_dyn(20)-lvm(30)_final(5).webm,False,left,0,training(13).webm,0,118,118,40,,,,,,,,12:18:51:390,12:18:52:149,12:18:55:151,right,12:18:58:723,,2012_Dec_31_1206,59.9520256822,MP-Perception Experiment,xx23w20,
120,training(6).webm,False,right,0,vgpdm_dyn(5)-lvm(10)_final(6).webm,0,119,119,116,,,,,,,,12:18:59:395,12:19:00:224,12:19:03:228,right,12:19:03:594,,2012_Dec_31_1206,59.9520256822,MP-Perception Experiment,xx23w20,
121,vcgpdm_dyn(20)-lvm(30)_final(5).webm,False,left,0,training(10).webm,0,120,120,71,,,,,,,,12:19:04:355,12:19:05:096,12:19:08:098,left,12:19:09:049,,2012_Dec_31_1206,59.9520256822,MP-Perception Experiment,xx23w20,
122,training(19).webm,False,right,0,vcgpdm_dyn(20)-lvm(10)_final(4).webm,0,121,121,85,,,,,,,,12:19:09:898,12:19:10:550,12:19:13:553,left,12:19:13:936,,2012_Dec_31_1206,59.9520256822,MP-Perception Experiment,xx23w20,
123,vcgpdm_dyn(10)-lvm(35)_final(1).webm,True,left,0,training(1).webm,0,122,122,138,,,,,,,,12:19:14:769,12:19:15:437,12:19:18:440,left,12:19:19:240,,2012_Dec_31_1206,59.9520256822,MP-Perception Experiment,xx23w20,
124,training(19).webm,True,right,0,vcgpdm_dyn(20)-lvm(35)_final(7).webm,0,123,123,58,,,,,,,,12:19:20:075,12:19:20:742,12:19:23:745,left,12:19:24:079,,2012_Dec_31_1206,59.9520256822,MP-Perception Experiment,xx23w20,
125,vgpdm_dyn(30)-lvm(5)_final(4).webm,True,left,0,training(4).webm,0,124,124,52,,,,,,,,12:19:24:856,12:19:25:580,12:19:28:582,left,12:19:28:933,,2012_Dec_31_1206,59.9520256822,MP-Perception Experiment,xx23w20,
126,vcgpdm_dyn(25)-lvm(10)_final(3).webm,False,left,0,training(7).webm,0,125,125,14,,,,,,,,12:19:29:663,12:19:30:434,12:19:33:436,left,12:19:33:820,,2012_Dec_31_1206,59.9520256822,MP-Perception Experiment,xx23w20,
127,vgpdm_dyn(10)-lvm(25)_final(4).webm,False,left,0,training(1).webm,0,126,126,1,,,,,,,,12:19:34:669,12:19:35:336,12:19:38:323,left,12:19:38:740,,2012_Dec_31_1206,59.9520256822,MP-Perception Experiment,xx23w20,
128,training(21).webm,True,right,0,vcgpdm_dyn(20)-lvm(25)_final(3).webm,0,127,127,67,,,,,,,,12:19:39:422,12:19:40:241,12:19:43:243,right,12:19:43:677,,2012_Dec_31_1206,59.9520256822,MP-Perception Experiment,xx23w20,
129,vgpdm_dyn(15)-lvm(35)_final(9).webm,True,left,0,training(3).webm,0,128,128,137,,,,,,,,12:19:44:359,12:19:45:178,12:19:48:166,left,12:19:50:251,,2012_Dec_31_1206,59.9520256822,MP-Perception Experiment,xx23w20,
130,training(6).webm,True,right,0,vcgpdm_dyn(15)-lvm(5)_final(2).webm,0,129,129,115,,,,,,,,12:19:50:929,12:19:51:752,12:19:54:754,right,12:19:55:072,,2012_Dec_31_1206,59.9520256822,MP-Perception Experiment,xx23w20,
131,vgpdm_dyn(20)-lvm(30)_final(0).webm,True,left,0,training(11).webm,0,130,130,118,,,,,,,,12:19:55:823,12:19:56:573,12:19:59:576,left,12:20:00:193,,2012_Dec_31_1206,59.9520256822,MP-Perception Experiment,xx23w20,
132,training(7).webm,True,right,0,vgpdm_dyn(30)-lvm(35)_final(6).webm,0,131,131,105,,,,,,,,12:20:01:041,12:20:01:694,12:20:04:697,left,12:20:05:030,,2012_Dec_31_1206,59.9520256822,MP-Perception Experiment,xx23w20,
133,training(33).webm,False,right,0,vgpdm_dyn(35)-lvm(5)_final(2).webm,0,132,132,96,,,,,,,,12:20:05:710,12:20:06:531,12:20:09:534,right,12:20:09:884,,2012_Dec_31_1206,59.9520256822,MP-Perception Experiment,xx23w20,
134,training(4).webm,True,right,0,vgpdm_dyn(10)-lvm(10)_final(0).webm,0,133,133,140,,,,,,,,12:20:10:730,12:20:11:385,12:20:14:389,left,12:20:14:839,,2012_Dec_31_1206,59.9520256822,MP-Perception Experiment,xx23w20,
135,training(9).webm,False,right,0,vgpdm_dyn(20)-lvm(20)_final(8).webm,0,134,134,129,,,,,,,,12:20:15:691,12:20:16:340,12:20:19:343,right,12:20:19:910,,2012_Dec_31_1206,59.9520256822,MP-Perception Experiment,xx23w20,
136,training(8).webm,False,right,0,tmp_numprim(9)_final(5).webm,0,135,135,46,,,,,,,,12:20:20:738,12:20:21:411,12:20:24:414,left,12:20:25:529,,2012_Dec_31_1206,59.9520256822,MP-Perception Experiment,xx23w20,
137,training(18).webm,False,right,0,vgpdm_dyn(10)-lvm(35)_final(0).webm,0,136,136,7,,,,,,,,12:20:26:206,12:20:27:031,12:20:30:034,right,12:20:30:151,,2012_Dec_31_1206,59.9520256822,MP-Perception Experiment,xx23w20,
138,training(25).webm,False,right,0,vgpdm_dyn(5)-lvm(10)_final(0).webm,0,137,137,155,,,,,,,,12:20:30:984,12:20:31:652,12:20:34:654,right,12:20:34:988,,2012_Dec_31_1206,59.9520256822,MP-Perception Experiment,xx23w20,
139,training(23).webm,True,right,0,vcgpdm_dyn(25)-lvm(15)_final(0).webm,0,138,138,12,,,,,,,,12:20:35:798,12:20:36:489,12:20:39:477,left,12:20:40:161,,2012_Dec_31_1206,59.9520256822,MP-Perception Experiment,xx23w20,
140,vgpdm_dyn(10)-lvm(25)_final(9).webm,False,left,0,training(28).webm,0,139,139,66,,,,,,,,12:20:40:899,12:20:41:662,12:20:44:664,right,12:20:47:216,,2012_Dec_31_1206,59.9520256822,MP-Perception Experiment,xx23w20,
141,vcgpdm_dyn(10)-lvm(25)_final(3).webm,True,left,0,training(40).webm,0,140,140,10,,,,,,,,12:20:48:065,12:20:48:718,12:20:51:721,left,12:20:52:338,,2012_Dec_31_1206,59.9520256822,MP-Perception Experiment,xx23w20,
142,vgpdm_dyn(25)-lvm(20)_final(9).webm,False,left,0,training(15).webm,0,141,141,148,,,,,,,,12:20:53:012,12:20:53:839,12:20:56:842,right,12:20:57:125,,2012_Dec_31_1206,59.9520256822,MP-Perception Experiment,xx23w20,
143,vgpdm_dyn(35)-lvm(25)_final(6).webm,True,left,0,training(15).webm,0,142,142,131,,,,,,,,12:20:57:825,12:20:58:626,12:21:01:629,left,12:21:02:046,,2012_Dec_31_1206,59.9520256822,MP-Perception Experiment,xx23w20,
144,training(26).webm,False,right,0,vgpdm_dyn(15)-lvm(25)_final(9).webm,0,143,143,32,,,,,,,,12:21:02:730,12:21:03:547,12:21:06:551,left,12:21:06:917,,2012_Dec_31_1206,59.9520256822,MP-Perception Experiment,xx23w20,
145,training(3).webm,True,right,0,vgpdm_dyn(15)-lvm(25)_final(5).webm,0,144,144,59,,,,,,,,12:21:07:587,12:21:08:419,12:21:11:421,left,12:21:11:838,,2012_Dec_31_1206,59.9520256822,MP-Perception Experiment,xx23w20,
146,training(7).webm,True,right,0,vcgpdm_dyn(25)-lvm(5)_final(4).webm,0,145,145,124,,,,,,,,12:21:12:679,12:21:13:339,12:21:16:340,left,12:21:16:707,,2012_Dec_31_1206,59.9520256822,MP-Perception Experiment,xx23w20,
147,training(10).webm,False,right,0,vcgpdm_dyn(35)-lvm(10)_final(8).webm,0,146,146,53,,,,,,,,12:21:17:553,12:21:18:208,12:21:21:211,left,12:21:22:045,,2012_Dec_31_1206,59.9520256822,MP-Perception Experiment,xx23w20,
148,vgpdm_dyn(30)-lvm(20)_final(0).webm,True,left,0,training(29).webm,0,147,147,47,,,,,,,,12:21:22:892,12:21:23:547,12:21:26:549,right,12:21:26:851,,2012_Dec_31_1206,59.9520256822,MP-Perception Experiment,xx23w20,
149,vcgpdm_dyn(10)-lvm(30)_final(9).webm,True,left,0,training(9).webm,0,148,148,80,,,,,,,,12:21:27:538,12:21:28:352,12:21:31:355,left,12:21:32:056,,2012_Dec_31_1206,59.9520256822,MP-Perception Experiment,xx23w20,
150,training(25).webm,True,right,0,vgpdm_dyn(30)-lvm(15)_final(7).webm,0,149,149,127,,,,,,,,12:21:32:755,12:21:33:557,12:21:36:559,right,12:21:36:893,,2012_Dec_31_1206,59.9520256822,MP-Perception Experiment,xx23w20,
151,training(48).webm,False,right,0,vcgpdm_dyn(15)-lvm(25)_final(0).webm,0,150,150,120,,,,,,,,12:21:37:613,12:21:38:394,12:21:41:398,right,12:21:41:965,,2012_Dec_31_1206,59.9520256822,MP-Perception Experiment,xx23w20,
152,tmp_numprim(6)_final(8).webm,True,left,0,training(22).webm,0,151,151,88,,,,,,,,12:21:42:702,12:21:43:466,12:21:46:468,left,12:21:46:785,,2012_Dec_31_1206,59.9520256822,MP-Perception Experiment,xx23w20,
153,training(29).webm,False,right,0,tmp_numprim(3)_final(7).webm,0,152,152,74,,,,,,,,12:21:47:681,12:21:48:286,12:21:51:289,right,12:21:51:656,,2012_Dec_31_1206,59.9520256822,MP-Perception Experiment,xx23w20,
154,training(21).webm,False,right,0,dmp_npsi(45)_final(1).webm,0,153,153,69,,,,,,,,12:21:52:532,12:21:53:157,12:21:56:159,left,12:21:57:260,,2012_Dec_31_1206,59.9520256822,MP-Perception Experiment,xx23w20,
155,vcgpdm_dyn(25)-lvm(30)_final(7).webm,True,left,0,training(41).webm,0,154,154,151,,,,,,,,12:21:57:952,12:21:58:762,12:22:01:765,left,12:22:02:432,,2012_Dec_31_1206,59.9520256822,MP-Perception Experiment,xx23w20,
156,training(21).webm,True,right,0,vcgpdm_dyn(15)-lvm(5)_final(6).webm,0,155,155,64,,,,,,,,12:22:03:296,12:22:03:933,12:22:06:934,right,12:22:07:368,,2012_Dec_31_1206,59.9520256822,MP-Perception Experiment,xx23w20,
157,training(19).webm,False,right,0,vgpdm_dyn(30)-lvm(25)_final(8).webm,0,156,156,82,,,,,,,,12:22:08:059,12:22:08:869,12:22:11:871,right,12:22:11:971,,2012_Dec_31_1206,59.9520256822,MP-Perception Experiment,xx23w20,
158,training(37).webm,False,right,0,vcgpdm_dyn(10)-lvm(35)_final(5).webm,0,157,157,133,,,,,,,,12:22:12:839,12:22:13:472,12:22:16:476,left,12:22:17:427,,2012_Dec_31_1206,59.9520256822,MP-Perception Experiment,xx23w20,
159,dmp_npsi(25)_final(6).webm,True,left,0,training(11).webm,0,158,158,78,,,,,,,,12:22:18:198,12:22:18:928,12:22:21:915,left,12:22:22:299,,2012_Dec_31_1206,59.9520256822,MP-Perception Experiment,xx23w20,
160,training(48).webm,False,right,1,vgpdm_dyn(30)-lvm(25)_final(5).webm,0,0,0,33,,,,,,,,12:25:10:688,12:25:11:529,12:25:14:515,right,12:25:15:149,,2012_Dec_31_1206,59.9520256822,MP-Perception Experiment,xx23w20,
161,training(19).webm,False,right,1,vgpdm_dyn(10)-lvm(35)_final(8).webm,0,1,1,91,,,,,,,,12:25:15:999,12:25:16:650,12:25:19:652,right,12:25:19:736,,2012_Dec_31_1206,59.9520256822,MP-Perception Experiment,xx23w20,
162,vgpdm_dyn(35)-lvm(30)_final(7).webm,True,left,1,training(10).webm,0,2,2,107,,,,,,,,12:25:20:417,12:25:21:237,12:25:24:239,left,12:25:24:840,,2012_Dec_31_1206,59.9520256822,MP-Perception Experiment,xx23w20,
163,training(8).webm,True,right,1,vcgpdm_dyn(10)-lvm(5)_final(7).webm,0,3,3,3,,,,,,,,12:25:25:528,12:25:26:356,12:25:29:359,right,12:25:29:743,,2012_Dec_31_1206,59.9520256822,MP-Perception Experiment,xx23w20,
164,training(14).webm,True,right,1,tmp_numprim(4)_final(2).webm,0,4,4,23,,,,,,,,12:25:30:589,12:25:31:244,12:25:34:247,right,12:25:34:447,,2012_Dec_31_1206,59.9520256822,MP-Perception Experiment,xx23w20,
165,training(23).webm,False,right,1,vgpdm_dyn(5)-lvm(15)_final(1).webm,0,5,5,149,,,,,,,,12:25:35:275,12:25:35:948,12:25:38:935,right,12:25:39:686,,2012_Dec_31_1206,59.9520256822,MP-Perception Experiment,xx23w20,
166,vgpdm_dyn(35)-lvm(30)_final(2).webm,False,left,1,training(11).webm,0,6,6,98,,,,,,,,12:25:40:536,12:25:41:187,12:25:44:190,right,12:25:44:673,,2012_Dec_31_1206,59.9520256822,MP-Perception Experiment,xx23w20,
167,training(0).webm,False,right,1,vcgpdm_dyn(20)-lvm(20)_final(4).webm,0,7,7,112,,,,,,,,12:25:45:543,12:25:46:176,12:25:49:178,right,12:25:49:728,,2012_Dec_31_1206,59.9520256822,MP-Perception Experiment,xx23w20,
168,training(7).webm,False,right,1,vgpdm_dyn(15)-lvm(30)_final(0).webm,0,8,8,77,,,,,,,,12:25:50:581,12:25:51:230,12:25:54:232,right,12:25:54:783,,2012_Dec_31_1206,59.9520256822,MP-Perception Experiment,xx23w20,
169,training(29).webm,False,right,1,vcgpdm_dyn(5)-lvm(20)_final(8).webm,0,9,9,50,,,,,,,,12:25:55:632,12:25:56:284,12:25:59:286,right,12:25:59:687,,2012_Dec_31_1206,59.9520256822,MP-Perception Experiment,xx23w20,
170,training(31).webm,True,right,1,vcgpdm_dyn(35)-lvm(25)_final(8).webm,0,10,10,109,,,,,,,,12:26:00:533,12:26:01:188,12:26:04:191,left,12:26:05:109,,2012_Dec_31_1206,59.9520256822,MP-Perception Experiment,xx23w20,
171,vgpdm_dyn(20)-lvm(20)_final(3).webm,True,left,1,training(2).webm,0,11,11,81,,,,,,,,12:26:05:786,12:26:06:610,12:26:09:612,left,12:26:11:564,,2012_Dec_31_1206,59.9520256822,MP-Perception Experiment,xx23w20,
172,vcgpdm_dyn(35)-lvm(30)_final(5).webm,False,left,1,training(41).webm,0,12,12,132,,,,,,,,12:26:12:241,12:26:13:065,12:26:16:066,left,12:26:16:616,,2012_Dec_31_1206,59.9520256822,MP-Perception Experiment,xx23w20,
173,training(21).webm,True,right,1,vcgpdm_dyn(20)-lvm(15)_final(7).webm,0,13,13,104,,,,,,,,12:26:17:291,12:26:18:117,12:26:21:121,left,12:26:21:588,,2012_Dec_31_1206,59.9520256822,MP-Perception Experiment,xx23w20,
174,vgpdm_dyn(15)-lvm(35)_final(3).webm,False,left,1,training(21).webm,0,14,14,28,,,,,,,,12:26:22:267,12:26:23:089,12:26:26:091,right,12:26:27:044,,2012_Dec_31_1206,59.9520256822,MP-Perception Experiment,xx23w20,
175,training(4).webm,False,right,1,vcgpdm_dyn(15)-lvm(35)_final(1).webm,0,15,15,68,,,,,,,,12:26:27:725,12:26:28:545,12:26:31:548,left,12:26:32:398,,2012_Dec_31_1206,59.9520256822,MP-Perception Experiment,xx23w20,
176,training(12).webm,False,right,1,vgpdm_dyn(15)-lvm(25)_final(0).webm,0,16,16,75,,,,,,,,12:26:33:247,12:26:33:899,12:26:36:902,right,12:26:37:337,,2012_Dec_31_1206,59.9520256822,MP-Perception Experiment,xx23w20,
177,training(31).webm,True,right,1,vgpdm_dyn(20)-lvm(25)_final(2).webm,0,17,17,84,,,,,,,,12:26:38:015,12:26:38:838,12:26:41:840,left,12:26:42:407,,2012_Dec_31_1206,59.9520256822,MP-Perception Experiment,xx23w20,
178,vcgpdm_dyn(15)-lvm(25)_final(6).webm,True,left,1,training(16).webm,0,18,18,100,,,,,,,,12:26:43:092,12:26:43:908,12:26:46:911,left,12:26:47:295,,2012_Dec_31_1206,59.9520256822,MP-Perception Experiment,xx23w20,
179,vgpdm_dyn(20)-lvm(30)_final(3).webm,False,left,1,training(12).webm,0,19,19,37,,,,,,,,12:26:48:085,12:26:48:796,12:26:51:798,right,12:26:52:515,,2012_Dec_31_1206,59.9520256822,MP-Perception Experiment,xx23w20,
180,vgpdm_dyn(20)-lvm(20)_final(5).webm,True,left,1,training(5).webm,0,20,20,88,,,,,,,,12:26:53:196,12:26:54:017,12:26:57:020,right,12:26:57:521,,2012_Dec_31_1206,59.9520256822,MP-Perception Experiment,xx23w20,
181,training(25).webm,False,right,1,vcgpdm_dyn(20)-lvm(5)_final(6).webm,0,21,21,128,,,,,,,,12:26:58:200,12:26:59:022,12:27:02:024,right,12:27:02:458,,2012_Dec_31_1206,59.9520256822,MP-Perception Experiment,xx23w20,
182,training(13).webm,False,right,1,vcgpdm_dyn(10)-lvm(30)_final(1).webm,0,22,22,110,,,,,,,,12:27:03:306,12:27:03:959,12:27:06:960,right,12:27:07:443,,2012_Dec_31_1206,59.9520256822,MP-Perception Experiment,xx23w20,
183,vgpdm_dyn(15)-lvm(35)_final(3).webm,True,left,1,training(32).webm,0,23,23,66,,,,,,,,12:27:08:124,12:27:08:945,12:27:11:947,right,12:27:13:466,,2012_Dec_31_1206,59.9520256822,MP-Perception Experiment,xx23w20,
184,training(17).webm,False,right,1,vcgpdm_dyn(30)-lvm(20)_final(3).webm,0,24,24,53,,,,,,,,12:27:14:296,12:27:14:967,12:27:17:970,right,12:27:18:387,,2012_Dec_31_1206,59.9520256822,MP-Perception Experiment,xx23w20,
185,vgpdm_dyn(10)-lvm(5)_final(6).webm,True,left,1,training(24).webm,0,25,25,18,,,,,,,,12:27:19:231,12:27:19:889,12:27:22:875,left,12:27:24:076,,2012_Dec_31_1206,59.9520256822,MP-Perception Experiment,xx23w20,
186,training(8).webm,False,right,1,vcgpdm_dyn(5)-lvm(15)_final(4).webm,0,26,26,20,,,,,,,,12:27:24:905,12:27:25:577,12:27:28:580,right,12:27:29:164,,2012_Dec_31_1206,59.9520256822,MP-Perception Experiment,xx23w20,
187,vgpdm_dyn(25)-lvm(5)_final(5).webm,True,left,1,training(20).webm,0,27,27,41,,,,,,,,12:27:29:838,12:27:30:666,12:27:33:668,left,12:27:34:119,,2012_Dec_31_1206,59.9520256822,MP-Perception Experiment,xx23w20,
188,training(29).webm,True,right,1,vgpdm_dyn(10)-lvm(15)_final(7).webm,0,28,28,74,,,,,,,,12:27:34:797,12:27:35:620,12:27:38:622,left,12:27:39:773,,2012_Dec_31_1206,59.9520256822,MP-Perception Experiment,xx23w20,
189,training(27).webm,False,right,1,vcgpdm_dyn(35)-lvm(20)_final(2).webm,0,29,29,42,,,,,,,,12:27:40:447,12:27:41:274,12:27:44:277,left,12:27:45:078,,2012_Dec_31_1206,59.9520256822,MP-Perception Experiment,xx23w20,
190,training(30).webm,False,right,1,tmp_numprim(5)_final(3).webm,0,30,30,114,,,,,,,,12:27:45:754,12:27:46:579,12:27:49:582,right,12:27:50:183,,2012_Dec_31_1206,59.9520256822,MP-Perception Experiment,xx23w20,
191,training(18).webm,False,right,1,vgpdm_dyn(20)-lvm(15)_final(0).webm,0,31,31,129,,,,,,,,12:27:50:860,12:27:51:684,12:27:54:686,right,12:27:55:003,,2012_Dec_31_1206,59.9520256822,MP-Perception Experiment,xx23w20,
192,training(9).webm,False,right,1,tmp_numprim(5)_final(4).webm,0,32,32,148,,,,,,,,12:27:55:776,12:27:56:519,12:27:59:522,right,12:28:00:306,,2012_Dec_31_1206,59.9520256822,MP-Perception Experiment,xx23w20,
193,training(37).webm,False,right,1,vgpdm_dyn(20)-lvm(25)_final(9).webm,0,33,33,106,,,,,,,,12:28:00:982,12:28:01:807,12:28:04:810,right,12:28:05:428,,2012_Dec_31_1206,59.9520256822,MP-Perception Experiment,xx23w20,
194,vgpdm_dyn(35)-lvm(25)_final(5).webm,True,left,1,training(35).webm,0,34,34,63,,,,,,,,12:28:06:276,12:28:06:930,12:28:09:916,left,12:28:10:483,,2012_Dec_31_1206,59.9520256822,MP-Perception Experiment,xx23w20,
195,vcgpdm_dyn(35)-lvm(10)_final(9).webm,False,left,1,training(17).webm,0,35,35,57,,,,,,,,12:28:11:159,12:28:11:985,12:28:14:987,left,12:28:15:521,,2012_Dec_31_1206,59.9520256822,MP-Perception Experiment,xx23w20,
196,vcgpdm_dyn(20)-lvm(10)_final(5).webm,True,left,1,training(9).webm,0,36,36,154,,,,,,,,12:28:16:197,12:28:17:022,12:28:20:025,left,12:28:20:441,,2012_Dec_31_1206,59.9520256822,MP-Perception Experiment,xx23w20,
197,training(31).webm,True,right,1,vgpdm_dyn(20)-lvm(30)_final(1).webm,0,37,37,76,,,,,,,,12:28:21:121,12:28:21:943,12:28:24:946,left,12:28:25:530,,2012_Dec_31_1206,59.9520256822,MP-Perception Experiment,xx23w20,
198,vcgpdm_dyn(35)-lvm(20)_final(8).webm,False,left,1,training(36).webm,0,38,38,4,,,,,,,,12:28:26:310,12:28:27:031,12:28:30:034,right,12:28:30:651,,2012_Dec_31_1206,59.9520256822,MP-Perception Experiment,xx23w20,
199,training(30).webm,False,right,1,vcgpdm_dyn(20)-lvm(10)_final(7).webm,0,39,39,111,,,,,,,,12:28:31:508,12:28:32:152,12:28:35:154,left,12:28:35:955,,2012_Dec_31_1206,59.9520256822,MP-Perception Experiment,xx23w20,
200,vgpdm_dyn(25)-lvm(30)_final(6).webm,True,left,1,training(34).webm,0,40,40,5,,,,,,,,12:28:36:649,12:28:37:456,12:28:40:460,left,12:28:40:910,,2012_Dec_31_1206,59.9520256822,MP-Perception Experiment,xx23w20,
201,training(0).webm,False,right,1,tmp_numprim(7)_final(0).webm,0,41,41,143,,,,,,,,12:28:41:783,12:28:42:411,12:28:45:412,left,12:28:45:962,,2012_Dec_31_1206,59.9520256822,MP-Perception Experiment,xx23w20,
202,map_cgpdm_final(1).webm,True,left,1,training(20).webm,0,42,42,71,,,,,,,,12:28:46:674,12:28:47:463,12:28:50:466,right,12:28:51:233,,2012_Dec_31_1206,59.9520256822,MP-Perception Experiment,xx23w20,
203,training(22).webm,True,right,1,vcgpdm_dyn(20)-lvm(15)_final(6).webm,0,43,43,26,,,,,,,,12:28:51:924,12:28:52:734,12:28:55:737,left,12:28:56:120,,2012_Dec_31_1206,59.9520256822,MP-Perception Experiment,xx23w20,
204,dmp_npsi(25)_final(5).webm,False,left,1,training(12).webm,0,44,44,117,,,,,,,,12:28:56:798,12:28:57:623,12:29:00:610,left,12:29:01:011,,2012_Dec_31_1206,59.9520256822,MP-Perception Experiment,xx23w20,
205,training(32).webm,False,right,1,vcgpdm_dyn(5)-lvm(25)_final(6).webm,0,45,45,61,,,,,,,,12:29:01:685,12:29:02:512,12:29:05:514,right,12:29:06:015,,2012_Dec_31_1206,59.9520256822,MP-Perception Experiment,xx23w20,
206,training(15).webm,False,right,1,vcgpdm_dyn(35)-lvm(30)_final(0).webm,0,46,46,58,,,,,,,,12:29:06:842,12:29:07:516,12:29:10:518,left,12:29:11:836,,2012_Dec_31_1206,59.9520256822,MP-Perception Experiment,xx23w20,
207,training(25).webm,True,right,1,vcgpdm_dyn(25)-lvm(25)_final(1).webm,0,47,47,31,,,,,,,,12:29:12:679,12:29:13:337,12:29:16:341,left,12:29:17:191,,2012_Dec_31_1206,59.9520256822,MP-Perception Experiment,xx23w20,
208,training(32).webm,True,right,1,tmp_numprim(5)_final(2).webm,0,48,48,30,,,,,,,,12:29:18:039,12:29:18:692,12:29:21:695,right,12:29:22:112,,2012_Dec_31_1206,59.9520256822,MP-Perception Experiment,xx23w20,
209,vgpdm_dyn(30)-lvm(10)_final(3).webm,False,left,1,training(39).webm,0,49,49,82,,,,,,,,12:29:22:792,12:29:23:613,12:29:26:616,right,12:29:26:832,,2012_Dec_31_1206,59.9520256822,MP-Perception Experiment,xx23w20,
210,vcgpdm_dyn(15)-lvm(15)_final(4).webm,False,left,1,training(48).webm,0,50,50,113,,,,,,,,12:29:27:681,12:29:28:333,12:29:31:336,left,12:29:32:054,,2012_Dec_31_1206,59.9520256822,MP-Perception Experiment,xx23w20,
211,training(14).webm,False,right,1,vcgpdm_dyn(30)-lvm(10)_final(4).webm,0,51,51,29,,,,,,,,12:29:32:731,12:29:33:555,12:29:36:556,left,12:29:37:057,,2012_Dec_31_1206,59.9520256822,MP-Perception Experiment,xx23w20,
212,dmp_npsi(25)_final(6).webm,False,left,1,training(20).webm,0,52,52,9,,,,,,,,12:29:37:735,12:29:38:558,12:29:41:560,right,12:29:42:044,,2012_Dec_31_1206,59.9520256822,MP-Perception Experiment,xx23w20,
213,vgpdm_dyn(35)-lvm(10)_final(4).webm,False,left,1,training(36).webm,0,53,53,27,,,,,,,,12:29:42:721,12:29:43:545,12:29:46:548,left,12:29:47:048,,2012_Dec_31_1206,59.9520256822,MP-Perception Experiment,xx23w20,
214,training(11).webm,True,right,1,tmp_numprim(6)_final(1).webm,0,54,54,95,,,,,,,,12:29:47:895,12:29:48:549,12:29:51:538,left,12:29:52:205,,2012_Dec_31_1206,59.9520256822,MP-Perception Experiment,xx23w20,
215,dmp_npsi(30)_final(8).webm,True,left,1,training(2).webm,0,55,55,157,,,,,,,,12:29:53:055,12:29:53:706,12:29:56:709,left,12:29:58:410,,2012_Dec_31_1206,59.9520256822,MP-Perception Experiment,xx23w20,
216,vgpdm_dyn(20)-lvm(5)_final(9).webm,True,left,1,training(11).webm,0,56,56,146,,,,,,,,12:29:59:137,12:29:59:911,12:30:02:914,left,12:30:04:198,,2012_Dec_31_1206,59.9520256822,MP-Perception Experiment,xx23w20,
217,vgpdm_dyn(35)-lvm(30)_final(1).webm,False,left,1,training(14).webm,0,57,57,96,,,,,,,,12:30:04:875,12:30:05:699,12:30:08:703,right,12:30:09:136,,2012_Dec_31_1206,59.9520256822,MP-Perception Experiment,xx23w20,
218,training(17).webm,False,right,1,vgpdm_dyn(30)-lvm(20)_final(9).webm,0,58,58,34,,,,,,,,12:30:09:810,12:30:10:637,12:30:13:640,left,12:30:17:393,,2012_Dec_31_1206,59.9520256822,MP-Perception Experiment,xx23w20,
219,vgpdm_dyn(10)-lvm(35)_final(1).webm,True,left,1,training(36).webm,0,59,59,12,,,,,,,,12:30:18:068,12:30:18:894,12:30:21:897,left,12:30:22:330,,2012_Dec_31_1206,59.9520256822,MP-Perception Experiment,xx23w20,
220,vcgpdm_dyn(10)-lvm(35)_final(2).webm,False,left,1,training(5).webm,0,60,60,85,,,,,,,,12:30:23:037,12:30:23:831,12:30:26:833,left,12:30:27:250,,2012_Dec_31_1206,59.9520256822,MP-Perception Experiment,xx23w20,
221,vcgpdm_dyn(20)-lvm(25)_final(2).webm,True,left,1,training(19).webm,0,61,61,155,,,,,,,,12:30:27:932,12:30:28:751,12:30:31:754,left,12:30:32:087,,2012_Dec_31_1206,59.9520256822,MP-Perception Experiment,xx23w20,
222,training(31).webm,False,right,1,vcgpdm_dyn(10)-lvm(5)_final(0).webm,0,62,62,103,,,,,,,,12:30:32:764,12:30:33:588,12:30:36:591,right,12:30:36:991,,2012_Dec_31_1206,59.9520256822,MP-Perception Experiment,xx23w20,
223,vcgpdm_dyn(5)-lvm(15)_final(2).webm,True,left,1,training(8).webm,0,63,63,55,,,,,,,,12:30:37:756,12:30:38:492,12:30:41:480,left,12:30:41:797,,2012_Dec_31_1206,59.9520256822,MP-Perception Experiment,xx23w20,
224,vcgpdm_dyn(25)-lvm(30)_final(3).webm,True,left,1,training(33).webm,0,64,64,147,,,,,,,,12:30:42:478,12:30:43:299,12:30:46:302,left,12:30:46:952,,2012_Dec_31_1206,59.9520256822,MP-Perception Experiment,xx23w20,
225,vgpdm_dyn(5)-lvm(15)_final(4).webm,True,left,1,training(34).webm,0,65,65,92,,,,,,,,12:30:47:627,12:30:48:453,12:30:51:456,left,12:30:51:889,,2012_Dec_31_1206,59.9520256822,MP-Perception Experiment,xx23w20,
226,vcgpdm_dyn(10)-lvm(30)_final(0).webm,False,left,1,training(2).webm,0,66,66,120,,,,,,,,12:30:52:566,12:30:53:390,12:30:56:393,right,12:30:56:493,,2012_Dec_31_1206,59.9520256822,MP-Perception Experiment,xx23w20,
227,training(15).webm,False,right,1,vcgpdm_dyn(20)-lvm(35)_final(5).webm,0,67,67,11,,,,,,,,12:30:57:305,12:30:57:994,12:31:00:998,right,12:31:01:632,,2012_Dec_31_1206,59.9520256822,MP-Perception Experiment,xx23w20,
228,vgpdm_dyn(15)-lvm(5)_final(3).webm,False,left,1,training(0).webm,0,68,68,130,,,,,,,,12:31:02:312,12:31:03:133,12:31:06:135,right,12:31:06:485,,2012_Dec_31_1206,59.9520256822,MP-Perception Experiment,xx23w20,
229,training(9).webm,False,right,1,vgpdm_dyn(20)-lvm(25)_final(8).webm,0,69,69,122,,,,,,,,12:31:07:165,12:31:07:987,12:31:10:989,right,12:31:11:806,,2012_Dec_31_1206,59.9520256822,MP-Perception Experiment,xx23w20,
230,vcgpdm_dyn(25)-lvm(10)_final(2).webm,True,left,1,training(48).webm,0,70,70,123,,,,,,,,12:31:12:487,12:31:13:308,12:31:16:308,left,12:31:17:444,,2012_Dec_31_1206,59.9520256822,MP-Perception Experiment,xx23w20,
231,training(22).webm,False,right,1,vcgpdm_dyn(15)-lvm(20)_final(8).webm,0,71,71,121,,,,,,,,12:31:18:124,12:31:18:945,12:31:21:947,left,12:31:22:431,,2012_Dec_31_1206,59.9520256822,MP-Perception Experiment,xx23w20,
232,vcgpdm_dyn(25)-lvm(15)_final(1).webm,False,left,1,training(20).webm,0,72,72,158,,,,,,,,12:31:23:108,12:31:23:932,12:31:26:935,right,12:31:29:272,,2012_Dec_31_1206,59.9520256822,MP-Perception Experiment,xx23w20,
233,training(40).webm,True,right,1,tmp_numprim(4)_final(8).webm,0,73,73,78,,,,,,,,12:31:29:947,12:31:30:773,12:31:33:775,right,12:31:34:242,,2012_Dec_31_1206,59.9520256822,MP-Perception Experiment,xx23w20,
234,dmp_npsi(45)_final(2).webm,False,left,1,training(0).webm,0,74,74,2,,,,,,,,12:31:34:925,12:31:35:744,12:31:38:747,left,12:31:40:098,,2012_Dec_31_1206,59.9520256822,MP-Perception Experiment,xx23w20,
235,training(4).webm,True,right,1,vcgpdm_dyn(15)-lvm(15)_final(0).webm,0,75,75,142,,,,,,,,12:31:40:775,12:31:41:599,12:31:44:602,right,12:31:45:619,,2012_Dec_31_1206,59.9520256822,MP-Perception Experiment,xx23w20,
236,dmp_npsi(50)_final(2).webm,False,left,1,training(5).webm,0,76,76,118,,,,,,,,12:31:46:297,12:31:47:120,12:31:50:123,left,12:31:50:823,,2012_Dec_31_1206,59.9520256822,MP-Perception Experiment,xx23w20,
237,tmp_numprim(2)_final(1).webm,False,left,1,training(8).webm,0,77,77,70,,,,,,,,12:31:51:672,12:31:52:325,12:31:55:328,left,12:31:55:778,,2012_Dec_31_1206,59.9520256822,MP-Perception Experiment,xx23w20,
238,training(35).webm,True,right,1,vgpdm_dyn(10)-lvm(30)_final(9).webm,0,78,78,127,,,,,,,,12:31:56:451,12:31:57:279,12:32:00:282,right,12:32:00:699,,2012_Dec_31_1206,59.9520256822,MP-Perception Experiment,xx23w20,
239,training(35).webm,False,right,1,vgpdm_dyn(10)-lvm(30)_final(8).webm,0,79,79,45,,,,,,,,12:32:01:378,12:32:02:200,12:32:05:202,right,12:32:07:870,,2012_Dec_31_1206,59.9520256822,MP-Perception Experiment,xx23w20,
240,training(8).webm,False,right,1,tmp_numprim(10)_final(4).webm,0,80,80,90,,,,,,,,12:32:08:550,12:32:09:372,12:32:12:374,right,12:32:13:358,,2012_Dec_31_1206,59.9520256822,MP-Perception Experiment,xx23w20,
241,dmp_npsi(35)_final(9).webm,True,left,1,training(24).webm,0,81,81,54,,,,,,,,12:32:14:203,12:32:14:859,12:32:17:847,right,12:32:18:464,,2012_Dec_31_1206,59.9520256822,MP-Perception Experiment,xx23w20,
242,tmp_numprim(2)_final(8).webm,True,left,1,training(7).webm,0,82,82,108,,,,,,,,12:32:19:141,12:32:19:965,12:32:22:968,left,12:32:23:985,,2012_Dec_31_1206,59.9520256822,MP-Perception Experiment,xx23w20,
243,vcgpdm_dyn(10)-lvm(5)_final(2).webm,True,left,1,training(33).webm,0,83,83,48,,,,,,,,12:32:24:659,12:32:25:486,12:32:28:490,left,12:32:29:074,,2012_Dec_31_1206,59.9520256822,MP-Perception Experiment,xx23w20,
244,vcgpdm_dyn(35)-lvm(10)_final(2).webm,False,left,1,training(26).webm,0,84,84,105,,,,,,,,12:32:29:752,12:32:30:575,12:32:33:578,left,12:32:33:928,,2012_Dec_31_1206,59.9520256822,MP-Perception Experiment,xx23w20,
245,vcgpdm_dyn(20)-lvm(25)_final(7).webm,True,left,1,training(27).webm,0,85,85,136,,,,,,,,12:32:34:614,12:32:35:429,12:32:38:431,right,12:32:40:083,,2012_Dec_31_1206,59.9520256822,MP-Perception Experiment,xx23w20,
246,vgpdm_dyn(20)-lvm(5)_final(0).webm,False,left,1,training(1).webm,0,86,86,44,,,,,,,,12:32:40:757,12:32:41:584,12:32:44:587,left,12:32:45:205,,2012_Dec_31_1206,59.9520256822,MP-Perception Experiment,xx23w20,
247,tmp_numprim(8)_final(3).webm,True,left,1,training(9).webm,0,87,87,32,,,,,,,,12:32:46:051,12:32:46:706,12:32:49:708,left,12:32:50:809,,2012_Dec_31_1206,59.9520256822,MP-Perception Experiment,xx23w20,
248,training(35).webm,False,right,1,vcgpdm_dyn(5)-lvm(20)_final(1).webm,0,88,88,60,,,,,,,,12:32:51:485,12:32:52:310,12:32:55:313,right,12:32:56:011,,2012_Dec_31_1206,59.9520256822,MP-Perception Experiment,xx23w20,
249,vgpdm_dyn(15)-lvm(5)_final(6).webm,False,left,1,training(25).webm,0,89,89,156,,,,,,,,12:32:56:853,12:32:57:513,12:33:00:515,right,12:33:02:534,,2012_Dec_31_1206,59.9520256822,MP-Perception Experiment,xx23w20,
250,tmp_numprim(9)_final(7).webm,False,left,1,training(21).webm,0,90,90,64,,,,,,,,12:33:03:274,12:33:04:035,12:33:07:038,left,12:33:07:755,,2012_Dec_31_1206,59.9520256822,MP-Perception Experiment,xx23w20,
251,dmp_npsi(35)_final(1).webm,True,left,1,training(8).webm,0,91,91,67,,,,,,,,12:33:08:435,12:33:09:256,12:33:12:244,left,12:33:12:844,,2012_Dec_31_1206,59.9520256822,MP-Perception Experiment,xx23w20,
252,vgpdm_dyn(5)-lvm(30)_final(4).webm,False,left,1,training(41).webm,0,92,92,0,,,,,,,,12:33:13:523,12:33:14:346,12:33:17:348,left,12:33:17:598,,2012_Dec_31_1206,59.9520256822,MP-Perception Experiment,xx23w20,
253,vgpdm_dyn(35)-lvm(10)_final(3).webm,False,left,1,training(37).webm,0,93,93,83,,,,,,,,12:33:18:276,12:33:19:099,12:33:22:103,left,12:33:22:386,,2012_Dec_31_1206,59.9520256822,MP-Perception Experiment,xx23w20,
254,vcgpdm_dyn(10)-lvm(10)_final(7).webm,True,left,1,training(9).webm,0,94,94,94,,,,,,,,12:33:23:065,12:33:23:888,12:33:26:890,left,12:33:27:341,,2012_Dec_31_1206,59.9520256822,MP-Perception Experiment,xx23w20,
255,vgpdm_dyn(15)-lvm(25)_final(1).webm,False,left,1,training(11).webm,0,95,95,16,,,,,,,,12:33:28:020,12:33:28:842,12:33:31:844,left,12:33:32:478,,2012_Dec_31_1206,59.9520256822,MP-Perception Experiment,xx23w20,
256,vgpdm_dyn(20)-lvm(35)_final(9).webm,False,left,1,training(17).webm,0,96,96,101,,,,,,,,12:33:33:152,12:33:33:979,12:33:36:983,left,12:33:37:700,,2012_Dec_31_1206,59.9520256822,MP-Perception Experiment,xx23w20,
257,vgpdm_dyn(30)-lvm(20)_final(4).webm,False,left,1,training(11).webm,0,97,97,89,,,,,,,,12:33:38:481,12:33:39:201,12:33:42:203,left,12:33:43:855,,2012_Dec_31_1206,59.9520256822,MP-Perception Experiment,xx23w20,
258,vgpdm_dyn(5)-lvm(10)_final(9).webm,False,left,1,training(28).webm,0,98,98,119,,,,,,,,12:33:44:535,12:33:45:356,12:33:48:357,left,12:33:50:959,,2012_Dec_31_1206,59.9520256822,MP-Perception Experiment,xx23w20,
259,training(40).webm,False,right,1,vgpdm_dyn(10)-lvm(30)_final(5).webm,0,99,99,151,,,,,,,,12:33:51:642,12:33:52:460,12:33:55:463,right,12:33:56:933,,2012_Dec_31_1206,59.9520256822,MP-Perception Experiment,xx23w20,
260,dmp_npsi(45)_final(5).webm,True,left,1,training(35).webm,0,100,100,19,,,,,,,,12:33:57:612,12:33:58:434,12:34:01:437,right,12:34:04:456,,2012_Dec_31_1206,59.9520256822,MP-Perception Experiment,xx23w20,
261,training(4).webm,True,right,1,vcgpdm_dyn(25)-lvm(10)_final(9).webm,0,101,101,115,,,,,,,,12:34:05:335,12:34:05:957,12:34:08:960,right,12:34:09:560,,2012_Dec_31_1206,59.9520256822,MP-Perception Experiment,xx23w20,
262,training(39).webm,False,right,1,tmp_numprim(4)_final(5).webm,0,102,102,47,,,,,,,,12:34:10:236,12:34:11:061,12:34:14:065,right,12:34:14:748,,2012_Dec_31_1206,59.9520256822,MP-Perception Experiment,xx23w20,
263,dmp_npsi(20)_final(3).webm,False,left,1,training(18).webm,0,103,103,152,,,,,,,,12:34:15:536,12:34:16:250,12:34:19:252,left,12:34:19:552,,2012_Dec_31_1206,59.9520256822,MP-Perception Experiment,xx23w20,
264,vgpdm_dyn(15)-lvm(25)_final(1).webm,False,left,1,training(28).webm,0,104,104,51,,,,,,,,12:34:20:231,12:34:21:053,12:34:24:056,left,12:34:25:057,,2012_Dec_31_1206,59.9520256822,MP-Perception Experiment,xx23w20,
265,training(15).webm,True,right,1,vcgpdm_dyn(15)-lvm(5)_final(9).webm,0,105,105,93,,,,,,,,12:34:25:731,12:34:26:558,12:34:29:561,left,12:34:29:928,,2012_Dec_31_1206,59.9520256822,MP-Perception Experiment,xx23w20,
266,training(4).webm,True,right,1,tmp_numprim(7)_final(4).webm,0,106,106,116,,,,,,,,12:34:30:602,12:34:31:429,12:34:34:432,left,12:34:34:766,,2012_Dec_31_1206,59.9520256822,MP-Perception Experiment,xx23w20,
267,map_cgpdm_final(8).webm,True,left,1,training(38).webm,0,107,107,144,,,,,,,,12:34:35:445,12:34:36:282,12:34:39:267,right,12:34:39:768,,2012_Dec_31_1206,59.9520256822,MP-Perception Experiment,xx23w20,
268,training(20).webm,False,right,1,dmp_npsi(35)_final(2).webm,0,108,108,86,,,,,,,,12:34:40:444,12:34:41:269,12:34:44:271,right,12:34:44:839,,2012_Dec_31_1206,59.9520256822,MP-Perception Experiment,xx23w20,
269,vcgpdm_dyn(35)-lvm(20)_final(3).webm,True,left,1,training(41).webm,0,109,109,79,,,,,,,,12:34:45:518,12:34:46:340,12:34:49:328,right,12:34:50:062,,2012_Dec_31_1206,59.9520256822,MP-Perception Experiment,xx23w20,
270,training(19).webm,True,right,1,vcgpdm_dyn(15)-lvm(25)_final(9).webm,0,110,110,126,,,,,,,,12:34:50:739,12:34:51:563,12:34:54:566,left,12:34:55:467,,2012_Dec_31_1206,59.9520256822,MP-Perception Experiment,xx23w20,
271,vgpdm_dyn(25)-lvm(5)_final(8).webm,True,left,1,training(13).webm,0,111,111,38,,,,,,,,12:34:56:140,12:34:56:968,12:34:59:970,right,12:35:00:971,,2012_Dec_31_1206,59.9520256822,MP-Perception Experiment,xx23w20,
272,training(37).webm,False,right,1,vgpdm_dyn(35)-lvm(30)_final(3).webm,0,112,112,22,,,,,,,,12:35:01:802,12:35:02:472,12:35:05:476,left,12:35:07:778,,2012_Dec_31_1206,59.9520256822,MP-Perception Experiment,xx23w20,
273,training(13).webm,True,right,1,vgpdm_dyn(25)-lvm(30)_final(3).webm,0,113,113,52,,,,,,,,12:35:08:451,12:35:09:279,12:35:12:281,right,12:35:12:798,,2012_Dec_31_1206,59.9520256822,MP-Perception Experiment,xx23w20,
274,vgpdm_dyn(25)-lvm(20)_final(3).webm,False,left,1,training(15).webm,0,114,114,102,,,,,,,,12:35:13:473,12:35:14:299,12:35:17:302,right,12:35:18:053,,2012_Dec_31_1206,59.9520256822,MP-Perception Experiment,xx23w20,
275,training(28).webm,True,right,1,vgpdm_dyn(10)-lvm(20)_final(2).webm,0,115,115,40,,,,,,,,12:35:18:731,12:35:19:554,12:35:22:557,left,12:35:23:058,,2012_Dec_31_1206,59.9520256822,MP-Perception Experiment,xx23w20,
276,vgpdm_dyn(30)-lvm(15)_final(7).webm,True,left,1,training(48).webm,0,116,116,13,,,,,,,,12:35:23:734,12:35:24:559,12:35:27:559,right,12:35:31:729,,2012_Dec_31_1206,59.9520256822,MP-Perception Experiment,xx23w20,
277,training(14).webm,True,right,1,vcgpdm_dyn(25)-lvm(20)_final(0).webm,0,117,117,141,,,,,,,,12:35:32:405,12:35:33:231,12:35:36:233,left,12:35:36:550,,2012_Dec_31_1206,59.9520256822,MP-Perception Experiment,xx23w20,
278,training(9).webm,True,right,1,vcgpdm_dyn(10)-lvm(25)_final(3).webm,0,118,118,6,,,,,,,,12:35:37:228,12:35:38:051,12:35:41:040,right,12:35:41:340,,2012_Dec_31_1206,59.9520256822,MP-Perception Experiment,xx23w20,
279,vgpdm_dyn(5)-lvm(15)_final(2).webm,False,left,1,training(7).webm,0,119,119,15,,,,,,,,12:35:42:017,12:35:42:841,12:35:45:844,left,12:35:46:211,,2012_Dec_31_1206,59.9520256822,MP-Perception Experiment,xx23w20,
280,vcgpdm_dyn(30)-lvm(35)_final(9).webm,False,left,1,training(15).webm,0,120,120,46,,,,,,,,12:35:46:889,12:35:47:712,12:35:50:714,left,12:35:51:081,,2012_Dec_31_1206,59.9520256822,MP-Perception Experiment,xx23w20,
281,map_gpdm_final(2).webm,False,left,1,training(4).webm,0,121,121,24,,,,,,,,12:35:51:757,12:35:52:582,12:35:55:585,left,12:35:56:252,,2012_Dec_31_1206,59.9520256822,MP-Perception Experiment,xx23w20,
282,training(10).webm,True,right,1,vgpdm_dyn(25)-lvm(20)_final(5).webm,0,122,122,43,,,,,,,,12:35:56:928,12:35:57:754,12:36:00:756,left,12:36:01:541,,2012_Dec_31_1206,59.9520256822,MP-Perception Experiment,xx23w20,
283,vcgpdm_dyn(30)-lvm(5)_final(5).webm,True,left,1,training(18).webm,0,123,123,145,,,,,,,,12:36:02:215,12:36:03:042,12:36:06:044,left,12:36:06:411,,2012_Dec_31_1206,59.9520256822,MP-Perception Experiment,xx23w20,
284,vgpdm_dyn(35)-lvm(5)_final(7).webm,True,left,1,training(7).webm,0,124,124,153,,,,,,,,12:36:07:089,12:36:07:912,12:36:10:915,left,12:36:11:382,,2012_Dec_31_1206,59.9520256822,MP-Perception Experiment,xx23w20,
285,vgpdm_dyn(25)-lvm(20)_final(5).webm,True,left,1,training(12).webm,0,125,125,49,,,,,,,,12:36:12:055,12:36:12:883,12:36:15:885,left,12:36:16:152,,2012_Dec_31_1206,59.9520256822,MP-Perception Experiment,xx23w20,
286,training(28).webm,False,right,1,vcgpdm_dyn(20)-lvm(35)_final(0).webm,0,126,126,97,,,,,,,,12:36:16:831,12:36:17:653,12:36:20:655,left,12:36:21:356,,2012_Dec_31_1206,59.9520256822,MP-Perception Experiment,xx23w20,
287,training(25).webm,True,right,1,vgpdm_dyn(10)-lvm(20)_final(0).webm,0,127,127,131,,,,,,,,12:36:22:031,12:36:22:857,12:36:25:859,left,12:36:26:543,,2012_Dec_31_1206,59.9520256822,MP-Perception Experiment,xx23w20,
288,vgpdm_dyn(10)-lvm(15)_final(5).webm,True,left,1,training(48).webm,0,128,128,150,,,,,,,,12:36:27:405,12:36:28:044,12:36:31:032,left,12:36:31:282,,2012_Dec_31_1206,59.9520256822,MP-Perception Experiment,xx23w20,
289,vcgpdm_dyn(30)-lvm(15)_final(9).webm,False,left,1,training(2).webm,0,129,129,62,,,,,,,,12:36:31:962,12:36:32:784,12:36:35:787,right,12:36:36:471,,2012_Dec_31_1206,59.9520256822,MP-Perception Experiment,xx23w20,
290,training(11).webm,False,right,1,vgpdm_dyn(30)-lvm(20)_final(8).webm,0,130,130,125,,,,,,,,12:36:37:148,12:36:37:972,12:36:40:975,left,12:36:43:059,,2012_Dec_31_1206,59.9520256822,MP-Perception Experiment,xx23w20,
291,training(15).webm,True,right,1,vcgpdm_dyn(20)-lvm(5)_final(8).webm,0,131,131,8,,,,,,,,12:36:43:741,12:36:44:561,12:36:47:563,left,12:36:50:617,,2012_Dec_31_1206,59.9520256822,MP-Perception Experiment,xx23w20,
292,training(12).webm,True,right,1,vcgpdm_dyn(30)-lvm(35)_final(8).webm,0,132,132,140,,,,,,,,12:36:51:434,12:36:52:118,12:36:55:120,left,12:36:56:538,,2012_Dec_31_1206,59.9520256822,MP-Perception Experiment,xx23w20,
293,training(16).webm,True,right,1,vgpdm_dyn(25)-lvm(5)_final(5).webm,0,133,133,138,,,,,,,,12:36:57:215,12:36:58:039,12:37:01:042,left,12:37:01:559,,2012_Dec_31_1206,59.9520256822,MP-Perception Experiment,xx23w20,
294,training(26).webm,True,right,1,tmp_numprim(5)_final(1).webm,0,134,134,7,,,,,,,,12:37:02:409,12:37:03:060,12:37:06:061,right,12:37:06:494,,2012_Dec_31_1206,59.9520256822,MP-Perception Experiment,xx23w20,
295,vcgpdm_dyn(10)-lvm(25)_final(2).webm,True,left,1,training(31).webm,0,135,135,139,,,,,,,,12:37:07:175,12:37:07:996,12:37:10:999,left,12:37:11:583,,2012_Dec_31_1206,59.9520256822,MP-Perception Experiment,xx23w20,
296,training(27).webm,False,right,1,vgpdm_dyn(15)-lvm(5)_final(7).webm,0,136,136,21,,,,,,,,12:37:12:261,12:37:13:084,12:37:16:086,right,12:37:16:937,,2012_Dec_31_1206,59.9520256822,MP-Perception Experiment,xx23w20,
297,training(38).webm,False,right,1,vgpdm_dyn(30)-lvm(10)_final(6).webm,0,137,137,25,,,,,,,,12:37:17:615,12:37:18:438,12:37:21:426,left,12:37:27:548,,2012_Dec_31_1206,59.9520256822,MP-Perception Experiment,xx23w20,
298,vgpdm_dyn(20)-lvm(25)_final(0).webm,False,left,1,training(26).webm,0,138,138,1,,,,,,,,12:37:28:226,12:37:29:050,12:37:32:052,right,12:37:33:203,,2012_Dec_31_1206,59.9520256822,MP-Perception Experiment,xx23w20,
299,training(23).webm,False,right,1,vgpdm_dyn(30)-lvm(20)_final(3).webm,0,139,139,134,,,,,,,,12:37:33:881,12:37:34:704,12:37:37:706,left,12:37:38:107,,2012_Dec_31_1206,59.9520256822,MP-Perception Experiment,xx23w20,
300,vcgpdm_dyn(15)-lvm(5)_final(8).webm,True,left,1,training(16).webm,0,140,140,99,,,,,,,,12:37:38:806,12:37:39:608,12:37:42:612,left,12:37:42:812,,2012_Dec_31_1206,59.9520256822,MP-Perception Experiment,xx23w20,
301,vcgpdm_dyn(25)-lvm(15)_final(5).webm,True,left,1,training(1).webm,0,141,141,87,,,,,,,,12:37:43:487,12:37:44:313,12:37:47:315,left,12:37:47:616,,2012_Dec_31_1206,59.9520256822,MP-Perception Experiment,xx23w20,
302,vcgpdm_dyn(10)-lvm(35)_final(0).webm,True,left,1,training(1).webm,0,142,142,124,,,,,,,,12:37:48:292,12:37:49:117,12:37:52:119,left,12:37:52:203,,2012_Dec_31_1206,59.9520256822,MP-Perception Experiment,xx23w20,
303,training(39).webm,True,right,1,tmp_numprim(10)_final(1).webm,0,143,143,35,,,,,,,,12:37:52:879,12:37:53:704,12:37:56:704,left,12:37:57:488,,2012_Dec_31_1206,59.9520256822,MP-Perception Experiment,xx23w20,
304,map_gpdm_final(5).webm,True,left,1,training(12).webm,0,144,144,72,,,,,,,,12:37:58:162,12:37:58:990,12:38:01:993,left,12:38:02:243,,2012_Dec_31_1206,59.9520256822,MP-Perception Experiment,xx23w20,
305,training(39).webm,False,right,1,vgpdm_dyn(10)-lvm(30)_final(6).webm,0,145,145,133,,,,,,,,12:38:02:920,12:38:03:744,12:38:06:747,right,12:38:07:498,,2012_Dec_31_1206,59.9520256822,MP-Perception Experiment,xx23w20,
306,dmp_npsi(20)_final(7).webm,True,left,1,training(0).webm,0,146,146,73,,,,,,,,12:38:08:173,12:38:08:999,12:38:11:986,left,12:38:12:303,,2012_Dec_31_1206,59.9520256822,MP-Perception Experiment,xx23w20,
307,vgpdm_dyn(35)-lvm(25)_final(4).webm,False,left,1,training(32).webm,0,147,147,14,,,,,,,,12:38:13:080,12:38:13:804,12:38:16:808,left,12:38:17:058,,2012_Dec_31_1206,59.9520256822,MP-Perception Experiment,xx23w20,
308,training(27).webm,True,right,1,vcgpdm_dyn(10)-lvm(15)_final(1).webm,0,148,148,135,,,,,,,,12:38:17:734,12:38:18:559,12:38:21:562,left,12:38:22:129,,2012_Dec_31_1206,59.9520256822,MP-Perception Experiment,xx23w20,
309,training(0).webm,True,right,1,dmp_npsi(15)_final(1).webm,0,149,149,65,,,,,,,,12:38:22:980,12:38:23:630,12:38:26:633,right,12:38:27:049,,2012_Dec_31_1206,59.9520256822,MP-Perception Experiment,xx23w20,
310,dmp_npsi(30)_final(5).webm,False,left,1,training(34).webm,0,150,150,59,,,,,,,,12:38:27:838,12:38:28:551,12:38:31:553,right,12:38:31:987,,2012_Dec_31_1206,59.9520256822,MP-Perception Experiment,xx23w20,
311,vgpdm_dyn(5)-lvm(20)_final(4).webm,True,left,1,training(22).webm,0,151,151,80,,,,,,,,12:38:32:666,12:38:33:488,12:38:36:491,left,12:38:36:808,,2012_Dec_31_1206,59.9520256822,MP-Perception Experiment,xx23w20,
312,training(12).webm,True,right,1,vgpdm_dyn(10)-lvm(20)_final(2).webm,0,152,152,39,,,,,,,,12:38:37:483,12:38:38:309,12:38:41:312,left,12:38:41:729,,2012_Dec_31_1206,59.9520256822,MP-Perception Experiment,xx23w20,
313,vcgpdm_dyn(30)-lvm(25)_final(1).webm,True,left,1,training(22).webm,0,153,153,56,,,,,,,,12:38:42:403,12:38:43:230,12:38:46:231,left,12:38:46:748,,2012_Dec_31_1206,59.9520256822,MP-Perception Experiment,xx23w20,
314,vcgpdm_dyn(10)-lvm(20)_final(7).webm,False,left,1,training(20).webm,0,154,154,137,,,,,,,,12:38:47:422,12:38:48:249,12:38:51:252,left,12:38:51:653,,2012_Dec_31_1206,59.9520256822,MP-Perception Experiment,xx23w20,
315,training(15).webm,False,right,1,vcgpdm_dyn(30)-lvm(10)_final(3).webm,0,155,155,17,,,,,,,,12:38:52:523,12:38:53:154,12:38:56:156,right,12:38:56:507,,2012_Dec_31_1206,59.9520256822,MP-Perception Experiment,xx23w20,
316,vcgpdm_dyn(5)-lvm(15)_final(1).webm,True,left,1,training(27).webm,0,156,156,36,,,,,,,,12:38:57:188,12:38:58:010,12:39:01:012,left,12:39:02:513,,2012_Dec_31_1206,59.9520256822,MP-Perception Experiment,xx23w20,
317,vgpdm_dyn(15)-lvm(15)_final(1).webm,False,left,1,training(2).webm,0,157,157,69,,,,,,,,12:39:03:187,12:39:04:014,12:39:07:017,left,12:39:07:701,,2012_Dec_31_1206,59.9520256822,MP-Perception Experiment,xx23w20,
318,vgpdm_dyn(35)-lvm(30)_final(1).webm,False,left,1,training(22).webm,0,158,158,10,,,,,,,,12:39:08:375,12:39:09:203,12:39:12:206,left,12:39:12:573,,2012_Dec_31_1206,59.9520256822,MP-Perception Experiment,xx23w20,
319,training(48).webm,True,right,2,map_gpdm_final(6).webm,0,0,0,131,,,,,,,,12:43:56:264,12:43:57:101,12:44:00:087,right,12:44:00:488,,2012_Dec_31_1206,59.9520256822,MP-Perception Experiment,xx23w20,
320,tmp_numprim(2)_final(5).webm,False,left,2,training(34).webm,0,1,1,39,,,,,,,,12:44:01:163,12:44:01:989,12:44:04:991,left,12:44:05:308,,2012_Dec_31_1206,59.9520256822,MP-Perception Experiment,xx23w20,
321,vcgpdm_dyn(25)-lvm(10)_final(9).webm,False,left,2,training(24).webm,0,2,2,111,,,,,,,,12:44:05:984,12:44:06:810,12:44:09:813,right,12:44:10:213,,2012_Dec_31_1206,59.9520256822,MP-Perception Experiment,xx23w20,
322,training(25).webm,True,right,2,vcgpdm_dyn(5)-lvm(25)_final(8).webm,0,3,3,153,,,,,,,,12:44:10:925,12:44:11:714,12:44:14:716,right,12:44:15:234,,2012_Dec_31_1206,59.9520256822,MP-Perception Experiment,xx23w20,
323,vgpdm_dyn(15)-lvm(30)_final(9).webm,True,left,2,training(39).webm,0,4,4,45,,,,,,,,12:44:16:051,12:44:16:735,12:44:19:737,left,12:44:20:104,,2012_Dec_31_1206,59.9520256822,MP-Perception Experiment,xx23w20,
324,vgpdm_dyn(15)-lvm(30)_final(6).webm,False,left,2,training(28).webm,0,5,5,140,,,,,,,,12:44:20:871,12:44:21:605,12:44:24:609,left,12:44:24:959,,2012_Dec_31_1206,59.9520256822,MP-Perception Experiment,xx23w20,
325,training(39).webm,True,right,2,dmp_npsi(40)_final(5).webm,0,6,6,64,,,,,,,,12:44:25:804,12:44:26:460,12:44:29:463,left,12:44:29:780,,2012_Dec_31_1206,59.9520256822,MP-Perception Experiment,xx23w20,
326,vcgpdm_dyn(35)-lvm(30)_final(7).webm,True,left,2,training(41).webm,0,7,7,0,,,,,,,,12:44:30:423,12:44:31:281,12:44:34:284,left,12:44:34:767,,2012_Dec_31_1206,59.9520256822,MP-Perception Experiment,xx23w20,
327,vgpdm_dyn(20)-lvm(30)_final(4).webm,False,left,2,training(3).webm,0,8,8,120,,,,,,,,12:44:35:489,12:44:36:283,12:44:39:269,left,12:44:39:819,,2012_Dec_31_1206,59.9520256822,MP-Perception Experiment,xx23w20,
328,vcgpdm_dyn(10)-lvm(10)_final(9).webm,False,left,2,training(33).webm,0,9,9,144,,,,,,,,12:44:40:544,12:44:41:322,12:44:44:324,right,12:44:44:591,,2012_Dec_31_1206,59.9520256822,MP-Perception Experiment,xx23w20,
329,training(36).webm,True,right,2,vgpdm_dyn(5)-lvm(30)_final(8).webm,0,10,10,72,,,,,,,,12:44:45:230,12:44:46:092,12:44:49:080,right,12:44:49:463,,2012_Dec_31_1206,59.9520256822,MP-Perception Experiment,xx23w20,
330,training(14).webm,True,right,2,vcgpdm_dyn(10)-lvm(15)_final(3).webm,0,11,11,128,,,,,,,,12:44:50:103,12:44:50:964,12:44:53:967,right,12:44:54:084,,2012_Dec_31_1206,59.9520256822,MP-Perception Experiment,xx23w20,
331,training(11).webm,False,right,2,vgpdm_dyn(5)-lvm(30)_final(2).webm,0,12,12,130,,,,,,,,12:44:54:727,12:44:55:585,12:44:58:587,right,12:44:58:939,,2012_Dec_31_1206,59.9520256822,MP-Perception Experiment,xx23w20,
332,vcgpdm_dyn(5)-lvm(15)_final(1).webm,False,left,2,training(12).webm,0,13,13,52,,,,,,,,12:44:59:577,12:45:00:440,12:45:03:442,left,12:45:03:943,,2012_Dec_31_1206,59.9520256822,MP-Perception Experiment,xx23w20,
333,vgpdm_dyn(15)-lvm(15)_final(8).webm,False,left,2,training(36).webm,0,14,14,11,,,,,,,,12:45:04:587,12:45:05:444,12:45:08:446,left,12:45:08:780,,2012_Dec_31_1206,59.9520256822,MP-Perception Experiment,xx23w20,
334,vgpdm_dyn(5)-lvm(35)_final(8)_bad.webm,True,left,2,training(32).webm,0,15,15,138,,,,,,,,12:45:09:506,12:45:10:281,12:45:13:284,left,12:45:13:601,,2012_Dec_31_1206,59.9520256822,MP-Perception Experiment,xx23w20,
335,training(39).webm,True,right,2,vcgpdm_dyn(15)-lvm(10)_final(8).webm,0,16,16,121,,,,,,,,12:45:14:389,12:45:15:102,12:45:18:105,right,12:45:20:374,,2012_Dec_31_1206,59.9520256822,MP-Perception Experiment,xx23w20,
336,vgpdm_dyn(20)-lvm(30)_final(8).webm,True,left,2,training(12).webm,0,17,17,40,,,,,,,,12:45:21:017,12:45:21:875,12:45:24:877,left,12:45:25:211,,2012_Dec_31_1206,59.9520256822,MP-Perception Experiment,xx23w20,
337,map_gpdm_final(1).webm,True,left,2,training(3).webm,0,18,18,104,,,,,,,,12:45:25:857,12:45:26:727,12:45:29:713,left,12:45:30:163,,2012_Dec_31_1206,59.9520256822,MP-Perception Experiment,xx23w20,
338,dmp_npsi(40)_final(5).webm,True,left,2,training(25).webm,0,19,19,4,,,,,,,,12:45:30:809,12:45:31:664,12:45:34:668,right,12:45:34:985,,2012_Dec_31_1206,59.9520256822,MP-Perception Experiment,xx23w20,
339,training(23).webm,True,right,2,vgpdm_dyn(15)-lvm(20)_final(2)_out_of_screen.webm,0,20,20,67,,,,,,,,12:45:35:768,12:45:36:486,12:45:39:473,right,12:45:40:441,,2012_Dec_31_1206,59.9520256822,MP-Perception Experiment,xx23w20,
340,dmp_npsi(15)_final(7).webm,False,left,2,training(41).webm,0,21,21,88,,,,,,,,12:45:41:170,12:45:41:942,12:45:44:945,left,12:45:45:328,,2012_Dec_31_1206,59.9520256822,MP-Perception Experiment,xx23w20,
341,training(0).webm,False,right,2,vcgpdm_dyn(15)-lvm(20)_final(8).webm,0,22,22,25,,,,,,,,12:45:45:970,12:45:46:829,12:45:49:832,right,12:45:50:816,,2012_Dec_31_1206,59.9520256822,MP-Perception Experiment,xx23w20,
342,training(29).webm,True,right,2,vgpdm_dyn(25)-lvm(35)_final(1).webm,0,23,23,50,,,,,,,,12:45:51:459,12:45:52:318,12:45:55:321,left,12:45:55:704,,2012_Dec_31_1206,59.9520256822,MP-Perception Experiment,xx23w20,
343,vcgpdm_dyn(20)-lvm(25)_final(7).webm,False,left,2,training(32).webm,0,24,24,102,,,,,,,,12:45:56:346,12:45:57:205,12:46:00:208,right,12:46:01:776,,2012_Dec_31_1206,59.9520256822,MP-Perception Experiment,xx23w20,
344,vgpdm_dyn(10)-lvm(10)_final(7).webm,False,left,2,training(36).webm,0,25,25,91,,,,,,,,12:46:02:410,12:46:03:277,12:46:06:279,left,12:46:06:480,,2012_Dec_31_1206,59.9520256822,MP-Perception Experiment,xx23w20,
345,training(36).webm,False,right,2,dmp_npsi(30)_final(4).webm,0,26,26,58,,,,,,,,12:46:07:263,12:46:07:981,12:46:10:984,right,12:46:11:251,,2012_Dec_31_1206,59.9520256822,MP-Perception Experiment,xx23w20,
346,training(19).webm,True,right,2,vgpdm_dyn(20)-lvm(35)_final(9).webm,0,27,27,84,,,,,,,,12:46:11:890,12:46:12:752,12:46:15:755,right,12:46:16:072,,2012_Dec_31_1206,59.9520256822,MP-Perception Experiment,xx23w20,
347,vcgpdm_dyn(20)-lvm(25)_final(0).webm,True,left,2,training(48).webm,0,28,28,112,,,,,,,,12:46:16:730,12:46:17:588,12:46:20:590,left,12:46:21:141,,2012_Dec_31_1206,59.9520256822,MP-Perception Experiment,xx23w20,
348,vcgpdm_dyn(30)-lvm(20)_final(5).webm,True,left,2,training(40).webm,0,29,29,46,,,,,,,,12:46:21:787,12:46:22:642,12:46:25:644,left,12:46:25:911,,2012_Dec_31_1206,59.9520256822,MP-Perception Experiment,xx23w20,
349,training(36).webm,False,right,2,vcgpdm_dyn(5)-lvm(20)_final(7).webm,0,30,30,92,,,,,,,,12:46:26:718,12:46:27:413,12:46:30:401,right,12:46:30:751,,2012_Dec_31_1206,59.9520256822,MP-Perception Experiment,xx23w20,
350,training(13).webm,False,right,2,vcgpdm_dyn(35)-lvm(20)_final(8).webm,0,31,31,108,,,,,,,,12:46:31:393,12:46:32:252,12:46:35:255,right,12:46:36:055,,2012_Dec_31_1206,59.9520256822,MP-Perception Experiment,xx23w20,
351,training(33).webm,True,right,2,vcgpdm_dyn(5)-lvm(20)_final(6).webm,0,32,32,10,,,,,,,,12:46:36:844,12:46:37:557,12:46:40:559,right,12:46:43:613,,2012_Dec_31_1206,59.9520256822,MP-Perception Experiment,xx23w20,
352,vcgpdm_dyn(25)-lvm(20)_final(1).webm,False,left,2,training(35).webm,0,33,33,77,,,,,,,,12:46:44:259,12:46:45:114,12:46:48:116,left,12:46:48:416,,2012_Dec_31_1206,59.9520256822,MP-Perception Experiment,xx23w20,
353,vgpdm_dyn(20)-lvm(20)_final(0).webm,True,left,2,training(27).webm,0,34,34,12,,,,,,,,12:46:49:054,12:46:49:917,12:46:52:920,left,12:46:53:387,,2012_Dec_31_1206,59.9520256822,MP-Perception Experiment,xx23w20,
354,vcgpdm_dyn(5)-lvm(30)_final(6)_bad.webm,True,left,2,training(20).webm,0,35,35,1,,,,,,,,12:46:54:105,12:46:54:888,12:46:57:891,left,12:46:58:108,,2012_Dec_31_1206,59.9520256822,MP-Perception Experiment,xx23w20,
355,vcgpdm_dyn(25)-lvm(5)_final(2).webm,True,left,2,training(18).webm,0,36,36,38,,,,,,,,12:46:58:749,12:46:59:609,12:47:02:612,right,12:47:04:580,,2012_Dec_31_1206,59.9520256822,MP-Perception Experiment,xx23w20,
356,training(15).webm,False,right,2,vcgpdm_dyn(20)-lvm(5)_final(2).webm,0,37,37,155,,,,,,,,12:47:05:215,12:47:06:082,12:47:09:082,right,12:47:09:466,,2012_Dec_31_1206,59.9520256822,MP-Perception Experiment,xx23w20,
357,vcgpdm_dyn(30)-lvm(25)_final(6).webm,True,left,2,training(4).webm,0,38,38,154,,,,,,,,12:47:10:190,12:47:10:967,12:47:13:970,left,12:47:14:303,,2012_Dec_31_1206,59.9520256822,MP-Perception Experiment,xx23w20,
358,vcgpdm_dyn(5)-lvm(10)_final(9).webm,False,left,2,training(11).webm,0,39,39,75,,,,,,,,12:47:14:939,12:47:15:804,12:47:18:808,left,12:47:19:342,,2012_Dec_31_1206,59.9520256822,MP-Perception Experiment,xx23w20,
359,training(11).webm,True,right,2,vgpdm_dyn(35)-lvm(15)_final(0)_out_of_screen.webm,0,40,40,3,,,,,,,,12:47:20:141,12:47:20:844,12:47:23:830,left,12:47:23:947,,2012_Dec_31_1206,59.9520256822,MP-Perception Experiment,xx23w20,
360,vgpdm_dyn(5)-lvm(15)_final(6).webm,False,left,2,training(5).webm,0,41,41,17,,,,,,,,12:47:24:666,12:47:25:448,12:47:28:451,left,12:47:28:868,,2012_Dec_31_1206,59.9520256822,MP-Perception Experiment,xx23w20,
361,tmp_numprim(8)_final(4).webm,False,left,2,training(19).webm,0,42,42,60,,,,,,,,12:47:29:620,12:47:30:369,12:47:33:371,right,12:47:33:922,,2012_Dec_31_1206,59.9520256822,MP-Perception Experiment,xx23w20,
362,tmp_numprim(5)_final(0).webm,False,left,2,training(9).webm,0,43,43,158,,,,,,,,12:47:34:560,12:47:35:423,12:47:38:426,left,12:47:38:810,,2012_Dec_31_1206,59.9520256822,MP-Perception Experiment,xx23w20,
363,map_cgpdm_final(2).webm,True,left,2,training(30).webm,0,44,44,59,,,,,,,,12:47:39:451,12:47:40:311,12:47:43:314,left,12:47:43:781,,2012_Dec_31_1206,59.9520256822,MP-Perception Experiment,xx23w20,
364,training(17).webm,True,right,2,dmp_npsi(50)_final(2).webm,0,45,45,76,,,,,,,,12:47:44:425,12:47:45:282,12:47:48:284,left,12:47:48:585,,2012_Dec_31_1206,59.9520256822,MP-Perception Experiment,xx23w20,
365,training(11).webm,True,right,2,tmp_numprim(4)_final(4).webm,0,46,46,32,,,,,,,,12:47:49:224,12:47:50:086,12:47:53:088,right,12:47:53:623,,2012_Dec_31_1206,59.9520256822,MP-Perception Experiment,xx23w20,
366,training(18).webm,False,right,2,dmp_npsi(50)_final(2).webm,0,47,47,13,,,,,,,,12:47:54:264,12:47:55:124,12:47:58:125,right,12:47:58:559,,2012_Dec_31_1206,59.9520256822,MP-Perception Experiment,xx23w20,
367,training(48).webm,False,right,2,vgpdm_dyn(35)-lvm(25)_final(7).webm,0,48,48,83,,,,,,,,12:47:59:206,12:48:00:060,12:48:03:062,right,12:48:03:329,,2012_Dec_31_1206,59.9520256822,MP-Perception Experiment,xx23w20,
368,vcgpdm_dyn(15)-lvm(5)_final(4).webm,False,left,2,training(23).webm,0,49,49,127,,,,,,,,12:48:04:050,12:48:04:830,12:48:07:818,right,12:48:08:151,,2012_Dec_31_1206,59.9520256822,MP-Perception Experiment,xx23w20,
369,dmp_npsi(30)_final(1).webm,True,left,2,training(30).webm,0,50,50,117,,,,,,,,12:48:08:794,12:48:09:653,12:48:12:656,left,12:48:13:290,,2012_Dec_31_1206,59.9520256822,MP-Perception Experiment,xx23w20,
370,vgpdm_dyn(35)-lvm(10)_final(1).webm,False,left,2,training(48).webm,0,51,51,116,,,,,,,,12:48:13:934,12:48:14:791,12:48:17:794,right,12:48:18:160,,2012_Dec_31_1206,59.9520256822,MP-Perception Experiment,xx23w20,
371,training(30).webm,True,right,2,vcgpdm_dyn(10)-lvm(10)_final(8).webm,0,52,52,80,,,,,,,,12:48:18:952,12:48:19:662,12:48:22:664,left,12:48:23:515,,2012_Dec_31_1206,59.9520256822,MP-Perception Experiment,xx23w20,
372,training(41).webm,True,right,2,vcgpdm_dyn(30)-lvm(15)_final(4).webm,0,53,53,123,,,,,,,,12:48:24:302,12:48:25:016,12:48:28:019,left,12:48:29:087,,2012_Dec_31_1206,59.9520256822,MP-Perception Experiment,xx23w20,
373,training(25).webm,False,right,2,vgpdm_dyn(20)-lvm(35)_final(0).webm,0,54,54,93,,,,,,,,12:48:29:878,12:48:30:588,12:48:33:591,right,12:48:34:475,,2012_Dec_31_1206,59.9520256822,MP-Perception Experiment,xx23w20,
374,training(22).webm,False,right,2,map_cgpdm_final(3).webm,0,55,55,105,,,,,,,,12:48:35:120,12:48:35:976,12:48:38:978,right,12:48:39:329,,2012_Dec_31_1206,59.9520256822,MP-Perception Experiment,xx23w20,
375,training(25).webm,True,right,2,vgpdm_dyn(5)-lvm(30)_final(2).webm,0,56,56,2,,,,,,,,12:48:39:967,12:48:40:830,12:48:43:832,right,12:48:44:149,,2012_Dec_31_1206,59.9520256822,MP-Perception Experiment,xx23w20,
376,dmp_npsi(15)_final(2).webm,False,left,2,training(34).webm,0,57,57,145,,,,,,,,12:48:44:789,12:48:45:650,12:48:48:652,left,12:48:49:036,,2012_Dec_31_1206,59.9520256822,MP-Perception Experiment,xx23w20,
377,training(25).webm,True,right,2,vcgpdm_dyn(5)-lvm(20)_final(8).webm,0,58,58,44,,,,,,,,12:48:49:675,12:48:50:537,12:48:53:539,left,12:48:53:906,,2012_Dec_31_1206,59.9520256822,MP-Perception Experiment,xx23w20,
378,vgpdm_dyn(25)-lvm(35)_final(5).webm,True,left,2,training(9).webm,0,59,59,146,,,,,,,,12:48:54:548,12:48:55:407,12:48:58:410,left,12:48:58:743,,2012_Dec_31_1206,59.9520256822,MP-Perception Experiment,xx23w20,
379,training(36).webm,True,right,2,vcgpdm_dyn(10)-lvm(25)_final(7).webm,0,60,60,21,,,,,,,,12:48:59:385,12:49:00:245,12:49:03:232,right,12:49:05:435,,2012_Dec_31_1206,59.9520256822,MP-Perception Experiment,xx23w20,
380,training(25).webm,False,right,2,vgpdm_dyn(5)-lvm(25)_final(6)_out_of_screen.webm,0,61,61,119,,,,,,,,12:49:06:230,12:49:06:936,12:49:09:939,right,12:49:10:256,,2012_Dec_31_1206,59.9520256822,MP-Perception Experiment,xx23w20,
381,vcgpdm_dyn(35)-lvm(10)_final(3).webm,False,left,2,training(37).webm,0,62,62,42,,,,,,,,12:49:10:980,12:49:11:757,12:49:14:759,left,12:49:15:059,,2012_Dec_31_1206,59.9520256822,MP-Perception Experiment,xx23w20,
382,vgpdm_dyn(20)-lvm(25)_final(9).webm,False,left,2,training(37).webm,0,63,63,30,,,,,,,,12:49:15:700,12:49:16:561,12:49:19:563,right,12:49:19:897,,2012_Dec_31_1206,59.9520256822,MP-Perception Experiment,xx23w20,
383,training(41).webm,True,right,2,vcgpdm_dyn(15)-lvm(25)_final(9).webm,0,64,64,133,,,,,,,,12:49:20:536,12:49:21:399,12:49:24:401,left,12:49:24:702,,2012_Dec_31_1206,59.9520256822,MP-Perception Experiment,xx23w20,
384,training(25).webm,False,right,2,vgpdm_dyn(30)-lvm(20)_final(0).webm,0,65,65,49,,,,,,,,12:49:25:339,12:49:26:203,12:49:29:205,right,12:49:29:706,,2012_Dec_31_1206,59.9520256822,MP-Perception Experiment,xx23w20,
385,training(0).webm,False,right,2,map_cgpdm_final(4).webm,0,66,66,147,,,,,,,,12:49:30:345,12:49:31:207,12:49:34:209,right,12:49:34:660,,2012_Dec_31_1206,59.9520256822,MP-Perception Experiment,xx23w20,
386,training(35).webm,False,right,2,vcgpdm_dyn(15)-lvm(30)_final(2).webm,0,67,67,73,,,,,,,,12:49:35:303,12:49:36:161,12:49:39:162,right,12:49:39:463,,2012_Dec_31_1206,59.9520256822,MP-Perception Experiment,xx23w20,
387,vgpdm_dyn(30)-lvm(35)_final(6).webm,True,left,2,training(11).webm,0,68,68,48,,,,,,,,12:49:40:103,12:49:40:964,12:49:43:966,left,12:49:45:851,,2012_Dec_31_1206,59.9520256822,MP-Perception Experiment,xx23w20,
388,training(11).webm,True,right,2,vcgpdm_dyn(30)-lvm(15)_final(4).webm,0,69,69,81,,,,,,,,12:49:46:492,12:49:47:352,12:49:50:340,left,12:49:50:657,,2012_Dec_31_1206,59.9520256822,MP-Perception Experiment,xx23w20,
389,training(35).webm,True,right,2,dmp_npsi(20)_final(8).webm,0,70,70,6,,,,,,,,12:49:51:455,12:49:52:158,12:49:55:160,right,12:49:55:661,,2012_Dec_31_1206,59.9520256822,MP-Perception Experiment,xx23w20,
390,vcgpdm_dyn(15)-lvm(35)_final(9).webm,True,left,2,training(13).webm,0,71,71,143,,,,,,,,12:49:56:381,12:49:57:163,12:50:00:166,left,12:50:00:816,,2012_Dec_31_1206,59.9520256822,MP-Perception Experiment,xx23w20,
391,vgpdm_dyn(25)-lvm(20)_final(8).webm,True,left,2,training(39).webm,0,72,72,149,,,,,,,,12:50:01:538,12:50:02:317,12:50:05:320,left,12:50:05:670,,2012_Dec_31_1206,59.9520256822,MP-Perception Experiment,xx23w20,
392,training(26).webm,True,right,2,vcgpdm_dyn(5)-lvm(5)_final(2).webm,0,73,73,89,,,,,,,,12:50:06:308,12:50:07:171,12:50:10:174,right,12:50:10:941,,2012_Dec_31_1206,59.9520256822,MP-Perception Experiment,xx23w20,
393,vcgpdm_dyn(25)-lvm(25)_final(0).webm,True,left,2,training(5).webm,0,74,74,141,,,,,,,,12:50:11:662,12:50:12:442,12:50:15:446,right,12:50:16:079,,2012_Dec_31_1206,59.9520256822,MP-Perception Experiment,xx23w20,
394,vcgpdm_dyn(30)-lvm(20)_final(8).webm,False,left,2,training(37).webm,0,75,75,14,,,,,,,,12:50:16:803,12:50:17:580,12:50:20:583,right,12:50:20:983,,2012_Dec_31_1206,59.9520256822,MP-Perception Experiment,xx23w20,
395,vcgpdm_dyn(20)-lvm(20)_final(9).webm,False,left,2,training(15).webm,0,76,76,68,,,,,,,,12:50:21:625,12:50:22:484,12:50:25:487,right,12:50:26:519,,2012_Dec_31_1206,59.9520256822,MP-Perception Experiment,xx23w20,
396,training(18).webm,False,right,2,vcgpdm_dyn(10)-lvm(30)_final(9).webm,0,77,77,78,,,,,,,,12:50:27:160,12:50:28:020,12:50:31:024,left,12:50:31:291,,2012_Dec_31_1206,59.9520256822,MP-Perception Experiment,xx23w20,
397,vcgpdm_dyn(30)-lvm(20)_final(8).webm,False,left,2,training(21).webm,0,78,78,97,,,,,,,,12:50:31:927,12:50:32:792,12:50:35:794,right,12:50:36:145,,2012_Dec_31_1206,59.9520256822,MP-Perception Experiment,xx23w20,
398,training(39).webm,True,right,2,vgpdm_dyn(15)-lvm(30)_final(2).webm,0,79,79,135,,,,,,,,12:50:36:793,12:50:37:646,12:50:40:633,left,12:50:41:968,,2012_Dec_31_1206,59.9520256822,MP-Perception Experiment,xx23w20,
399,training(18).webm,True,right,2,dmp_npsi(45)_final(6).webm,0,80,80,156,,,,,,,,12:50:42:762,12:50:43:469,12:50:46:472,right,12:50:47:089,,2012_Dec_31_1206,59.9520256822,MP-Perception Experiment,xx23w20,
400,training(3).webm,True,right,2,vgpdm_dyn(20)-lvm(5)_final(3).webm,0,81,81,136,,,,,,,,12:50:47:729,12:50:48:591,12:50:51:593,right,12:50:51:827,,2012_Dec_31_1206,59.9520256822,MP-Perception Experiment,xx23w20,
401,training(35).webm,True,right,2,vgpdm_dyn(25)-lvm(35)_final(2).webm,0,82,82,9,,,,,,,,12:50:52:635,12:50:53:328,12:50:56:331,right,12:50:56:664,,2012_Dec_31_1206,59.9520256822,MP-Perception Experiment,xx23w20,
402,training(9).webm,False,right,2,vcgpdm_dyn(15)-lvm(15)_final(5).webm,0,83,83,86,,,,,,,,12:50:57:463,12:50:58:165,12:51:01:168,left,12:51:01:551,,2012_Dec_31_1206,59.9520256822,MP-Perception Experiment,xx23w20,
403,training(16).webm,False,right,2,vcgpdm_dyn(30)-lvm(30)_final(0).webm,0,84,84,90,,,,,,,,12:51:02:189,12:51:03:052,12:51:06:056,right,12:51:06:473,,2012_Dec_31_1206,59.9520256822,MP-Perception Experiment,xx23w20,
404,vcgpdm_dyn(35)-lvm(5)_final(7).webm,False,left,2,training(36).webm,0,85,85,19,,,,,,,,12:51:07:195,12:51:07:974,12:51:10:977,right,12:51:12:194,,2012_Dec_31_1206,59.9520256822,MP-Perception Experiment,xx23w20,
405,vgpdm_dyn(10)-lvm(20)_final(2).webm,True,left,2,training(36).webm,0,86,86,29,,,,,,,,12:51:12:840,12:51:13:695,12:51:16:696,right,12:51:17:297,,2012_Dec_31_1206,59.9520256822,MP-Perception Experiment,xx23w20,
406,vcgpdm_dyn(15)-lvm(15)_final(6).webm,False,left,2,training(6).webm,0,87,87,107,,,,,,,,12:51:17:940,12:51:18:798,12:51:21:800,left,12:51:22:134,,2012_Dec_31_1206,59.9520256822,MP-Perception Experiment,xx23w20,
407,training(31).webm,False,right,2,vgpdm_dyn(35)-lvm(25)_final(7).webm,0,88,88,110,,,,,,,,12:51:22:779,12:51:23:636,12:51:26:638,right,12:51:27:022,,2012_Dec_31_1206,59.9520256822,MP-Perception Experiment,xx23w20,
408,vgpdm_dyn(20)-lvm(15)_final(7).webm,False,left,2,training(25).webm,0,89,89,115,,,,,,,,12:51:27:663,12:51:28:525,12:51:31:511,right,12:51:31:961,,2012_Dec_31_1206,59.9520256822,MP-Perception Experiment,xx23w20,
409,training(29).webm,True,right,2,dmp_npsi(45)_final(3).webm,0,90,90,106,,,,,,,,12:51:32:755,12:51:33:462,12:51:36:465,right,12:51:37:082,,2012_Dec_31_1206,59.9520256822,MP-Perception Experiment,xx23w20,
410,vcgpdm_dyn(15)-lvm(10)_final(1).webm,True,left,2,training(36).webm,0,91,91,109,,,,,,,,12:51:37:720,12:51:38:583,12:51:41:587,left,12:51:42:287,,2012_Dec_31_1206,59.9520256822,MP-Perception Experiment,xx23w20,
411,training(38).webm,False,right,2,tmp_numprim(9)_final(9).webm,0,92,92,82,,,,,,,,12:51:42:925,12:51:43:788,12:51:46:791,left,12:51:46:974,,2012_Dec_31_1206,59.9520256822,MP-Perception Experiment,xx23w20,
412,training(28).webm,True,right,2,vcgpdm_dyn(35)-lvm(5)_final(8).webm,0,93,93,113,,,,,,,,12:51:47:616,12:51:48:475,12:51:51:478,left,12:51:51:978,,2012_Dec_31_1206,59.9520256822,MP-Perception Experiment,xx23w20,
413,vcgpdm_dyn(15)-lvm(10)_final(1).webm,False,left,2,training(17).webm,0,94,94,55,,,,,,,,12:51:52:619,12:51:53:480,12:51:56:482,left,12:51:56:916,,2012_Dec_31_1206,59.9520256822,MP-Perception Experiment,xx23w20,
414,map_cgpdm_final(9).webm,False,left,2,training(24).webm,0,95,95,31,,,,,,,,12:51:57:557,12:51:58:418,12:52:01:420,right,12:52:02:688,,2012_Dec_31_1206,59.9520256822,MP-Perception Experiment,xx23w20,
415,training(39).webm,False,right,2,vgpdm_dyn(25)-lvm(30)_final(8).webm,0,96,96,51,,,,,,,,12:52:03:502,12:52:04:189,12:52:07:190,left,12:52:07:207,,2012_Dec_31_1206,59.9520256822,MP-Perception Experiment,xx23w20,
416,vcgpdm_dyn(30)-lvm(25)_final(7).webm,True,left,2,training(7).webm,0,97,97,24,,,,,,,,12:52:07:933,12:52:08:708,12:52:11:710,left,12:52:12:161,,2012_Dec_31_1206,59.9520256822,MP-Perception Experiment,xx23w20,
417,training(6).webm,True,right,2,vgpdm_dyn(10)-lvm(35)_final(7).webm,0,98,98,125,,,,,,,,12:52:12:803,12:52:13:662,12:52:16:665,right,12:52:17:066,,2012_Dec_31_1206,59.9520256822,MP-Perception Experiment,xx23w20,
418,training(26).webm,False,right,2,vgpdm_dyn(20)-lvm(15)_final(0).webm,0,99,99,114,,,,,,,,12:52:17:708,12:52:18:567,12:52:21:554,right,12:52:22:639,,2012_Dec_31_1206,59.9520256822,MP-Perception Experiment,xx23w20,
419,training(20).webm,False,right,2,vcgpdm_dyn(15)-lvm(35)_final(0).webm,0,100,100,79,,,,,,,,12:52:23:278,12:52:24:140,12:52:27:142,right,12:52:27:459,,2012_Dec_31_1206,59.9520256822,MP-Perception Experiment,xx23w20,
420,vcgpdm_dyn(30)-lvm(30)_final(5).webm,False,left,2,training(23).webm,0,101,101,137,,,,,,,,12:52:28:186,12:52:28:960,12:52:31:963,right,12:52:32:296,,2012_Dec_31_1206,59.9520256822,MP-Perception Experiment,xx23w20,
421,vgpdm_dyn(25)-lvm(5)_final(7).webm,True,left,2,training(30).webm,0,102,102,101,,,,,,,,12:52:32:939,12:52:33:798,12:52:36:801,left,12:52:37:101,,2012_Dec_31_1206,59.9520256822,MP-Perception Experiment,xx23w20,
422,vcgpdm_dyn(25)-lvm(25)_final(2).webm,False,left,2,training(35).webm,0,103,103,139,,,,,,,,12:52:37:745,12:52:38:602,12:52:41:605,left,12:52:41:922,,2012_Dec_31_1206,59.9520256822,MP-Perception Experiment,xx23w20,
423,vcgpdm_dyn(35)-lvm(35)_final(7)_bad.webm,True,left,2,training(23).webm,0,104,104,122,,,,,,,,12:52:42:560,12:52:43:423,12:52:46:425,left,12:52:47:076,,2012_Dec_31_1206,59.9520256822,MP-Perception Experiment,xx23w20,
424,dmp_npsi(40)_final(9).webm,False,left,2,training(12).webm,0,105,105,150,,,,,,,,12:52:47:804,12:52:48:577,12:52:51:581,right,12:52:51:847,,2012_Dec_31_1206,59.9520256822,MP-Perception Experiment,xx23w20,
425,training(38).webm,False,right,2,vcgpdm_dyn(25)-lvm(25)_final(3).webm,0,106,106,98,,,,,,,,12:52:52:487,12:52:53:348,12:52:56:351,left,12:52:56:700,,2012_Dec_31_1206,59.9520256822,MP-Perception Experiment,xx23w20,
426,vcgpdm_dyn(20)-lvm(35)_final(9).webm,False,left,2,training(6).webm,0,107,107,129,,,,,,,,12:52:57:341,12:52:58:201,12:53:01:203,right,12:53:01:754,,2012_Dec_31_1206,59.9520256822,MP-Perception Experiment,xx23w20,
427,dmp_npsi(45)_final(7).webm,True,left,2,training(35).webm,0,108,108,71,,,,,,,,12:53:02:476,12:53:03:255,12:53:06:257,left,12:53:06:908,,2012_Dec_31_1206,59.9520256822,MP-Perception Experiment,xx23w20,
428,training(17).webm,False,right,2,vcgpdm_dyn(10)-lvm(5)_final(9).webm,0,109,109,87,,,,,,,,12:53:07:551,12:53:08:412,12:53:11:398,right,12:53:11:764,,2012_Dec_31_1206,59.9520256822,MP-Perception Experiment,xx23w20,
429,vcgpdm_dyn(10)-lvm(15)_final(7).webm,False,left,2,training(33).webm,0,110,110,5,,,,,,,,12:53:12:498,12:53:13:266,12:53:16:268,right,12:53:16:552,,2012_Dec_31_1206,59.9520256822,MP-Perception Experiment,xx23w20,
430,tmp_numprim(10)_final(0).webm,False,left,2,training(23).webm,0,111,111,23,,,,,,,,12:53:17:194,12:53:18:053,12:53:21:055,right,12:53:21:406,,2012_Dec_31_1206,59.9520256822,MP-Perception Experiment,xx23w20,
431,vgpdm_dyn(30)-lvm(10)_final(5).webm,True,left,2,training(8).webm,0,112,112,20,,,,,,,,12:53:22:131,12:53:22:907,12:53:25:910,left,12:53:26:110,,2012_Dec_31_1206,59.9520256822,MP-Perception Experiment,xx23w20,
432,training(20).webm,False,right,2,vgpdm_dyn(25)-lvm(5)_final(0).webm,0,113,113,118,,,,,,,,12:53:26:896,12:53:27:611,12:53:30:614,right,12:53:30:998,,2012_Dec_31_1206,59.9520256822,MP-Perception Experiment,xx23w20,
433,training(11).webm,True,right,2,vcgpdm_dyn(5)-lvm(15)_final(4).webm,0,114,114,65,,,,,,,,12:53:31:641,12:53:32:499,12:53:35:501,left,12:53:35:802,,2012_Dec_31_1206,59.9520256822,MP-Perception Experiment,xx23w20,
434,vgpdm_dyn(5)-lvm(15)_final(6).webm,True,left,2,training(25).webm,0,115,115,33,,,,,,,,12:53:36:444,12:53:37:303,12:53:40:305,left,12:53:40:339,,2012_Dec_31_1206,59.9520256822,MP-Perception Experiment,xx23w20,
435,training(9).webm,True,right,2,vgpdm_dyn(25)-lvm(15)_final(2)_out_of_screen.webm,0,116,116,142,,,,,,,,12:53:41:130,12:53:41:840,12:53:44:843,right,12:53:45:143,,2012_Dec_31_1206,59.9520256822,MP-Perception Experiment,xx23w20,
436,training(0).webm,True,right,2,vcgpdm_dyn(35)-lvm(5)_final(0).webm,0,117,117,22,,,,,,,,12:53:45:932,12:53:46:659,12:53:49:645,left,12:53:50:212,,2012_Dec_31_1206,59.9520256822,MP-Perception Experiment,xx23w20,
437,vcgpdm_dyn(20)-lvm(10)_final(6).webm,True,left,2,training(40).webm,0,118,118,16,,,,,,,,12:53:50:856,12:53:51:714,12:53:54:716,right,12:53:55:433,,2012_Dec_31_1206,59.9520256822,MP-Perception Experiment,xx23w20,
438,training(6).webm,False,right,2,vgpdm_dyn(5)-lvm(10)_final(4).webm,0,119,119,62,,,,,,,,12:53:56:223,12:53:56:934,12:53:59:922,right,12:54:00:256,,2012_Dec_31_1206,59.9520256822,MP-Perception Experiment,xx23w20,
439,training(4).webm,True,right,2,vcgpdm_dyn(35)-lvm(25)_final(9).webm,0,120,120,37,,,,,,,,12:54:00:895,12:54:01:758,12:54:04:760,left,12:54:05:111,,2012_Dec_31_1206,59.9520256822,MP-Perception Experiment,xx23w20,
440,training(31).webm,True,right,2,vcgpdm_dyn(30)-lvm(35)_final(3).webm,0,121,121,7,,,,,,,,12:54:05:904,12:54:06:612,12:54:09:614,left,12:54:10:048,,2012_Dec_31_1206,59.9520256822,MP-Perception Experiment,xx23w20,
441,training(32).webm,False,right,2,dmp_npsi(35)_final(8).webm,0,122,122,74,,,,,,,,12:54:10:841,12:54:11:549,12:54:14:552,right,12:54:14:918,,2012_Dec_31_1206,59.9520256822,MP-Perception Experiment,xx23w20,
442,training(36).webm,True,right,2,vcgpdm_dyn(25)-lvm(20)_final(4).webm,0,123,123,66,,,,,,,,12:54:15:558,12:54:16:420,12:54:19:423,left,12:54:19:707,,2012_Dec_31_1206,59.9520256822,MP-Perception Experiment,xx23w20,
443,vcgpdm_dyn(25)-lvm(15)_final(9).webm,False,left,2,training(25).webm,0,124,124,8,,,,,,,,12:54:20:347,12:54:21:208,12:54:24:210,left,12:54:24:894,,2012_Dec_31_1206,59.9520256822,MP-Perception Experiment,xx23w20,
444,training(23).webm,False,right,2,vgpdm_dyn(25)-lvm(10)_final(1)_out_of_screen.webm,0,125,125,57,,,,,,,,12:54:25:687,12:54:26:395,12:54:29:398,right,12:54:29:898,,2012_Dec_31_1206,59.9520256822,MP-Perception Experiment,xx23w20,
445,vcgpdm_dyn(35)-lvm(15)_final(1)_out_of_screen.webm,False,left,2,training(29).webm,0,126,126,70,,,,,,,,12:54:30:622,12:54:31:399,12:54:34:402,left,12:54:34:435,,2012_Dec_31_1206,59.9520256822,MP-Perception Experiment,xx23w20,
446,training(13).webm,False,right,2,vcgpdm_dyn(30)-lvm(20)_final(2).webm,0,127,127,152,,,,,,,,12:54:35:223,12:54:35:937,12:54:38:938,left,12:54:39:288,,2012_Dec_31_1206,59.9520256822,MP-Perception Experiment,xx23w20,
447,training(38).webm,False,right,2,tmp_numprim(2)_final(8).webm,0,128,128,148,,,,,,,,12:54:39:927,12:54:40:789,12:54:43:792,right,12:54:44:126,,2012_Dec_31_1206,59.9520256822,MP-Perception Experiment,xx23w20,
448,training(22).webm,True,right,2,vcgpdm_dyn(35)-lvm(10)_final(7).webm,0,129,129,54,,,,,,,,12:54:44:772,12:54:45:627,12:54:48:614,left,12:54:48:981,,2012_Dec_31_1206,59.9520256822,MP-Perception Experiment,xx23w20,
449,vcgpdm_dyn(15)-lvm(25)_final(5).webm,False,left,2,training(38).webm,0,130,130,96,,,,,,,,12:54:49:621,12:54:50:482,12:54:53:486,right,12:54:53:920,,2012_Dec_31_1206,59.9520256822,MP-Perception Experiment,xx23w20,
450,vgpdm_dyn(5)-lvm(20)_final(2).webm,True,left,2,training(48).webm,0,131,131,100,,,,,,,,12:54:54:556,12:54:55:421,12:54:58:423,right,12:54:58:790,,2012_Dec_31_1206,59.9520256822,MP-Perception Experiment,xx23w20,
451,vgpdm_dyn(30)-lvm(35)_final(9).webm,True,left,2,training(9).webm,0,132,132,132,,,,,,,,12:54:59:435,12:55:00:291,12:55:03:294,right,12:55:03:327,,2012_Dec_31_1206,59.9520256822,MP-Perception Experiment,xx23w20,
452,dmp_npsi(20)_final(4).webm,True,left,2,training(3).webm,0,133,133,36,,,,,,,,12:55:03:971,12:55:04:828,12:55:07:831,left,12:55:08:248,,2012_Dec_31_1206,59.9520256822,MP-Perception Experiment,xx23w20,
453,vcgpdm_dyn(15)-lvm(10)_final(8).webm,True,left,2,training(21).webm,0,134,134,69,,,,,,,,12:55:08:890,12:55:09:749,12:55:12:753,left,12:55:13:119,,2012_Dec_31_1206,59.9520256822,MP-Perception Experiment,xx23w20,
454,training(9).webm,True,right,2,vgpdm_dyn(30)-lvm(25)_final(1).webm,0,135,135,99,,,,,,,,12:55:13:906,12:55:14:621,12:55:17:623,right,12:55:17:923,,2012_Dec_31_1206,59.9520256822,MP-Perception Experiment,xx23w20,
455,vgpdm_dyn(30)-lvm(30)_final(3).webm,False,left,2,training(3).webm,0,136,136,126,,,,,,,,12:55:18:567,12:55:19:424,12:55:22:427,right,12:55:22:744,,2012_Dec_31_1206,59.9520256822,MP-Perception Experiment,xx23w20,
456,vgpdm_dyn(10)-lvm(10)_final(7).webm,False,left,2,training(24).webm,0,137,137,63,,,,,,,,12:55:23:387,12:55:24:245,12:55:27:246,right,12:55:27:663,,2012_Dec_31_1206,59.9520256822,MP-Perception Experiment,xx23w20,
457,vcgpdm_dyn(35)-lvm(30)_final(4).webm,False,left,2,training(22).webm,0,138,138,85,,,,,,,,12:55:28:304,12:55:29:165,12:55:32:167,left,12:55:33:001,,2012_Dec_31_1206,59.9520256822,MP-Perception Experiment,xx23w20,
458,vgpdm_dyn(10)-lvm(5)_final(8).webm,False,left,2,training(32).webm,0,139,139,41,,,,,,,,12:55:33:645,12:55:34:502,12:55:37:505,right,12:55:37:855,,2012_Dec_31_1206,59.9520256822,MP-Perception Experiment,xx23w20,
459,training(39).webm,True,right,2,vgpdm_dyn(15)-lvm(15)_final(7).webm,0,140,140,18,,,,,,,,12:55:38:659,12:55:39:356,12:55:42:344,left,12:55:42:878,,2012_Dec_31_1206,59.9520256822,MP-Perception Experiment,xx23w20,
460,vgpdm_dyn(30)-lvm(35)_final(2).webm,True,left,2,training(5).webm,0,141,141,94,,,,,,,,12:55:43:602,12:55:44:379,12:55:47:383,left,12:55:47:699,,2012_Dec_31_1206,59.9520256822,MP-Perception Experiment,xx23w20,
461,tmp_numprim(4)_final(9).webm,True,left,2,training(12).webm,0,142,142,151,,,,,,,,12:55:48:428,12:55:49:200,12:55:52:203,left,12:55:52:570,,2012_Dec_31_1206,59.9520256822,MP-Perception Experiment,xx23w20,
462,dmp_npsi(30)_final(4).webm,True,left,2,training(24).webm,0,143,143,103,,,,,,,,12:55:53:211,12:55:54:071,12:55:57:073,left,12:55:57:374,,2012_Dec_31_1206,59.9520256822,MP-Perception Experiment,xx23w20,
463,vcgpdm_dyn(5)-lvm(25)_final(6).webm,True,left,2,training(3).webm,0,144,144,43,,,,,,,,12:55:58:011,12:55:58:875,12:56:01:878,left,12:56:02:111,,2012_Dec_31_1206,59.9520256822,MP-Perception Experiment,xx23w20,
464,vcgpdm_dyn(20)-lvm(35)_final(0).webm,False,left,2,training(0).webm,0,145,145,124,,,,,,,,12:56:02:754,12:56:03:613,12:56:06:616,left,12:56:06:716,,2012_Dec_31_1206,59.9520256822,MP-Perception Experiment,xx23w20,
465,tmp_numprim(3)_final(7).webm,False,left,2,training(26).webm,0,146,146,53,,,,,,,,12:56:07:353,12:56:08:217,12:56:11:219,left,12:56:11:503,,2012_Dec_31_1206,59.9520256822,MP-Perception Experiment,xx23w20,
466,training(2).webm,True,right,2,vgpdm_dyn(10)-lvm(15)_final(5).webm,0,147,147,35,,,,,,,,12:56:12:144,12:56:13:004,12:56:16:006,right,12:56:16:424,,2012_Dec_31_1206,59.9520256822,MP-Perception Experiment,xx23w20,
467,vgpdm_dyn(30)-lvm(25)_final(5).webm,True,left,2,training(20).webm,0,148,148,34,,,,,,,,12:56:17:079,12:56:17:940,12:56:20:943,left,12:56:21:360,,2012_Dec_31_1206,59.9520256822,MP-Perception Experiment,xx23w20,
468,vgpdm_dyn(30)-lvm(5)_final(9).webm,True,left,2,training(8).webm,0,149,149,47,,,,,,,,12:56:22:083,12:56:22:861,12:56:25:864,left,12:56:26:147,,2012_Dec_31_1206,59.9520256822,MP-Perception Experiment,xx23w20,
