trial_number,right,flipped,correct,block,left,trials.thisRepN,trials.thisTrialN,trials.thisN,trials.thisIndex,flipwelcome.keys,flipwelcome.corr,flipwelcome.rt,flippreparations.keys,flippreparations.rt,flipInstructions.keys,flipInstructions.rt,time_at_fixation_cross_onset,time_at_videoonset,time_at_videoend,participant_key_response,time_at_key_response,key_resp_4.keys,date,frameRate,expName,participant,
,,,,,,,,,,space,0,106.90689138,,,,,,,,,,,2013_Jan_03_1638,59.9158387075,MP-Perception Experiment,xx24w24,
,,,,,,,,,,,,,space,12.4955255121,,,,,,,,,2013_Jan_03_1638,59.9158387075,MP-Perception Experiment,xx24w24,
,,,,,,,,,,,,,,,space,8.45726693933,,,,,,,2013_Jan_03_1638,59.9158387075,MP-Perception Experiment,xx24w24,
1,training(39).webm,True,right,0,vgpdm_dyn(25)-lvm(5)_final(9).webm,0,0,0,21,,,,,,,,16:40:51:689,16:40:52:313,16:40:55:300,left,16:40:56:117,,2013_Jan_03_1638,59.9158387075,MP-Perception Experiment,xx24w24,
2,tmp_numprim(6)_final(7).webm,False,left,0,training(38).webm,0,1,1,43,,,,,,,,16:40:56:798,16:40:57:619,16:41:00:621,right,16:41:01:172,,2013_Jan_03_1638,59.9158387075,MP-Perception Experiment,xx24w24,
3,vcgpdm_dyn(20)-lvm(35)_final(2).webm,False,left,0,training(48).webm,0,2,2,118,,,,,,,,16:41:01:855,16:41:02:673,16:41:05:692,right,16:41:06:126,,2013_Jan_03_1638,59.9158387075,MP-Perception Experiment,xx24w24,
4,vgpdm_dyn(30)-lvm(35)_final(5).webm,True,left,0,training(32).webm,0,3,3,140,,,,,,,,16:41:06:809,16:41:07:627,16:41:10:629,left,16:41:11:130,,2013_Jan_03_1638,59.9158387075,MP-Perception Experiment,xx24w24,
5,training(12).webm,False,right,0,vgpdm_dyn(5)-lvm(30)_final(6).webm,0,4,4,111,,,,,,,,16:41:29:958,16:41:30:681,16:41:33:683,right,16:41:34:217,,2013_Jan_03_1638,59.9158387075,MP-Perception Experiment,xx24w24,
6,vcgpdm_dyn(30)-lvm(30)_final(7).webm,True,left,0,training(33).webm,0,5,5,148,,,,,,,,16:41:34:904,16:41:35:718,16:41:38:721,left,16:41:45:359,,2013_Jan_03_1638,59.9158387075,MP-Perception Experiment,xx24w24,
7,training(0).webm,False,right,0,vcgpdm_dyn(15)-lvm(15)_final(6).webm,0,6,6,79,,,,,,,,16:41:46:043,16:41:46:860,16:41:49:864,left,16:41:50:364,,2013_Jan_03_1638,59.9158387075,MP-Perception Experiment,xx24w24,
8,vcgpdm_dyn(30)-lvm(30)_final(8).webm,False,left,0,training(9).webm,0,7,7,78,,,,,,,,16:41:51:210,16:41:51:865,16:41:54:868,left,16:41:55:251,,2013_Jan_03_1638,59.9158387075,MP-Perception Experiment,xx24w24,
9,vcgpdm_dyn(5)-lvm(10)_final(9).webm,False,left,0,training(9).webm,0,8,8,27,,,,,,,,16:41:55:953,16:41:56:753,16:41:59:755,left,16:42:00:606,,2013_Jan_03_1638,59.9158387075,MP-Perception Experiment,xx24w24,
10,vcgpdm_dyn(35)-lvm(35)_final(7)_bad.webm,True,left,0,training(40).webm,0,9,9,36,,,,,,,,16:42:01:456,16:42:02:107,16:42:05:109,left,16:42:05:776,,2013_Jan_03_1638,59.9158387075,MP-Perception Experiment,xx24w24,
11,vgpdm_dyn(35)-lvm(10)_final(9).webm,True,left,0,training(25).webm,0,10,10,29,,,,,,,,16:42:06:466,16:42:07:277,16:42:10:279,right,16:42:10:913,,2013_Jan_03_1638,59.9158387075,MP-Perception Experiment,xx24w24,
12,training(27).webm,False,right,0,dmp_npsi(20)_final(3).webm,0,11,11,121,,,,,,,,16:42:11:761,16:42:12:414,16:42:15:402,right,16:42:16:136,,2013_Jan_03_1638,59.9158387075,MP-Perception Experiment,xx24w24,
13,training(48).webm,True,right,0,dmp_npsi(30)_final(9).webm,0,12,12,94,,,,,,,,16:42:16:813,16:42:17:637,16:42:20:640,right,16:42:21:190,,2013_Jan_03_1638,59.9158387075,MP-Perception Experiment,xx24w24,
14,vcgpdm_dyn(25)-lvm(5)_final(7).webm,True,left,0,training(34).webm,0,13,13,39,,,,,,,,16:42:21:876,16:42:22:692,16:42:25:695,right,16:42:27:446,,2013_Jan_03_1638,59.9158387075,MP-Perception Experiment,xx24w24,
15,vcgpdm_dyn(15)-lvm(5)_final(2).webm,False,left,0,training(28).webm,0,14,14,61,,,,,,,,16:42:28:295,16:42:28:947,16:42:31:950,right,16:42:32:400,,2013_Jan_03_1638,59.9158387075,MP-Perception Experiment,xx24w24,
16,vgpdm_dyn(35)-lvm(10)_final(3).webm,True,left,0,training(5).webm,0,15,15,120,,,,,,,,16:42:33:220,16:42:33:901,16:42:36:904,right,16:42:37:387,,2013_Jan_03_1638,59.9158387075,MP-Perception Experiment,xx24w24,
17,vcgpdm_dyn(25)-lvm(15)_final(2).webm,False,left,0,training(2).webm,0,16,16,7,,,,,,,,16:42:38:070,16:42:38:889,16:42:41:892,left,16:42:42:576,,2013_Jan_03_1638,59.9158387075,MP-Perception Experiment,xx24w24,
18,vgpdm_dyn(15)-lvm(5)_final(7).webm,False,left,0,training(20).webm,0,17,17,127,,,,,,,,16:42:43:431,16:42:44:077,16:42:47:080,left,16:42:47:630,,2013_Jan_03_1638,59.9158387075,MP-Perception Experiment,xx24w24,
19,vgpdm_dyn(5)-lvm(30)_final(3).webm,False,left,0,training(27).webm,0,18,18,156,,,,,,,,16:42:48:398,16:42:49:131,16:42:52:134,left,16:42:52:616,,2013_Jan_03_1638,59.9158387075,MP-Perception Experiment,xx24w24,
20,training(35).webm,False,right,0,tmp_numprim(5)_final(0).webm,0,19,19,107,,,,,,,,16:42:53:465,16:42:54:117,16:42:57:119,right,16:42:57:604,,2013_Jan_03_1638,59.9158387075,MP-Perception Experiment,xx24w24,
21,vcgpdm_dyn(30)-lvm(15)_final(6).webm,True,left,0,training(36).webm,0,20,20,98,,,,,,,,16:42:58:455,16:42:59:105,16:43:02:108,right,16:43:02:541,,2013_Jan_03_1638,59.9158387075,MP-Perception Experiment,xx24w24,
22,training(36).webm,True,right,0,vgpdm_dyn(10)-lvm(30)_final(3).webm,0,21,21,82,,,,,,,,16:43:03:384,16:43:04:042,16:43:07:030,right,16:43:07:580,,2013_Jan_03_1638,59.9158387075,MP-Perception Experiment,xx24w24,
23,vgpdm_dyn(15)-lvm(25)_final(5).webm,False,left,0,training(27).webm,0,22,22,124,,,,,,,,16:43:08:304,16:43:09:082,16:43:12:084,right,16:43:12:651,,2013_Jan_03_1638,59.9158387075,MP-Perception Experiment,xx24w24,
24,vcgpdm_dyn(10)-lvm(15)_final(1).webm,False,left,0,training(6).webm,0,23,23,129,,,,,,,,16:43:13:503,16:43:14:152,16:43:17:156,right,16:43:17:589,,2013_Jan_03_1638,59.9158387075,MP-Perception Experiment,xx24w24,
25,training(11).webm,True,right,0,dmp_npsi(45)_final(2).webm,0,24,24,50,,,,,,,,16:43:18:438,16:43:19:091,16:43:22:093,right,16:43:22:460,,2013_Jan_03_1638,59.9158387075,MP-Perception Experiment,xx24w24,
26,vcgpdm_dyn(10)-lvm(10)_final(5).webm,True,left,0,training(27).webm,0,25,25,2,,,,,,,,16:43:23:268,16:43:23:961,16:43:26:964,left,16:43:27:598,,2013_Jan_03_1638,59.9158387075,MP-Perception Experiment,xx24w24,
27,vcgpdm_dyn(20)-lvm(20)_final(5).webm,False,left,0,training(12).webm,0,26,26,137,,,,,,,,16:43:28:441,16:43:29:115,16:43:32:101,right,16:43:32:453,,2013_Jan_03_1638,59.9158387075,MP-Perception Experiment,xx24w24,
28,training(16).webm,False,right,0,vcgpdm_dyn(5)-lvm(10)_final(9).webm,0,27,27,53,,,,,,,,16:43:33:296,16:43:33:954,16:43:36:956,right,16:43:37:373,,2013_Jan_03_1638,59.9158387075,MP-Perception Experiment,xx24w24,
29,dmp_npsi(15)_final(6).webm,False,left,0,training(29).webm,0,28,28,142,,,,,,,,16:43:38:198,16:43:38:874,16:43:41:877,left,16:43:42:426,,2013_Jan_03_1638,59.9158387075,MP-Perception Experiment,xx24w24,
30,vcgpdm_dyn(20)-lvm(25)_final(1).webm,False,left,0,training(0).webm,0,29,29,74,,,,,,,,16:43:43:168,16:43:43:927,16:43:46:929,left,16:43:47:513,,2013_Jan_03_1638,59.9158387075,MP-Perception Experiment,xx24w24,
31,dmp_npsi(35)_final(4).webm,True,left,0,training(15).webm,0,30,30,93,,,,,,,,16:43:48:289,16:43:49:014,16:43:52:018,left,16:43:52:435,,2013_Jan_03_1638,59.9158387075,MP-Perception Experiment,xx24w24,
32,vcgpdm_dyn(10)-lvm(25)_final(4).webm,True,left,0,training(23).webm,0,31,31,55,,,,,,,,16:43:53:280,16:43:53:936,16:43:56:923,left,16:43:57:424,,2013_Jan_03_1638,59.9158387075,MP-Perception Experiment,xx24w24,
33,training(21).webm,True,right,0,vcgpdm_dyn(15)-lvm(30)_final(8).webm,0,32,32,92,,,,,,,,16:43:58:109,16:43:58:925,16:44:01:927,right,16:44:01:977,,2013_Jan_03_1638,59.9158387075,MP-Perception Experiment,xx24w24,
34,tmp_numprim(10)_final(3).webm,False,left,0,training(28).webm,0,33,33,59,,,,,,,,16:44:02:669,16:44:03:479,16:44:06:481,right,16:44:07:149,,2013_Jan_03_1638,59.9158387075,MP-Perception Experiment,xx24w24,
35,vcgpdm_dyn(10)-lvm(25)_final(3).webm,True,left,0,training(36).webm,0,34,34,115,,,,,,,,16:44:07:832,16:44:08:650,16:44:11:653,left,16:44:12:203,,2013_Jan_03_1638,59.9158387075,MP-Perception Experiment,xx24w24,
36,training(48).webm,False,right,0,vcgpdm_dyn(5)-lvm(20)_final(1).webm,0,35,35,88,,,,,,,,16:44:12:881,16:44:13:704,16:44:16:707,right,16:44:17:274,,2013_Jan_03_1638,59.9158387075,MP-Perception Experiment,xx24w24,
37,vgpdm_dyn(20)-lvm(35)_final(2).webm,True,left,0,training(48).webm,0,36,36,28,,,,,,,,16:44:17:954,16:44:18:775,16:44:21:778,left,16:44:22:211,,2013_Jan_03_1638,59.9158387075,MP-Perception Experiment,xx24w24,
38,vgpdm_dyn(15)-lvm(5)_final(6).webm,True,left,0,training(31).webm,0,37,37,66,,,,,,,,16:44:22:895,16:44:23:712,16:44:26:716,left,16:44:27:383,,2013_Jan_03_1638,59.9158387075,MP-Perception Experiment,xx24w24,
39,vgpdm_dyn(10)-lvm(20)_final(2).webm,True,left,0,training(24).webm,0,38,38,144,,,,,,,,16:44:28:208,16:44:28:884,16:44:31:887,left,16:44:33:070,,2013_Jan_03_1638,59.9158387075,MP-Perception Experiment,xx24w24,
40,tmp_numprim(6)_final(3).webm,False,left,0,training(18).webm,0,39,39,1,,,,,,,,16:44:33:751,16:44:34:570,16:44:37:573,right,16:44:37:957,,2013_Jan_03_1638,59.9158387075,MP-Perception Experiment,xx24w24,
41,training(21).webm,False,right,0,vcgpdm_dyn(5)-lvm(20)_final(6).webm,0,40,40,151,,,,,,,,16:44:38:632,16:44:39:458,16:44:42:461,right,16:44:42:978,,2013_Jan_03_1638,59.9158387075,MP-Perception Experiment,xx24w24,
42,vgpdm_dyn(25)-lvm(5)_final(0).webm,False,left,0,training(48).webm,0,41,41,63,,,,,,,,16:44:43:763,16:44:44:481,16:44:47:467,left,16:44:48:752,,2013_Jan_03_1638,59.9158387075,MP-Perception Experiment,xx24w24,
43,training(32).webm,True,right,0,vcgpdm_dyn(30)-lvm(25)_final(4).webm,0,42,42,62,,,,,,,,16:44:49:429,16:44:50:253,16:44:53:255,left,16:44:53:789,,2013_Jan_03_1638,59.9158387075,MP-Perception Experiment,xx24w24,
44,vcgpdm_dyn(15)-lvm(30)_final(3).webm,True,left,0,training(12).webm,0,43,43,14,,,,,,,,16:44:54:461,16:44:55:290,16:44:58:293,right,16:44:58:793,,2013_Jan_03_1638,59.9158387075,MP-Perception Experiment,xx24w24,
45,vgpdm_dyn(10)-lvm(35)_final(3).webm,True,left,0,training(41).webm,0,44,44,56,,,,,,,,16:44:59:613,16:45:00:295,16:45:03:298,left,16:45:03:865,,2013_Jan_03_1638,59.9158387075,MP-Perception Experiment,xx24w24,
46,vcgpdm_dyn(10)-lvm(20)_final(1).webm,True,left,0,training(19).webm,0,45,45,10,,,,,,,,16:45:04:737,16:45:05:366,16:45:08:368,left,16:45:09:286,,2013_Jan_03_1638,59.9158387075,MP-Perception Experiment,xx24w24,
47,training(27).webm,True,right,0,vgpdm_dyn(15)-lvm(30)_final(5).webm,0,46,46,69,,,,,,,,16:45:09:962,16:45:10:787,16:45:13:789,right,16:45:14:373,,2013_Jan_03_1638,59.9158387075,MP-Perception Experiment,xx24w24,
48,training(36).webm,True,right,0,vcgpdm_dyn(20)-lvm(30)_final(2).webm,0,47,47,18,,,,,,,,16:45:15:100,16:45:15:874,16:45:18:878,right,16:45:19:461,,2013_Jan_03_1638,59.9158387075,MP-Perception Experiment,xx24w24,
49,vcgpdm_dyn(15)-lvm(20)_final(4).webm,False,left,0,training(38).webm,0,48,48,54,,,,,,,,16:45:20:233,16:45:20:963,16:45:23:963,right,16:45:24:380,,2013_Jan_03_1638,59.9158387075,MP-Perception Experiment,xx24w24,
50,training(34).webm,False,right,0,vcgpdm_dyn(25)-lvm(30)_final(8).webm,0,49,49,77,,,,,,,,16:45:25:225,16:45:25:882,16:45:28:884,right,16:45:29:468,,2013_Jan_03_1638,59.9158387075,MP-Perception Experiment,xx24w24,
51,dmp_npsi(35)_final(8).webm,True,left,0,training(33).webm,0,50,50,81,,,,,,,,16:45:30:247,16:45:30:986,16:45:33:972,left,16:45:34:541,,2013_Jan_03_1638,59.9158387075,MP-Perception Experiment,xx24w24,
52,training(33).webm,False,right,0,vcgpdm_dyn(20)-lvm(15)_final(0).webm,0,51,51,67,,,,,,,,16:45:35:352,16:45:36:043,16:45:39:045,right,16:45:39:562,,2013_Jan_03_1638,59.9158387075,MP-Perception Experiment,xx24w24,
53,vgpdm_dyn(10)-lvm(35)_final(7).webm,True,left,0,training(29).webm,0,52,52,30,,,,,,,,16:45:40:410,16:45:41:063,16:45:44:066,left,16:45:44:533,,2013_Jan_03_1638,59.9158387075,MP-Perception Experiment,xx24w24,
54,vgpdm_dyn(25)-lvm(20)_final(6).webm,False,left,0,training(24).webm,0,53,53,51,,,,,,,,16:45:45:211,16:45:46:034,16:45:49:037,left,16:45:49:637,,2013_Jan_03_1638,59.9158387075,MP-Perception Experiment,xx24w24,
55,tmp_numprim(9)_final(9).webm,True,left,0,training(8).webm,0,54,54,49,,,,,,,,16:45:50:401,16:45:51:138,16:45:54:142,right,16:45:54:775,,2013_Jan_03_1638,59.9158387075,MP-Perception Experiment,xx24w24,
56,training(37).webm,False,right,0,vcgpdm_dyn(25)-lvm(10)_final(1).webm,0,55,55,133,,,,,,,,16:45:55:624,16:45:56:277,16:45:59:279,right,16:45:59:663,,2013_Jan_03_1638,59.9158387075,MP-Perception Experiment,xx24w24,
57,vgpdm_dyn(20)-lvm(20)_final(0).webm,False,left,0,training(12).webm,0,56,56,87,,,,,,,,16:46:00:495,16:46:01:164,16:46:04:166,right,16:46:04:550,,2013_Jan_03_1638,59.9158387075,MP-Perception Experiment,xx24w24,
58,training(33).webm,True,right,0,vcgpdm_dyn(35)-lvm(25)_final(6).webm,0,57,57,68,,,,,,,,16:46:05:249,16:46:06:051,16:46:09:054,right,16:46:09:404,,2013_Jan_03_1638,59.9158387075,MP-Perception Experiment,xx24w24,
59,training(17).webm,True,right,0,vcgpdm_dyn(20)-lvm(5)_final(8).webm,0,58,58,0,,,,,,,,16:46:10:086,16:46:10:906,16:46:13:907,right,16:46:14:390,,2013_Jan_03_1638,59.9158387075,MP-Perception Experiment,xx24w24,
60,vcgpdm_dyn(30)-lvm(35)_final(8).webm,True,left,0,training(13).webm,0,59,59,122,,,,,,,,16:46:15:074,16:46:15:892,16:46:18:894,left,16:46:19:228,,2013_Jan_03_1638,59.9158387075,MP-Perception Experiment,xx24w24,
61,vgpdm_dyn(10)-lvm(5)_final(8).webm,False,left,0,training(13).webm,0,60,60,155,,,,,,,,16:46:19:992,16:46:20:729,16:46:23:731,right,16:46:25:333,,2013_Jan_03_1638,59.9158387075,MP-Perception Experiment,xx24w24,
62,vgpdm_dyn(15)-lvm(5)_final(4).webm,False,left,0,training(12).webm,0,61,61,123,,,,,,,,16:46:26:172,16:46:26:836,16:46:29:822,right,16:46:30:289,,2013_Jan_03_1638,59.9158387075,MP-Perception Experiment,xx24w24,
63,training(18).webm,False,right,0,vcgpdm_dyn(25)-lvm(15)_final(0).webm,0,62,62,158,,,,,,,,16:46:31:133,16:46:31:791,16:46:34:793,left,16:46:35:494,,2013_Jan_03_1638,59.9158387075,MP-Perception Experiment,xx24w24,
64,training(6).webm,False,right,0,vcgpdm_dyn(15)-lvm(10)_final(6).webm,0,63,63,105,,,,,,,,16:46:36:338,16:46:36:995,16:46:39:997,right,16:46:41:715,,2013_Jan_03_1638,59.9158387075,MP-Perception Experiment,xx24w24,
65,vgpdm_dyn(30)-lvm(5)_final(0).webm,False,left,0,training(36).webm,0,64,64,99,,,,,,,,16:46:42:395,16:46:43:216,16:46:46:220,right,16:46:46:570,,2013_Jan_03_1638,59.9158387075,MP-Perception Experiment,xx24w24,
66,vgpdm_dyn(35)-lvm(20)_final(2)_out_of_screen.webm,False,left,0,training(23).webm,0,65,65,152,,,,,,,,16:46:47:249,16:46:48:071,16:46:51:074,left,16:46:51:741,,2013_Jan_03_1638,59.9158387075,MP-Perception Experiment,xx24w24,
67,training(16).webm,False,right,0,vcgpdm_dyn(20)-lvm(20)_final(8).webm,0,66,66,150,,,,,,,,16:46:52:569,16:46:53:242,16:46:56:245,left,16:46:57:012,,2013_Jan_03_1638,59.9158387075,MP-Perception Experiment,xx24w24,
68,training(23).webm,False,right,0,vgpdm_dyn(35)-lvm(25)_final(8).webm,0,67,67,100,,,,,,,,16:46:57:689,16:46:58:513,16:47:01:516,right,16:47:02:134,,2013_Jan_03_1638,59.9158387075,MP-Perception Experiment,xx24w24,
69,vcgpdm_dyn(25)-lvm(30)_final(1).webm,True,left,0,training(38).webm,0,68,68,37,,,,,,,,16:47:02:827,16:47:03:650,16:47:06:652,left,16:47:07:203,,2013_Jan_03_1638,59.9158387075,MP-Perception Experiment,xx24w24,
70,vgpdm_dyn(30)-lvm(10)_final(6).webm,True,left,0,training(25).webm,0,69,69,52,,,,,,,,16:47:07:904,16:47:08:704,16:47:11:706,left,16:47:12:223,,2013_Jan_03_1638,59.9158387075,MP-Perception Experiment,xx24w24,
71,training(7).webm,False,right,0,vgpdm_dyn(15)-lvm(30)_final(6).webm,0,70,70,134,,,,,,,,16:47:13:033,16:47:13:725,16:47:16:712,right,16:47:17:429,,2013_Jan_03_1638,59.9158387075,MP-Perception Experiment,xx24w24,
72,training(12).webm,True,right,0,dmp_npsi(45)_final(7).webm,0,71,71,11,,,,,,,,16:47:18:110,16:47:18:931,16:47:21:934,right,16:47:22:518,,2013_Jan_03_1638,59.9158387075,MP-Perception Experiment,xx24w24,
73,training(22).webm,True,right,0,vcgpdm_dyn(20)-lvm(30)_final(8).webm,0,72,72,3,,,,,,,,16:47:23:364,16:47:24:019,16:47:27:022,right,16:47:27:689,,2013_Jan_03_1638,59.9158387075,MP-Perception Experiment,xx24w24,
74,vcgpdm_dyn(30)-lvm(35)_final(3).webm,False,left,0,training(15).webm,0,73,73,60,,,,,,,,16:47:28:361,16:47:29:190,16:47:32:192,right,16:47:32:543,,2013_Jan_03_1638,59.9158387075,MP-Perception Experiment,xx24w24,
75,training(18).webm,True,right,0,vcgpdm_dyn(10)-lvm(35)_final(9).webm,0,74,74,23,,,,,,,,16:47:33:381,16:47:34:044,16:47:37:047,right,16:47:37:431,,2013_Jan_03_1638,59.9158387075,MP-Perception Experiment,xx24w24,
76,vcgpdm_dyn(10)-lvm(25)_final(6).webm,False,left,0,training(3).webm,0,75,75,44,,,,,,,,16:47:38:119,16:47:38:932,16:47:41:935,left,16:47:42:485,,2013_Jan_03_1638,59.9158387075,MP-Perception Experiment,xx24w24,
77,training(16).webm,True,right,0,vcgpdm_dyn(15)-lvm(30)_final(4).webm,0,76,76,20,,,,,,,,16:47:43:165,16:47:43:986,16:47:46:989,left,16:47:47:422,,2013_Jan_03_1638,59.9158387075,MP-Perception Experiment,xx24w24,
78,training(35).webm,True,right,0,vcgpdm_dyn(10)-lvm(5)_final(2).webm,0,77,77,33,,,,,,,,16:47:48:096,16:47:48:923,16:47:51:926,right,16:47:52:341,,2013_Jan_03_1638,59.9158387075,MP-Perception Experiment,xx24w24,
79,vgpdm_dyn(35)-lvm(35)_final(2).webm,False,left,0,training(33).webm,0,78,78,45,,,,,,,,16:47:53:021,16:47:53:842,16:47:56:846,left,16:47:57:163,,2013_Jan_03_1638,59.9158387075,MP-Perception Experiment,xx24w24,
80,training(35).webm,True,right,0,vgpdm_dyn(30)-lvm(30)_final(8).webm,0,79,79,41,,,,,,,,16:47:57:838,16:47:58:664,16:48:01:666,left,16:48:02:050,,2013_Jan_03_1638,59.9158387075,MP-Perception Experiment,xx24w24,
81,training(22).webm,True,right,0,vcgpdm_dyn(30)-lvm(25)_final(7).webm,0,80,80,96,,,,,,,,16:48:02:895,16:48:03:551,16:48:06:539,right,16:48:07:123,,2013_Jan_03_1638,59.9158387075,MP-Perception Experiment,xx24w24,
82,vcgpdm_dyn(15)-lvm(20)_final(4).webm,True,left,0,training(22).webm,0,81,81,34,,,,,,,,16:48:07:792,16:48:08:624,16:48:11:626,left,16:48:12:244,,2013_Jan_03_1638,59.9158387075,MP-Perception Experiment,xx24w24,
83,vcgpdm_dyn(35)-lvm(5)_final(6).webm,False,left,0,training(37).webm,0,82,82,57,,,,,,,,16:48:13:048,16:48:13:746,16:48:16:748,right,16:48:17:365,,2013_Jan_03_1638,59.9158387075,MP-Perception Experiment,xx24w24,
84,training(30).webm,False,right,0,vgpdm_dyn(10)-lvm(10)_final(3).webm,0,83,83,132,,,,,,,,16:48:18:042,16:48:18:866,16:48:21:869,right,16:48:22:419,,2013_Jan_03_1638,59.9158387075,MP-Perception Experiment,xx24w24,
85,training(20).webm,True,right,0,vcgpdm_dyn(10)-lvm(35)_final(2).webm,0,84,84,83,,,,,,,,16:48:23:275,16:48:23:920,16:48:26:923,right,16:48:27:724,,2013_Jan_03_1638,59.9158387075,MP-Perception Experiment,xx24w24,
86,training(48).webm,False,right,0,vcgpdm_dyn(10)-lvm(30)_final(7).webm,0,85,85,72,,,,,,,,16:48:28:400,16:48:29:225,16:48:32:228,right,16:48:32:629,,2013_Jan_03_1638,59.9158387075,MP-Perception Experiment,xx24w24,
87,vcgpdm_dyn(15)-lvm(15)_final(4).webm,True,left,0,training(15).webm,0,86,86,22,,,,,,,,16:48:33:311,16:48:34:130,16:48:37:132,left,16:48:37:599,,2013_Jan_03_1638,59.9158387075,MP-Perception Experiment,xx24w24,
88,training(36).webm,False,right,0,vcgpdm_dyn(25)-lvm(15)_final(0).webm,0,87,87,126,,,,,,,,16:48:38:273,16:48:39:100,16:48:42:103,right,16:48:42:718,,2013_Jan_03_1638,59.9158387075,MP-Perception Experiment,xx24w24,
89,training(5).webm,True,right,0,tmp_numprim(7)_final(4).webm,0,88,88,145,,,,,,,,16:48:43:395,16:48:44:219,16:48:47:223,left,16:48:47:790,,2013_Jan_03_1638,59.9158387075,MP-Perception Experiment,xx24w24,
90,map_cgpdm_final(1).webm,True,left,0,training(17).webm,0,89,89,102,,,,,,,,16:48:48:466,16:48:49:291,16:48:52:294,left,16:48:52:827,,2013_Jan_03_1638,59.9158387075,MP-Perception Experiment,xx24w24,
91,vgpdm_dyn(10)-lvm(15)_final(9).webm,False,left,0,training(1).webm,0,90,90,32,,,,,,,,16:48:53:511,16:48:54:330,16:48:57:316,left,16:48:57:766,,2013_Jan_03_1638,59.9158387075,MP-Perception Experiment,xx24w24,
92,training(23).webm,True,right,0,vcgpdm_dyn(25)-lvm(5)_final(3).webm,0,91,91,24,,,,,,,,16:48:58:446,16:48:59:268,16:49:02:270,right,16:49:02:871,,2013_Jan_03_1638,59.9158387075,MP-Perception Experiment,xx24w24,
93,vcgpdm_dyn(15)-lvm(25)_final(4).webm,True,left,0,training(31).webm,0,92,92,130,,,,,,,,16:49:03:553,16:49:04:389,16:49:07:375,left,16:49:07:926,,2013_Jan_03_1638,59.9158387075,MP-Perception Experiment,xx24w24,
94,vcgpdm_dyn(35)-lvm(30)_final(3).webm,True,left,0,training(41).webm,0,93,93,153,,,,,,,,16:49:08:750,16:49:09:427,16:49:12:429,left,16:49:12:846,,2013_Jan_03_1638,59.9158387075,MP-Perception Experiment,xx24w24,
95,tmp_numprim(10)_final(3).webm,False,left,0,training(28).webm,0,94,94,143,,,,,,,,16:49:13:519,16:49:14:347,16:49:17:350,left,16:49:18:367,,2013_Jan_03_1638,59.9158387075,MP-Perception Experiment,xx24w24,
96,training(20).webm,True,right,0,tmp_numprim(2)_final(7).webm,0,95,95,47,,,,,,,,16:49:19:231,16:49:19:869,16:49:22:872,right,16:49:23:589,,2013_Jan_03_1638,59.9158387075,MP-Perception Experiment,xx24w24,
97,vgpdm_dyn(15)-lvm(35)_final(2).webm,True,left,0,training(8).webm,0,96,96,48,,,,,,,,16:49:24:313,16:49:25:090,16:49:28:093,right,16:49:29:044,,2013_Jan_03_1638,59.9158387075,MP-Perception Experiment,xx24w24,
98,vcgpdm_dyn(5)-lvm(30)_final(4)_bad.webm,True,left,0,training(38).webm,0,97,97,17,,,,,,,,16:49:29:722,16:49:30:545,16:49:33:546,left,16:49:34:296,,2013_Jan_03_1638,59.9158387075,MP-Perception Experiment,xx24w24,
99,training(9).webm,True,right,0,tmp_numprim(7)_final(0).webm,0,98,98,146,,,,,,,,16:49:34:972,16:49:35:797,16:49:38:800,left,16:49:40:335,,2013_Jan_03_1638,59.9158387075,MP-Perception Experiment,xx24w24,
100,dmp_npsi(25)_final(3).webm,False,left,0,training(26).webm,0,99,99,136,,,,,,,,16:49:41:015,16:49:41:837,16:49:44:839,left,16:49:49:078,,2013_Jan_03_1638,59.9158387075,MP-Perception Experiment,xx24w24,
101,vcgpdm_dyn(35)-lvm(30)_final(2).webm,False,left,0,training(37).webm,0,100,100,80,,,,,,,,16:49:49:803,16:49:50:579,16:49:53:581,left,16:49:54:065,,2013_Jan_03_1638,59.9158387075,MP-Perception Experiment,xx24w24,
102,training(38).webm,True,right,0,vcgpdm_dyn(20)-lvm(30)_final(7).webm,0,101,101,85,,,,,,,,16:49:54:919,16:49:55:566,16:49:58:570,right,16:50:00:805,,2013_Jan_03_1638,59.9158387075,MP-Perception Experiment,xx24w24,
103,training(4).webm,False,right,0,dmp_npsi(40)_final(8).webm,0,102,102,109,,,,,,,,16:50:01:490,16:50:02:306,16:50:05:308,right,16:50:06:226,,2013_Jan_03_1638,59.9158387075,MP-Perception Experiment,xx24w24,
104,training(11).webm,True,right,0,vgpdm_dyn(15)-lvm(15)_final(1).webm,0,103,103,141,,,,,,,,16:50:06:901,16:50:07:727,16:50:10:729,right,16:50:11:196,,2013_Jan_03_1638,59.9158387075,MP-Perception Experiment,xx24w24,
105,vcgpdm_dyn(25)-lvm(10)_final(2).webm,True,left,0,training(26).webm,0,104,104,76,,,,,,,,16:50:11:873,16:50:12:697,16:50:15:701,left,16:50:16:852,,2013_Jan_03_1638,59.9158387075,MP-Perception Experiment,xx24w24,
106,training(3).webm,False,right,0,vcgpdm_dyn(5)-lvm(20)_final(3).webm,0,105,105,15,,,,,,,,16:50:17:532,16:50:18:353,16:50:21:372,right,16:50:21:839,,2013_Jan_03_1638,59.9158387075,MP-Perception Experiment,xx24w24,
107,vcgpdm_dyn(35)-lvm(20)_final(3).webm,False,left,0,training(9).webm,0,106,106,71,,,,,,,,16:50:22:553,16:50:23:355,16:50:26:358,left,16:50:26:758,,2013_Jan_03_1638,59.9158387075,MP-Perception Experiment,xx24w24,
108,vgpdm_dyn(20)-lvm(20)_final(0).webm,True,left,0,training(24).webm,0,107,107,58,,,,,,,,16:50:27:427,16:50:28:259,16:50:31:262,right,16:50:31:645,,2013_Jan_03_1638,59.9158387075,MP-Perception Experiment,xx24w24,
109,training(35).webm,False,right,0,vcgpdm_dyn(30)-lvm(25)_final(9).webm,0,108,108,91,,,,,,,,16:50:32:325,16:50:33:148,16:50:36:135,left,16:50:36:686,,2013_Jan_03_1638,59.9158387075,MP-Perception Experiment,xx24w24,
110,training(35).webm,False,right,0,map_gpdm_final(8).webm,0,109,109,40,,,,,,,,16:50:37:364,16:50:38:187,16:50:41:189,right,16:50:41:790,,2013_Jan_03_1638,59.9158387075,MP-Perception Experiment,xx24w24,
111,dmp_npsi(30)_final(1).webm,False,left,0,training(16).webm,0,110,110,135,,,,,,,,16:50:42:464,16:50:43:291,16:50:46:293,left,16:50:47:127,,2013_Jan_03_1638,59.9158387075,MP-Perception Experiment,xx24w24,
112,vcgpdm_dyn(25)-lvm(20)_final(7).webm,False,left,0,training(4).webm,0,111,111,86,,,,,,,,16:50:47:803,16:50:48:628,16:50:51:632,right,16:50:54:751,,2013_Jan_03_1638,59.9158387075,MP-Perception Experiment,xx24w24,
113,training(1).webm,False,right,0,vgpdm_dyn(5)-lvm(20)_final(8).webm,0,112,112,84,,,,,,,,16:50:55:557,16:50:56:252,16:50:59:272,right,16:50:59:388,,2013_Jan_03_1638,59.9158387075,MP-Perception Experiment,xx24w24,
114,vgpdm_dyn(20)-lvm(30)_final(5).webm,False,left,0,training(28).webm,0,113,113,119,,,,,,,,16:51:00:232,16:51:00:889,16:51:03:892,right,16:51:04:392,,2013_Jan_03_1638,59.9158387075,MP-Perception Experiment,xx24w24,
115,training(6).webm,False,right,0,vgpdm_dyn(20)-lvm(20)_final(4).webm,0,114,114,112,,,,,,,,16:51:05:237,16:51:05:893,16:51:08:897,right,16:51:09:481,,2013_Jan_03_1638,59.9158387075,MP-Perception Experiment,xx24w24,
116,training(1).webm,True,right,0,vgpdm_dyn(30)-lvm(15)_final(2).webm,0,115,115,19,,,,,,,,16:51:10:297,16:51:10:982,16:51:13:983,right,16:51:14:416,,2013_Jan_03_1638,59.9158387075,MP-Perception Experiment,xx24w24,
117,training(13).webm,True,right,0,dmp_npsi(30)_final(9).webm,0,116,116,113,,,,,,,,16:51:15:090,16:51:15:917,16:51:18:920,right,16:51:22:790,,2013_Jan_03_1638,59.9158387075,MP-Perception Experiment,xx24w24,
118,training(15).webm,False,right,0,vcgpdm_dyn(30)-lvm(15)_final(0).webm,0,117,117,147,,,,,,,,16:51:23:486,16:51:24:292,16:51:27:279,right,16:51:27:613,,2013_Jan_03_1638,59.9158387075,MP-Perception Experiment,xx24w24,
119,dmp_npsi(15)_final(2).webm,False,left,0,training(5).webm,0,118,118,106,,,,,,,,16:51:28:285,16:51:29:114,16:51:32:117,left,16:51:32:534,,2013_Jan_03_1638,59.9158387075,MP-Perception Experiment,xx24w24,
120,vcgpdm_dyn(15)-lvm(15)_final(5).webm,True,left,0,training(4).webm,0,119,119,12,,,,,,,,16:51:33:261,16:51:34:035,16:51:37:037,right,16:51:37:605,,2013_Jan_03_1638,59.9158387075,MP-Perception Experiment,xx24w24,
121,training(20).webm,False,right,0,map_cgpdm_final(6).webm,0,120,120,116,,,,,,,,16:51:38:286,16:51:39:106,16:51:42:109,right,16:51:42:610,,2013_Jan_03_1638,59.9158387075,MP-Perception Experiment,xx24w24,
122,training(3).webm,True,right,0,vgpdm_dyn(30)-lvm(25)_final(5).webm,0,121,121,65,,,,,,,,16:51:43:450,16:51:44:111,16:51:47:113,right,16:51:47:463,,2013_Jan_03_1638,59.9158387075,MP-Perception Experiment,xx24w24,
123,tmp_numprim(3)_final(7).webm,True,left,0,training(1).webm,0,122,122,89,,,,,,,,16:51:48:145,16:51:48:965,16:51:51:967,left,16:51:52:251,,2013_Jan_03_1638,59.9158387075,MP-Perception Experiment,xx24w24,
124,vgpdm_dyn(15)-lvm(25)_final(4).webm,False,left,0,training(48).webm,0,123,123,26,,,,,,,,16:51:53:063,16:51:53:752,16:51:56:754,left,16:51:57:388,,2013_Jan_03_1638,59.9158387075,MP-Perception Experiment,xx24w24,
125,training(13).webm,False,right,0,vcgpdm_dyn(20)-lvm(35)_final(4).webm,0,124,124,110,,,,,,,,16:51:58:068,16:51:58:889,16:52:01:893,left,16:52:02:542,,2013_Jan_03_1638,59.9158387075,MP-Perception Experiment,xx24w24,
126,training(36).webm,False,right,0,map_cgpdm_final(8).webm,0,125,125,75,,,,,,,,16:52:03:383,16:52:04:043,16:52:07:045,right,16:52:07:996,,2013_Jan_03_1638,59.9158387075,MP-Perception Experiment,xx24w24,
127,vcgpdm_dyn(20)-lvm(15)_final(9).webm,True,left,0,training(1).webm,0,126,126,117,,,,,,,,16:52:08:719,16:52:09:497,16:52:12:500,left,16:52:13:150,,2013_Jan_03_1638,59.9158387075,MP-Perception Experiment,xx24w24,
128,training(35).webm,True,right,0,vgpdm_dyn(35)-lvm(10)_final(5).webm,0,127,127,131,,,,,,,,16:52:14:006,16:52:14:653,16:52:17:640,right,16:52:18:107,,2013_Jan_03_1638,59.9158387075,MP-Perception Experiment,xx24w24,
129,vcgpdm_dyn(20)-lvm(5)_final(3).webm,False,left,0,training(0).webm,0,128,128,35,,,,,,,,16:52:18:885,16:52:19:608,16:52:22:627,right,16:52:23:328,,2013_Jan_03_1638,59.9158387075,MP-Perception Experiment,xx24w24,
130,vgpdm_dyn(20)-lvm(35)_final(2).webm,True,left,0,training(9).webm,0,129,129,5,,,,,,,,16:52:23:997,16:52:24:829,16:52:27:831,right,16:52:28:232,,2013_Jan_03_1638,59.9158387075,MP-Perception Experiment,xx24w24,
131,vcgpdm_dyn(25)-lvm(15)_final(4).webm,True,left,0,training(40).webm,0,130,130,38,,,,,,,,16:52:28:937,16:52:29:733,16:52:32:752,left,16:52:33:986,,2013_Jan_03_1638,59.9158387075,MP-Perception Experiment,xx24w24,
132,training(20).webm,True,right,0,vcgpdm_dyn(35)-lvm(25)_final(2).webm,0,131,131,64,,,,,,,,16:52:34:662,16:52:35:488,16:52:38:491,right,16:52:38:891,,2013_Jan_03_1638,59.9158387075,MP-Perception Experiment,xx24w24,
133,training(7).webm,False,right,0,vgpdm_dyn(10)-lvm(5)_final(0).webm,0,132,132,138,,,,,,,,16:52:39:565,16:52:40:392,16:52:43:395,right,16:52:47:882,,2013_Jan_03_1638,59.9158387075,MP-Perception Experiment,xx24w24,
134,training(6).webm,True,right,0,tmp_numprim(3)_final(1).webm,0,133,133,95,,,,,,,,16:52:48:685,16:52:49:383,16:52:52:385,right,16:52:53:002,,2013_Jan_03_1638,59.9158387075,MP-Perception Experiment,xx24w24,
135,vgpdm_dyn(25)-lvm(20)_final(2).webm,False,left,0,training(10).webm,0,134,134,42,,,,,,,,16:52:53:847,16:52:54:503,16:52:57:506,right,16:52:59:357,,2013_Jan_03_1638,59.9158387075,MP-Perception Experiment,xx24w24,
136,training(38).webm,False,right,0,vgpdm_dyn(30)-lvm(25)_final(2).webm,0,135,135,46,,,,,,,,16:53:00:200,16:53:00:858,16:53:03:861,left,16:53:04:962,,2013_Jan_03_1638,59.9158387075,MP-Perception Experiment,xx24w24,
137,vgpdm_dyn(20)-lvm(25)_final(2).webm,False,left,0,training(16).webm,0,136,136,149,,,,,,,,16:53:05:683,16:53:06:463,16:53:09:451,left,16:53:09:918,,2013_Jan_03_1638,59.9158387075,MP-Perception Experiment,xx24w24,
138,vgpdm_dyn(10)-lvm(15)_final(1).webm,False,left,0,training(7).webm,0,137,137,13,,,,,,,,16:53:10:598,16:53:11:419,16:53:14:422,left,16:53:14:822,,2013_Jan_03_1638,59.9158387075,MP-Perception Experiment,xx24w24,
139,vcgpdm_dyn(35)-lvm(5)_final(0).webm,True,left,0,training(40).webm,0,138,138,6,,,,,,,,16:53:15:552,16:53:16:323,16:53:19:326,right,16:53:21:061,,2013_Jan_03_1638,59.9158387075,MP-Perception Experiment,xx24w24,
140,vgpdm_dyn(20)-lvm(20)_final(2).webm,True,left,0,training(0).webm,0,139,139,31,,,,,,,,16:53:21:742,16:53:22:562,16:53:25:564,left,16:53:28:468,,2013_Jan_03_1638,59.9158387075,MP-Perception Experiment,xx24w24,
141,map_gpdm_final(0).webm,True,left,0,training(19).webm,0,140,140,9,,,,,,,,16:53:29:215,16:53:29:969,16:53:32:971,left,16:53:33:989,,2013_Jan_03_1638,59.9158387075,MP-Perception Experiment,xx24w24,
142,vcgpdm_dyn(30)-lvm(25)_final(0).webm,True,left,0,training(10).webm,0,141,141,16,,,,,,,,16:53:34:727,16:53:35:490,16:53:38:493,left,16:53:38:926,,2013_Jan_03_1638,59.9158387075,MP-Perception Experiment,xx24w24,
143,vgpdm_dyn(25)-lvm(35)_final(0).webm,True,left,0,training(31).webm,0,142,142,73,,,,,,,,16:53:39:604,16:53:40:427,16:53:43:428,right,16:53:44:280,,2013_Jan_03_1638,59.9158387075,MP-Perception Experiment,xx24w24,
144,training(0).webm,True,right,0,vgpdm_dyn(5)-lvm(35)_final(3)_bad.webm,0,143,143,90,,,,,,,,16:53:45:130,16:53:45:781,16:53:48:783,right,16:53:49:234,,2013_Jan_03_1638,59.9158387075,MP-Perception Experiment,xx24w24,
145,training(40).webm,False,right,0,tmp_numprim(9)_final(7).webm,0,144,144,4,,,,,,,,16:53:49:912,16:53:50:735,16:53:53:737,left,16:53:54:705,,2013_Jan_03_1638,59.9158387075,MP-Perception Experiment,xx24w24,
146,vgpdm_dyn(25)-lvm(20)_final(2).webm,False,left,0,training(2).webm,0,145,145,8,,,,,,,,16:53:55:378,16:53:56:206,16:53:59:193,right,16:54:00:077,,2013_Jan_03_1638,59.9158387075,MP-Perception Experiment,xx24w24,
147,vgpdm_dyn(30)-lvm(15)_final(2).webm,False,left,0,training(40).webm,0,146,146,157,,,,,,,,16:54:00:749,16:54:01:580,16:54:04:582,right,16:54:05:266,,2013_Jan_03_1638,59.9158387075,MP-Perception Experiment,xx24w24,
148,training(11).webm,False,right,0,vgpdm_dyn(35)-lvm(5)_final(1).webm,0,147,147,139,,,,,,,,16:54:06:075,16:54:06:767,16:54:09:770,right,16:54:10:253,,2013_Jan_03_1638,59.9158387075,MP-Perception Experiment,xx24w24,
149,training(24).webm,False,right,0,tmp_numprim(6)_final(7).webm,0,148,148,104,,,,,,,,16:54:10:922,16:54:11:754,16:54:14:757,right,16:54:15:791,,2013_Jan_03_1638,59.9158387075,MP-Perception Experiment,xx24w24,
150,training(33).webm,True,right,0,vcgpdm_dyn(25)-lvm(35)_final(6).webm,0,149,149,103,,,,,,,,16:54:16:469,16:54:17:292,16:54:20:296,right,16:54:28:602,,2013_Jan_03_1638,59.9158387075,MP-Perception Experiment,xx24w24,
151,training(48).webm,True,right,0,vcgpdm_dyn(25)-lvm(25)_final(1).webm,0,150,150,101,,,,,,,,16:54:29:307,16:54:30:104,16:54:33:104,right,16:54:33:455,,2013_Jan_03_1638,59.9158387075,MP-Perception Experiment,xx24w24,
152,training(23).webm,True,right,0,vgpdm_dyn(25)-lvm(30)_final(9).webm,0,151,151,154,,,,,,,,16:54:34:134,16:54:34:956,16:54:37:959,right,16:54:38:443,,2013_Jan_03_1638,59.9158387075,MP-Perception Experiment,xx24w24,
153,vcgpdm_dyn(30)-lvm(25)_final(2).webm,False,left,0,training(27).webm,0,152,152,125,,,,,,,,16:54:39:123,16:54:39:944,16:54:42:947,left,16:54:43:280,,2013_Jan_03_1638,59.9158387075,MP-Perception Experiment,xx24w24,
154,vcgpdm_dyn(15)-lvm(30)_final(6).webm,True,left,0,training(13).webm,0,153,153,114,,,,,,,,16:54:43:956,16:54:44:783,16:54:47:769,left,16:54:48:470,,2013_Jan_03_1638,59.9158387075,MP-Perception Experiment,xx24w24,
155,tmp_numprim(10)_final(3).webm,False,left,0,training(13).webm,0,154,154,97,,,,,,,,16:54:49:144,16:54:49:987,16:54:52:973,left,16:54:54:442,,2013_Jan_03_1638,59.9158387075,MP-Perception Experiment,xx24w24,
156,training(21).webm,True,right,0,vcgpdm_dyn(30)-lvm(10)_final(0).webm,0,155,155,128,,,,,,,,16:54:55:122,16:54:55:943,16:54:58:946,right,16:55:02:182,,2013_Jan_03_1638,59.9158387075,MP-Perception Experiment,xx24w24,
157,vcgpdm_dyn(30)-lvm(5)_final(9).webm,False,left,0,training(19).webm,0,156,156,70,,,,,,,,16:55:02:919,16:55:03:683,16:55:06:685,left,16:55:11:022,,2013_Jan_03_1638,59.9158387075,MP-Perception Experiment,xx24w24,
158,vcgpdm_dyn(15)-lvm(5)_final(8).webm,False,left,0,training(22).webm,0,157,157,108,,,,,,,,16:55:11:702,16:55:12:524,16:55:15:527,right,16:55:15:960,,2013_Jan_03_1638,59.9158387075,MP-Perception Experiment,xx24w24,
159,training(19).webm,False,right,0,vcgpdm_dyn(15)-lvm(35)_final(4).webm,0,158,158,25,,,,,,,,16:55:16:637,16:55:17:462,16:55:20:464,right,16:55:21:999,,2013_Jan_03_1638,59.9158387075,MP-Perception Experiment,xx24w24,
160,training(4).webm,True,right,1,vcgpdm_dyn(20)-lvm(10)_final(5).webm,0,0,0,51,,,,,,,,16:57:26:162,16:57:26:806,16:57:29:792,right,16:57:30:259,,2013_Jan_03_1638,59.9158387075,MP-Perception Experiment,xx24w24,
161,training(18).webm,False,right,1,tmp_numprim(8)_final(9).webm,0,1,1,127,,,,,,,,16:57:30:938,16:57:31:761,16:57:34:764,right,16:57:37:983,,2013_Jan_03_1638,59.9158387075,MP-Perception Experiment,xx24w24,
162,training(39).webm,False,right,1,tmp_numprim(8)_final(7).webm,0,2,2,36,,,,,,,,16:57:38:663,16:57:39:484,16:57:42:487,right,16:57:42:937,,2013_Jan_03_1638,59.9158387075,MP-Perception Experiment,xx24w24,
163,training(31).webm,True,right,1,dmp_npsi(45)_final(2).webm,0,3,3,18,,,,,,,,16:57:43:607,16:57:44:438,16:57:47:441,right,16:57:47:874,,2013_Jan_03_1638,59.9158387075,MP-Perception Experiment,xx24w24,
164,vgpdm_dyn(20)-lvm(30)_final(1).webm,False,left,1,training(22).webm,0,4,4,101,,,,,,,,16:57:48:551,16:57:49:376,16:57:52:379,right,16:57:53:245,,2013_Jan_03_1638,59.9158387075,MP-Perception Experiment,xx24w24,
165,training(10).webm,False,right,1,tmp_numprim(7)_final(1).webm,0,5,5,119,,,,,,,,16:57:54:062,16:57:54:746,16:57:57:748,right,16:57:58:215,,2013_Jan_03_1638,59.9158387075,MP-Perception Experiment,xx24w24,
166,vgpdm_dyn(15)-lvm(30)_final(5).webm,True,left,1,training(2).webm,0,6,6,3,,,,,,,,16:57:58:900,16:57:59:716,16:58:02:719,left,16:58:03:369,,2013_Jan_03_1638,59.9158387075,MP-Perception Experiment,xx24w24,
167,vgpdm_dyn(10)-lvm(30)_final(7).webm,True,left,1,training(12).webm,0,7,7,92,,,,,,,,16:58:04:043,16:58:04:872,16:58:07:859,left,16:58:08:343,,2013_Jan_03_1638,59.9158387075,MP-Perception Experiment,xx24w24,
168,training(34).webm,False,right,1,vcgpdm_dyn(15)-lvm(20)_final(6).webm,0,8,8,5,,,,,,,,16:58:09:019,16:58:09:844,16:58:12:847,left,16:58:13:564,,2013_Jan_03_1638,59.9158387075,MP-Perception Experiment,xx24w24,
169,training(16).webm,True,right,1,vcgpdm_dyn(30)-lvm(20)_final(8).webm,0,9,9,63,,,,,,,,16:58:14:242,16:58:15:065,16:58:18:067,right,16:58:18:818,,2013_Jan_03_1638,59.9158387075,MP-Perception Experiment,xx24w24,
170,training(30).webm,True,right,1,vgpdm_dyn(30)-lvm(5)_final(0).webm,0,10,10,38,,,,,,,,16:58:19:488,16:58:20:319,16:58:23:322,right,16:58:23:739,,2013_Jan_03_1638,59.9158387075,MP-Perception Experiment,xx24w24,
171,training(15).webm,True,right,1,dmp_npsi(25)_final(7).webm,0,11,11,55,,,,,,,,16:58:24:419,16:58:25:241,16:58:28:243,right,16:58:28:877,,2013_Jan_03_1638,59.9158387075,MP-Perception Experiment,xx24w24,
172,vgpdm_dyn(10)-lvm(20)_final(7).webm,True,left,1,training(48).webm,0,12,12,40,,,,,,,,16:58:29:580,16:58:30:378,16:58:33:381,left,16:58:33:848,,2013_Jan_03_1638,59.9158387075,MP-Perception Experiment,xx24w24,
173,training(48).webm,True,right,1,vcgpdm_dyn(20)-lvm(25)_final(7).webm,0,13,13,67,,,,,,,,16:58:34:531,16:58:35:349,16:58:38:352,right,16:58:38:935,,2013_Jan_03_1638,59.9158387075,MP-Perception Experiment,xx24w24,
174,training(24).webm,False,right,1,vgpdm_dyn(30)-lvm(35)_final(4).webm,0,14,14,28,,,,,,,,16:58:39:613,16:58:40:436,16:58:43:438,right,16:58:44:522,,2013_Jan_03_1638,59.9158387075,MP-Perception Experiment,xx24w24,
175,map_cgpdm_final(7).webm,True,left,1,training(1).webm,0,15,15,97,,,,,,,,16:58:45:196,16:58:46:023,16:58:49:026,left,16:58:50:043,,2013_Jan_03_1638,59.9158387075,MP-Perception Experiment,xx24w24,
176,training(20).webm,True,right,1,vcgpdm_dyn(20)-lvm(5)_final(0).webm,0,16,16,74,,,,,,,,16:58:50:886,16:58:51:545,16:58:54:547,right,16:58:57:601,,2013_Jan_03_1638,59.9158387075,MP-Perception Experiment,xx24w24,
177,vcgpdm_dyn(30)-lvm(30)_final(2).webm,True,left,1,training(8).webm,0,17,17,128,,,,,,,,16:58:58:279,16:58:59:103,16:59:02:106,left,16:59:02:556,,2013_Jan_03_1638,59.9158387075,MP-Perception Experiment,xx24w24,
178,training(4).webm,False,right,1,vgpdm_dyn(5)-lvm(10)_final(9).webm,0,18,18,133,,,,,,,,16:59:03:402,16:59:04:057,16:59:07:060,right,16:59:07:560,,2013_Jan_03_1638,59.9158387075,MP-Perception Experiment,xx24w24,
179,training(27).webm,True,right,1,vcgpdm_dyn(20)-lvm(5)_final(3).webm,0,19,19,82,,,,,,,,16:59:08:232,16:59:09:061,16:59:12:064,right,16:59:12:464,,2013_Jan_03_1638,59.9158387075,MP-Perception Experiment,xx24w24,
180,vcgpdm_dyn(10)-lvm(25)_final(0).webm,True,left,1,training(12).webm,0,20,20,138,,,,,,,,16:59:13:203,16:59:13:965,16:59:16:969,left,16:59:17:286,,2013_Jan_03_1638,59.9158387075,MP-Perception Experiment,xx24w24,
181,training(24).webm,False,right,1,vcgpdm_dyn(35)-lvm(30)_final(8).webm,0,21,21,103,,,,,,,,16:59:17:976,16:59:18:787,16:59:21:790,right,16:59:22:457,,2013_Jan_03_1638,59.9158387075,MP-Perception Experiment,xx24w24,
182,vcgpdm_dyn(5)-lvm(10)_final(6).webm,False,left,1,training(4).webm,0,22,22,54,,,,,,,,16:59:23:232,16:59:23:958,16:59:26:960,left,16:59:27:411,,2013_Jan_03_1638,59.9158387075,MP-Perception Experiment,xx24w24,
183,training(22).webm,True,right,1,tmp_numprim(4)_final(1).webm,0,23,23,110,,,,,,,,16:59:28:088,16:59:28:912,16:59:31:914,right,16:59:32:265,,2013_Jan_03_1638,59.9158387075,MP-Perception Experiment,xx24w24,
184,training(9).webm,False,right,1,vcgpdm_dyn(35)-lvm(10)_final(8).webm,0,24,24,29,,,,,,,,16:59:33:144,16:59:33:782,16:59:36:784,left,16:59:38:385,,2013_Jan_03_1638,59.9158387075,MP-Perception Experiment,xx24w24,
185,vcgpdm_dyn(25)-lvm(35)_final(8).webm,True,left,1,training(15).webm,0,25,25,122,,,,,,,,16:59:39:066,16:59:39:887,16:59:42:889,left,16:59:43:540,,2013_Jan_03_1638,59.9158387075,MP-Perception Experiment,xx24w24,
186,training(39).webm,False,right,1,vgpdm_dyn(35)-lvm(35)_final(2).webm,0,26,26,123,,,,,,,,16:59:44:214,16:59:45:043,16:59:48:045,right,16:59:48:395,,2013_Jan_03_1638,59.9158387075,MP-Perception Experiment,xx24w24,
187,vcgpdm_dyn(15)-lvm(20)_final(1).webm,False,left,1,training(0).webm,0,27,27,116,,,,,,,,16:59:49:077,16:59:49:896,16:59:52:900,right,16:59:53:484,,2013_Jan_03_1638,59.9158387075,MP-Perception Experiment,xx24w24,
188,vcgpdm_dyn(30)-lvm(15)_final(4).webm,False,left,1,training(41).webm,0,28,28,6,,,,,,,,16:59:54:307,16:59:54:985,16:59:57:987,right,16:59:58:521,,2013_Jan_03_1638,59.9158387075,MP-Perception Experiment,xx24w24,
189,training(31).webm,False,right,1,vgpdm_dyn(30)-lvm(5)_final(0).webm,0,29,29,99,,,,,,,,16:59:59:196,17:00:00:022,17:00:03:025,right,17:00:03:408,,2013_Jan_03_1638,59.9158387075,MP-Perception Experiment,xx24w24,
190,vgpdm_dyn(15)-lvm(15)_final(5).webm,True,left,1,training(30).webm,0,30,30,64,,,,,,,,17:00:04:247,17:00:04:910,17:00:07:912,left,17:00:08:412,,2013_Jan_03_1638,59.9158387075,MP-Perception Experiment,xx24w24,
191,vcgpdm_dyn(30)-lvm(5)_final(2).webm,True,left,1,training(13).webm,0,31,31,141,,,,,,,,17:00:09:087,17:00:09:915,17:00:12:917,left,17:00:13:451,,2013_Jan_03_1638,59.9158387075,MP-Perception Experiment,xx24w24,
192,vcgpdm_dyn(5)-lvm(15)_final(5).webm,True,left,1,training(23).webm,0,32,32,61,,,,,,,,17:00:14:297,17:00:14:952,17:00:17:955,left,17:00:19:306,,2013_Jan_03_1638,59.9158387075,MP-Perception Experiment,xx24w24,
193,vgpdm_dyn(35)-lvm(10)_final(7).webm,False,left,1,training(30).webm,0,33,33,117,,,,,,,,17:00:19:987,17:00:20:807,17:00:23:807,right,17:00:25:442,,2013_Jan_03_1638,59.9158387075,MP-Perception Experiment,xx24w24,
194,vgpdm_dyn(35)-lvm(5)_final(1).webm,True,left,1,training(5).webm,0,34,34,0,,,,,,,,17:00:26:115,17:00:26:944,17:00:29:947,left,17:00:30:397,,2013_Jan_03_1638,59.9158387075,MP-Perception Experiment,xx24w24,
195,training(26).webm,True,right,1,map_gpdm_final(6).webm,0,35,35,10,,,,,,,,17:00:31:077,17:00:31:898,17:00:34:901,right,17:00:35:268,,2013_Jan_03_1638,59.9158387075,MP-Perception Experiment,xx24w24,
196,training(6).webm,False,right,1,vgpdm_dyn(5)-lvm(20)_final(0).webm,0,36,36,93,,,,,,,,17:00:35:965,17:00:36:771,17:00:39:756,right,17:00:40:123,,2013_Jan_03_1638,59.9158387075,MP-Perception Experiment,xx24w24,
197,training(16).webm,True,right,1,vgpdm_dyn(35)-lvm(5)_final(4).webm,0,37,37,91,,,,,,,,17:00:40:901,17:00:41:625,17:00:44:628,left,17:00:45:095,,2013_Jan_03_1638,59.9158387075,MP-Perception Experiment,xx24w24,
198,training(35).webm,False,right,1,vgpdm_dyn(30)-lvm(35)_final(4).webm,0,38,38,60,,,,,,,,17:00:45:769,17:00:46:596,17:00:49:599,right,17:00:50:132,,2013_Jan_03_1638,59.9158387075,MP-Perception Experiment,xx24w24,
199,vcgpdm_dyn(25)-lvm(30)_final(5).webm,True,left,1,training(14).webm,0,39,39,132,,,,,,,,17:00:50:812,17:00:51:634,17:00:54:636,left,17:00:55:137,,2013_Jan_03_1638,59.9158387075,MP-Perception Experiment,xx24w24,
200,dmp_npsi(20)_final(9).webm,True,left,1,training(38).webm,0,40,40,125,,,,,,,,17:00:55:981,17:00:56:638,17:00:59:640,left,17:01:00:091,,2013_Jan_03_1638,59.9158387075,MP-Perception Experiment,xx24w24,
201,vcgpdm_dyn(15)-lvm(20)_final(3).webm,False,left,1,training(38).webm,0,41,41,22,,,,,,,,17:01:00:814,17:01:01:593,17:01:04:595,right,17:01:05:179,,2013_Jan_03_1638,59.9158387075,MP-Perception Experiment,xx24w24,
202,vcgpdm_dyn(5)-lvm(35)_final(4)_bad.webm,False,left,1,training(27).webm,0,42,42,84,,,,,,,,17:01:05:943,17:01:06:680,17:01:09:683,left,17:01:10:050,,2013_Jan_03_1638,59.9158387075,MP-Perception Experiment,xx24w24,
203,vcgpdm_dyn(25)-lvm(35)_final(7).webm,True,left,1,training(36).webm,0,43,43,12,,,,,,,,17:01:10:890,17:01:11:551,17:01:14:551,left,17:01:14:902,,2013_Jan_03_1638,59.9158387075,MP-Perception Experiment,xx24w24,
204,tmp_numprim(8)_final(9).webm,True,left,1,training(4).webm,0,44,44,41,,,,,,,,17:01:15:577,17:01:16:403,17:01:19:406,left,17:01:19:757,,2013_Jan_03_1638,59.9158387075,MP-Perception Experiment,xx24w24,
205,training(17).webm,False,right,1,tmp_numprim(2)_final(3).webm,0,45,45,89,,,,,,,,17:01:20:440,17:01:21:258,17:01:24:245,right,17:01:24:662,,2013_Jan_03_1638,59.9158387075,MP-Perception Experiment,xx24w24,
206,vcgpdm_dyn(25)-lvm(15)_final(9).webm,False,left,1,training(41).webm,0,46,46,21,,,,,,,,17:01:25:490,17:01:26:163,17:01:29:166,right,17:01:29:516,,2013_Jan_03_1638,59.9158387075,MP-Perception Experiment,xx24w24,
207,vcgpdm_dyn(20)-lvm(15)_final(1).webm,True,left,1,training(13).webm,0,47,47,100,,,,,,,,17:01:30:194,17:01:31:017,17:01:34:020,left,17:01:34:537,,2013_Jan_03_1638,59.9158387075,MP-Perception Experiment,xx24w24,
208,training(31).webm,True,right,1,vgpdm_dyn(25)-lvm(35)_final(4).webm,0,48,48,48,,,,,,,,17:01:35:215,17:01:36:038,17:01:39:042,right,17:01:39:776,,2013_Jan_03_1638,59.9158387075,MP-Perception Experiment,xx24w24,
209,training(1).webm,True,right,1,vcgpdm_dyn(5)-lvm(10)_final(0).webm,0,49,49,153,,,,,,,,17:01:40:456,17:01:41:277,17:01:44:279,right,17:01:47:065,,2013_Jan_03_1638,59.9158387075,MP-Perception Experiment,xx24w24,
210,tmp_numprim(4)_final(5).webm,False,left,1,training(28).webm,0,50,50,17,,,,,,,,17:01:47:742,17:01:48:566,17:01:51:569,left,17:01:52:035,,2013_Jan_03_1638,59.9158387075,MP-Perception Experiment,xx24w24,
211,vgpdm_dyn(30)-lvm(20)_final(3).webm,False,left,1,training(27).webm,0,51,51,88,,,,,,,,17:01:52:765,17:01:53:537,17:01:56:540,right,17:01:57:007,,2013_Jan_03_1638,59.9158387075,MP-Perception Experiment,xx24w24,
212,training(29).webm,False,right,1,dmp_npsi(50)_final(3).webm,0,52,52,30,,,,,,,,17:01:57:685,17:01:58:508,17:02:01:511,left,17:02:01:961,,2013_Jan_03_1638,59.9158387075,MP-Perception Experiment,xx24w24,
213,training(31).webm,False,right,1,vgpdm_dyn(15)-lvm(5)_final(6).webm,0,53,53,148,,,,,,,,17:02:02:654,17:02:03:477,17:02:06:480,right,17:02:06:847,,2013_Jan_03_1638,59.9158387075,MP-Perception Experiment,xx24w24,
214,vgpdm_dyn(15)-lvm(25)_final(7).webm,False,left,1,training(19).webm,0,54,54,32,,,,,,,,17:02:07:533,17:02:08:348,17:02:11:351,left,17:02:11:718,,2013_Jan_03_1638,59.9158387075,MP-Perception Experiment,xx24w24,
215,vgpdm_dyn(20)-lvm(5)_final(3).webm,True,left,1,training(31).webm,0,55,55,19,,,,,,,,17:02:12:566,17:02:13:219,17:02:16:207,left,17:02:17:391,,2013_Jan_03_1638,59.9158387075,MP-Perception Experiment,xx24w24,
216,training(5).webm,False,right,1,vcgpdm_dyn(15)-lvm(15)_final(6).webm,0,56,56,142,,,,,,,,17:02:18:070,17:02:18:892,17:02:21:895,left,17:02:22:245,,2013_Jan_03_1638,59.9158387075,MP-Perception Experiment,xx24w24,
217,vcgpdm_dyn(25)-lvm(35)_final(8).webm,True,left,1,training(31).webm,0,57,57,59,,,,,,,,17:02:22:924,17:02:23:763,17:02:26:749,left,17:02:27:132,,2013_Jan_03_1638,59.9158387075,MP-Perception Experiment,xx24w24,
218,training(38).webm,True,right,1,vgpdm_dyn(10)-lvm(25)_final(0).webm,0,58,58,34,,,,,,,,17:02:27:814,17:02:28:635,17:02:31:637,right,17:02:32:037,,2013_Jan_03_1638,59.9158387075,MP-Perception Experiment,xx24w24,
219,vcgpdm_dyn(15)-lvm(15)_final(2).webm,True,left,1,training(3).webm,0,59,59,147,,,,,,,,17:02:32:869,17:02:33:539,17:02:36:541,right,17:02:36:875,,2013_Jan_03_1638,59.9158387075,MP-Perception Experiment,xx24w24,
220,vcgpdm_dyn(10)-lvm(35)_final(6).webm,False,left,1,training(29).webm,0,60,60,31,,,,,,,,17:02:37:567,17:02:38:376,17:02:41:378,left,17:02:41:812,,2013_Jan_03_1638,59.9158387075,MP-Perception Experiment,xx24w24,
221,vcgpdm_dyn(10)-lvm(10)_final(0).webm,True,left,1,training(27).webm,0,61,61,150,,,,,,,,17:02:42:584,17:02:43:313,17:02:46:317,left,17:02:47:134,,2013_Jan_03_1638,59.9158387075,MP-Perception Experiment,xx24w24,
222,vcgpdm_dyn(10)-lvm(10)_final(7).webm,True,left,1,training(13).webm,0,62,62,72,,,,,,,,17:02:47:836,17:02:48:635,17:02:51:638,left,17:02:51:988,,2013_Jan_03_1638,59.9158387075,MP-Perception Experiment,xx24w24,
223,training(13).webm,True,right,1,vcgpdm_dyn(30)-lvm(15)_final(1).webm,0,63,63,144,,,,,,,,17:02:52:719,17:02:53:504,17:02:56:506,left,17:02:56:807,,2013_Jan_03_1638,59.9158387075,MP-Perception Experiment,xx24w24,
224,vcgpdm_dyn(35)-lvm(5)_final(6).webm,True,left,1,training(4).webm,0,64,64,8,,,,,,,,17:02:57:503,17:02:58:325,17:03:01:310,left,17:03:01:827,,2013_Jan_03_1638,59.9158387075,MP-Perception Experiment,xx24w24,
225,training(18).webm,False,right,1,vgpdm_dyn(30)-lvm(30)_final(8).webm,0,65,65,107,,,,,,,,17:03:02:507,17:03:03:328,17:03:06:317,right,17:03:06:784,,2013_Jan_03_1638,59.9158387075,MP-Perception Experiment,xx24w24,
226,training(29).webm,True,right,1,vcgpdm_dyn(10)-lvm(10)_final(3).webm,0,66,66,56,,,,,,,,17:03:07:633,17:03:08:285,17:03:11:288,right,17:03:11:655,,2013_Jan_03_1638,59.9158387075,MP-Perception Experiment,xx24w24,
227,training(31).webm,False,right,1,vgpdm_dyn(30)-lvm(30)_final(7).webm,0,67,67,7,,,,,,,,17:03:12:501,17:03:13:156,17:03:16:158,left,17:03:16:525,,2013_Jan_03_1638,59.9158387075,MP-Perception Experiment,xx24w24,
228,training(3).webm,False,right,1,vcgpdm_dyn(10)-lvm(30)_final(5).webm,0,68,68,42,,,,,,,,17:03:17:202,17:03:18:026,17:03:21:030,right,17:03:21:430,,2013_Jan_03_1638,59.9158387075,MP-Perception Experiment,xx24w24,
229,training(25).webm,True,right,1,vcgpdm_dyn(35)-lvm(30)_final(5).webm,0,69,69,137,,,,,,,,17:03:22:283,17:03:22:931,17:03:25:934,right,17:03:26:434,,2013_Jan_03_1638,59.9158387075,MP-Perception Experiment,xx24w24,
230,training(16).webm,False,right,1,vgpdm_dyn(15)-lvm(30)_final(1).webm,0,70,70,4,,,,,,,,17:03:27:283,17:03:27:935,17:03:30:938,right,17:03:31:422,,2013_Jan_03_1638,59.9158387075,MP-Perception Experiment,xx24w24,
231,training(39).webm,False,right,1,vgpdm_dyn(35)-lvm(5)_final(2).webm,0,71,71,104,,,,,,,,17:03:32:271,17:03:32:923,17:03:35:925,right,17:03:36:276,,2013_Jan_03_1638,59.9158387075,MP-Perception Experiment,xx24w24,
232,training(40).webm,False,right,1,vgpdm_dyn(25)-lvm(35)_final(7).webm,0,72,72,146,,,,,,,,17:03:37:123,17:03:37:777,17:03:40:780,left,17:03:41:064,,2013_Jan_03_1638,59.9158387075,MP-Perception Experiment,xx24w24,
233,vgpdm_dyn(10)-lvm(25)_final(2).webm,False,left,1,training(34).webm,0,73,73,52,,,,,,,,17:03:41:913,17:03:42:580,17:03:45:566,right,17:03:45:866,,2013_Jan_03_1638,59.9158387075,MP-Perception Experiment,xx24w24,
234,vgpdm_dyn(30)-lvm(35)_final(7).webm,True,left,1,training(2).webm,0,74,74,102,,,,,,,,17:03:46:602,17:03:47:367,17:03:50:370,right,17:03:50:753,,2013_Jan_03_1638,59.9158387075,MP-Perception Experiment,xx24w24,
235,training(37).webm,False,right,1,vgpdm_dyn(5)-lvm(15)_final(6).webm,0,75,75,158,,,,,,,,17:03:51:434,17:03:52:254,17:03:55:242,right,17:03:55:559,,2013_Jan_03_1638,59.9158387075,MP-Perception Experiment,xx24w24,
236,training(18).webm,True,right,1,vcgpdm_dyn(25)-lvm(30)_final(8).webm,0,76,76,76,,,,,,,,17:03:56:237,17:03:57:061,17:04:00:064,right,17:04:00:414,,2013_Jan_03_1638,59.9158387075,MP-Perception Experiment,xx24w24,
237,vcgpdm_dyn(25)-lvm(5)_final(8).webm,False,left,1,training(22).webm,0,77,77,134,,,,,,,,17:04:01:256,17:04:01:915,17:04:04:918,left,17:04:05:318,,2013_Jan_03_1638,59.9158387075,MP-Perception Experiment,xx24w24,
238,training(16).webm,False,right,1,vcgpdm_dyn(10)-lvm(15)_final(9).webm,0,78,78,113,,,,,,,,17:04:06:143,17:04:06:819,17:04:09:821,right,17:04:10:188,,2013_Jan_03_1638,59.9158387075,MP-Perception Experiment,xx24w24,
239,vgpdm_dyn(25)-lvm(35)_final(3).webm,True,left,1,training(35).webm,0,79,79,124,,,,,,,,17:04:10:931,17:04:11:689,17:04:14:693,left,17:04:15:143,,2013_Jan_03_1638,59.9158387075,MP-Perception Experiment,xx24w24,
240,training(25).webm,False,right,1,vcgpdm_dyn(15)-lvm(25)_final(9).webm,0,80,80,85,,,,,,,,17:04:15:994,17:04:16:644,17:04:19:647,right,17:04:20:164,,2013_Jan_03_1638,59.9158387075,MP-Perception Experiment,xx24w24,
241,vgpdm_dyn(10)-lvm(35)_final(5).webm,True,left,1,training(40).webm,0,81,81,35,,,,,,,,17:04:20:844,17:04:21:665,17:04:24:668,left,17:04:25:151,,2013_Jan_03_1638,59.9158387075,MP-Perception Experiment,xx24w24,
242,training(28).webm,False,right,1,vgpdm_dyn(15)-lvm(10)_final(5)_out_of_screen.webm,0,82,82,39,,,,,,,,17:04:26:000,17:04:26:653,17:04:29:655,right,17:04:30:339,,2013_Jan_03_1638,59.9158387075,MP-Perception Experiment,xx24w24,
243,training(24).webm,False,right,1,vcgpdm_dyn(5)-lvm(15)_final(6).webm,0,83,83,80,,,,,,,,17:04:31:186,17:04:31:841,17:04:34:842,right,17:04:35:209,,2013_Jan_03_1638,59.9158387075,MP-Perception Experiment,xx24w24,
244,training(48).webm,True,right,1,vgpdm_dyn(10)-lvm(5)_final(9).webm,0,84,84,149,,,,,,,,17:04:36:024,17:04:36:710,17:04:39:712,right,17:04:40:146,,2013_Jan_03_1638,59.9158387075,MP-Perception Experiment,xx24w24,
245,vgpdm_dyn(5)-lvm(15)_final(5).webm,True,left,1,training(38).webm,0,85,85,71,,,,,,,,17:04:40:992,17:04:41:647,17:04:44:635,left,17:04:45:052,,2013_Jan_03_1638,59.9158387075,MP-Perception Experiment,xx24w24,
246,training(35).webm,True,right,1,vgpdm_dyn(30)-lvm(5)_final(2).webm,0,86,86,109,,,,,,,,17:04:45:877,17:04:46:553,17:04:49:557,right,17:04:49:940,,2013_Jan_03_1638,59.9158387075,MP-Perception Experiment,xx24w24,
247,tmp_numprim(8)_final(3).webm,True,left,1,training(13).webm,0,87,87,108,,,,,,,,17:04:50:618,17:04:51:441,17:04:54:444,right,17:04:54:894,,2013_Jan_03_1638,59.9158387075,MP-Perception Experiment,xx24w24,
248,training(21).webm,False,right,1,tmp_numprim(2)_final(4).webm,0,88,88,126,,,,,,,,17:04:55:744,17:04:56:395,17:04:59:398,right,17:04:59:965,,2013_Jan_03_1638,59.9158387075,MP-Perception Experiment,xx24w24,
249,vcgpdm_dyn(25)-lvm(20)_final(5).webm,False,left,1,training(41).webm,0,89,89,118,,,,,,,,17:05:00:644,17:05:01:466,17:05:04:469,left,17:05:04:952,,2013_Jan_03_1638,59.9158387075,MP-Perception Experiment,xx24w24,
250,vcgpdm_dyn(30)-lvm(35)_final(9).webm,False,left,1,training(40).webm,0,90,90,154,,,,,,,,17:05:05:630,17:05:06:454,17:05:09:457,left,17:05:09:824,,2013_Jan_03_1638,59.9158387075,MP-Perception Experiment,xx24w24,
251,vcgpdm_dyn(15)-lvm(10)_final(4).webm,True,left,1,training(40).webm,0,91,91,79,,,,,,,,17:05:10:502,17:05:11:325,17:05:14:328,left,17:05:14:711,,2013_Jan_03_1638,59.9158387075,MP-Perception Experiment,xx24w24,
252,vcgpdm_dyn(10)-lvm(5)_final(3).webm,False,left,1,training(36).webm,0,92,92,70,,,,,,,,17:05:15:389,17:05:16:212,17:05:19:215,left,17:05:19:532,,2013_Jan_03_1638,59.9158387075,MP-Perception Experiment,xx24w24,
253,tmp_numprim(7)_final(5).webm,True,left,1,training(39).webm,0,93,93,106,,,,,,,,17:05:20:213,17:05:21:033,17:05:24:034,left,17:05:24:535,,2013_Jan_03_1638,59.9158387075,MP-Perception Experiment,xx24w24,
254,training(19).webm,False,right,1,vgpdm_dyn(20)-lvm(5)_final(0).webm,0,94,94,66,,,,,,,,17:05:25:216,17:05:26:036,17:05:29:039,right,17:05:29:389,,2013_Jan_03_1638,59.9158387075,MP-Perception Experiment,xx24w24,
255,dmp_npsi(20)_final(0).webm,True,left,1,training(2).webm,0,95,95,96,,,,,,,,17:05:30:069,17:05:30:890,17:05:33:892,left,17:05:34:460,,2013_Jan_03_1638,59.9158387075,MP-Perception Experiment,xx24w24,
256,vcgpdm_dyn(30)-lvm(10)_final(5).webm,True,left,1,training(33).webm,0,96,96,37,,,,,,,,17:05:35:139,17:05:35:961,17:05:38:948,left,17:05:39:365,,2013_Jan_03_1638,59.9158387075,MP-Perception Experiment,xx24w24,
257,vgpdm_dyn(20)-lvm(15)_final(7).webm,True,left,1,training(19).webm,0,97,97,115,,,,,,,,17:05:40:045,17:05:40:883,17:05:43:870,left,17:05:44:137,,2013_Jan_03_1638,59.9158387075,MP-Perception Experiment,xx24w24,
258,training(18).webm,False,right,1,tmp_numprim(8)_final(2).webm,0,98,98,151,,,,,,,,17:05:44:986,17:05:45:638,17:05:48:641,right,17:05:49:041,,2013_Jan_03_1638,59.9158387075,MP-Perception Experiment,xx24w24,
259,training(30).webm,True,right,1,vgpdm_dyn(35)-lvm(30)_final(0).webm,0,99,99,26,,,,,,,,17:05:49:867,17:05:50:542,17:05:53:545,right,17:05:54:178,,2013_Jan_03_1638,59.9158387075,MP-Perception Experiment,xx24w24,
260,training(25).webm,False,right,1,vgpdm_dyn(20)-lvm(25)_final(9).webm,0,100,100,157,,,,,,,,17:05:55:011,17:05:55:679,17:05:58:683,right,17:06:01:719,,2013_Jan_03_1638,59.9158387075,MP-Perception Experiment,xx24w24,
261,vgpdm_dyn(15)-lvm(30)_final(5).webm,False,left,1,training(29).webm,0,101,101,95,,,,,,,,17:06:02:399,17:06:03:220,17:06:06:222,left,17:06:06:623,,2013_Jan_03_1638,59.9158387075,MP-Perception Experiment,xx24w24,
262,training(10).webm,False,right,1,vcgpdm_dyn(30)-lvm(20)_final(2).webm,0,102,102,62,,,,,,,,17:06:07:326,17:06:08:124,17:06:11:126,left,17:06:13:610,,2013_Jan_03_1638,59.9158387075,MP-Perception Experiment,xx24w24,
263,vcgpdm_dyn(25)-lvm(35)_final(4).webm,True,left,1,training(38).webm,0,103,103,86,,,,,,,,17:06:14:463,17:06:15:111,17:06:18:115,left,17:06:18:682,,2013_Jan_03_1638,59.9158387075,MP-Perception Experiment,xx24w24,
264,vcgpdm_dyn(30)-lvm(10)_final(3).webm,True,left,1,training(22).webm,0,104,104,81,,,,,,,,17:06:19:358,17:06:20:183,17:06:23:185,right,17:06:23:702,,2013_Jan_03_1638,59.9158387075,MP-Perception Experiment,xx24w24,
265,training(7).webm,False,right,1,vcgpdm_dyn(35)-lvm(20)_final(2).webm,0,105,105,45,,,,,,,,17:06:24:548,17:06:25:205,17:06:28:208,right,17:06:28:591,,2013_Jan_03_1638,59.9158387075,MP-Perception Experiment,xx24w24,
266,training(31).webm,True,right,1,map_cgpdm_final(5).webm,0,106,106,33,,,,,,,,17:06:29:278,17:06:30:092,17:06:33:095,right,17:06:33:613,,2013_Jan_03_1638,59.9158387075,MP-Perception Experiment,xx24w24,
267,vcgpdm_dyn(30)-lvm(10)_final(4).webm,False,left,1,training(15).webm,0,107,107,73,,,,,,,,17:06:34:382,17:06:35:114,17:06:38:117,left,17:06:40:819,,2013_Jan_03_1638,59.9158387075,MP-Perception Experiment,xx24w24,
268,training(13).webm,True,right,1,vgpdm_dyn(10)-lvm(10)_final(0).webm,0,108,108,50,,,,,,,,17:06:41:666,17:06:42:320,17:06:45:323,right,17:06:46:907,,2013_Jan_03_1638,59.9158387075,MP-Perception Experiment,xx24w24,
269,training(14).webm,False,right,1,vgpdm_dyn(20)-lvm(15)_final(2).webm,0,109,109,46,,,,,,,,17:06:47:588,17:06:48:408,17:06:51:412,right,17:06:51:745,,2013_Jan_03_1638,59.9158387075,MP-Perception Experiment,xx24w24,
270,vcgpdm_dyn(35)-lvm(25)_final(0).webm,True,left,1,training(20).webm,0,110,110,140,,,,,,,,17:06:52:493,17:06:53:247,17:06:56:249,left,17:06:56:599,,2013_Jan_03_1638,59.9158387075,MP-Perception Experiment,xx24w24,
271,vcgpdm_dyn(5)-lvm(25)_final(4).webm,True,left,1,training(25).webm,0,111,111,13,,,,,,,,17:06:57:384,17:06:58:117,17:07:01:103,left,17:07:01:503,,2013_Jan_03_1638,59.9158387075,MP-Perception Experiment,xx24w24,
272,vgpdm_dyn(10)-lvm(15)_final(0).webm,False,left,1,training(14).webm,0,112,112,136,,,,,,,,17:07:02:348,17:07:03:019,17:07:06:005,left,17:07:06:339,,2013_Jan_03_1638,59.9158387075,MP-Perception Experiment,xx24w24,
273,training(28).webm,True,right,1,vgpdm_dyn(10)-lvm(10)_final(8).webm,0,113,113,68,,,,,,,,17:07:07:149,17:07:07:840,17:07:10:843,right,17:07:11:377,,2013_Jan_03_1638,59.9158387075,MP-Perception Experiment,xx24w24,
274,vgpdm_dyn(10)-lvm(15)_final(5).webm,False,left,1,training(35).webm,0,114,114,98,,,,,,,,17:07:12:157,17:07:12:878,17:07:15:866,left,17:07:16:350,,2013_Jan_03_1638,59.9158387075,MP-Perception Experiment,xx24w24,
275,training(3).webm,True,right,1,tmp_numprim(4)_final(1).webm,0,115,115,53,,,,,,,,17:07:17:027,17:07:17:851,17:07:20:853,right,17:07:21:187,,2013_Jan_03_1638,59.9158387075,MP-Perception Experiment,xx24w24,
276,vgpdm_dyn(25)-lvm(30)_final(4).webm,True,left,1,training(25).webm,0,116,116,43,,,,,,,,17:07:21:871,17:07:22:688,17:07:25:690,left,17:07:26:142,,2013_Jan_03_1638,59.9158387075,MP-Perception Experiment,xx24w24,
277,training(20).webm,True,right,1,vgpdm_dyn(20)-lvm(5)_final(5).webm,0,117,117,49,,,,,,,,17:07:26:988,17:07:27:643,17:07:30:646,right,17:07:31:079,,2013_Jan_03_1638,59.9158387075,MP-Perception Experiment,xx24w24,
278,tmp_numprim(5)_final(5).webm,False,left,1,training(32).webm,0,118,118,20,,,,,,,,17:07:31:802,17:07:32:580,17:07:35:583,left,17:07:35:983,,2013_Jan_03_1638,59.9158387075,MP-Perception Experiment,xx24w24,
279,training(3).webm,True,right,1,vcgpdm_dyn(20)-lvm(20)_final(6).webm,0,119,119,135,,,,,,,,17:07:36:828,17:07:37:484,17:07:40:487,left,17:07:40:820,,2013_Jan_03_1638,59.9158387075,MP-Perception Experiment,xx24w24,
280,tmp_numprim(6)_final(2).webm,True,left,1,training(24).webm,0,120,120,143,,,,,,,,17:07:41:548,17:07:42:321,17:07:45:325,left,17:07:45:709,,2013_Jan_03_1638,59.9158387075,MP-Perception Experiment,xx24w24,
281,training(12).webm,False,right,1,map_cgpdm_final(3).webm,0,121,121,47,,,,,,,,17:07:46:559,17:07:47:210,17:07:50:212,right,17:07:50:529,,2013_Jan_03_1638,59.9158387075,MP-Perception Experiment,xx24w24,
282,vgpdm_dyn(25)-lvm(15)_final(5)_out_of_screen.webm,False,left,1,training(11).webm,0,122,122,24,,,,,,,,17:07:51:216,17:07:52:030,17:07:55:031,left,17:07:55:581,,2013_Jan_03_1638,59.9158387075,MP-Perception Experiment,xx24w24,
283,training(30).webm,False,right,1,map_gpdm_final(7).webm,0,123,123,94,,,,,,,,17:07:56:450,17:07:57:099,17:08:00:085,right,17:08:00:652,,2013_Jan_03_1638,59.9158387075,MP-Perception Experiment,xx24w24,
284,training(7).webm,True,right,1,vcgpdm_dyn(20)-lvm(30)_final(5).webm,0,124,124,87,,,,,,,,17:08:01:331,17:08:02:154,17:08:05:142,right,17:08:05:509,,2013_Jan_03_1638,59.9158387075,MP-Perception Experiment,xx24w24,
285,training(3).webm,True,right,1,vgpdm_dyn(30)-lvm(20)_final(5).webm,0,125,125,111,,,,,,,,17:08:06:193,17:08:07:010,17:08:10:013,right,17:08:10:079,,2013_Jan_03_1638,59.9158387075,MP-Perception Experiment,xx24w24,
286,vcgpdm_dyn(15)-lvm(5)_final(8).webm,True,left,1,training(24).webm,0,126,126,156,,,,,,,,17:08:10:754,17:08:11:580,17:08:14:583,right,17:08:15:317,,2013_Jan_03_1638,59.9158387075,MP-Perception Experiment,xx24w24,
287,dmp_npsi(50)_final(0).webm,True,left,1,training(26).webm,0,127,127,1,,,,,,,,17:08:16:021,17:08:16:818,17:08:19:821,left,17:08:21:940,,2013_Jan_03_1638,59.9158387075,MP-Perception Experiment,xx24w24,
288,training(11).webm,True,right,1,vgpdm_dyn(25)-lvm(30)_final(8).webm,0,128,128,114,,,,,,,,17:08:22:791,17:08:23:441,17:08:26:444,left,17:08:27:027,,2013_Jan_03_1638,59.9158387075,MP-Perception Experiment,xx24w24,
289,vgpdm_dyn(10)-lvm(10)_final(9).webm,True,left,1,training(6).webm,0,129,129,131,,,,,,,,17:08:27:769,17:08:28:528,17:08:31:531,left,17:08:31:898,,2013_Jan_03_1638,59.9158387075,MP-Perception Experiment,xx24w24,
290,map_cgpdm_final(9).webm,False,left,1,training(25).webm,0,130,130,57,,,,,,,,17:08:32:577,17:08:33:399,17:08:36:403,left,17:08:37:003,,2013_Jan_03_1638,59.9158387075,MP-Perception Experiment,xx24w24,
291,training(25).webm,False,right,1,vcgpdm_dyn(30)-lvm(20)_final(1).webm,0,131,131,129,,,,,,,,17:08:37:830,17:08:38:504,17:08:41:507,left,17:08:42:040,,2013_Jan_03_1638,59.9158387075,MP-Perception Experiment,xx24w24,
292,training(23).webm,True,right,1,vcgpdm_dyn(30)-lvm(20)_final(0).webm,0,132,132,112,,,,,,,,17:08:42:853,17:08:43:556,17:08:46:542,left,17:08:46:926,,2013_Jan_03_1638,59.9158387075,MP-Perception Experiment,xx24w24,
293,training(20).webm,True,right,1,vcgpdm_dyn(35)-lvm(10)_final(0).webm,0,133,133,83,,,,,,,,17:08:47:736,17:08:48:427,17:08:51:430,right,17:08:52:297,,2013_Jan_03_1638,59.9158387075,MP-Perception Experiment,xx24w24,
294,training(29).webm,True,right,1,dmp_npsi(5)_final(3)_bad.webm,0,134,134,155,,,,,,,,17:08:53:134,17:08:53:799,17:08:56:786,right,17:08:57:437,,2013_Jan_03_1638,59.9158387075,MP-Perception Experiment,xx24w24,
295,training(40).webm,False,right,1,vcgpdm_dyn(20)-lvm(10)_final(8).webm,0,135,135,121,,,,,,,,17:08:58:249,17:08:58:938,17:09:01:941,right,17:09:02:308,,2013_Jan_03_1638,59.9158387075,MP-Perception Experiment,xx24w24,
296,training(11).webm,False,right,1,vcgpdm_dyn(5)-lvm(5)_final(4).webm,0,136,136,69,,,,,,,,17:09:02:989,17:09:03:809,17:09:06:812,right,17:09:07:262,,2013_Jan_03_1638,59.9158387075,MP-Perception Experiment,xx24w24,
297,dmp_npsi(25)_final(7).webm,False,left,1,training(23).webm,0,137,137,75,,,,,,,,17:09:07:938,17:09:08:763,17:09:11:767,left,17:09:12:217,,2013_Jan_03_1638,59.9158387075,MP-Perception Experiment,xx24w24,
298,training(26).webm,True,right,1,vgpdm_dyn(20)-lvm(15)_final(2).webm,0,138,138,78,,,,,,,,17:09:12:895,17:09:13:718,17:09:16:720,left,17:09:17:154,,2013_Jan_03_1638,59.9158387075,MP-Perception Experiment,xx24w24,
299,vcgpdm_dyn(20)-lvm(20)_final(6).webm,True,left,1,training(8).webm,0,139,139,9,,,,,,,,17:09:17:833,17:09:18:655,17:09:21:658,right,17:09:22:208,,2013_Jan_03_1638,59.9158387075,MP-Perception Experiment,xx24w24,
300,training(17).webm,False,right,1,vcgpdm_dyn(35)-lvm(10)_final(3).webm,0,140,140,14,,,,,,,,17:09:22:888,17:09:23:709,17:09:26:712,right,17:09:27:162,,2013_Jan_03_1638,59.9158387075,MP-Perception Experiment,xx24w24,
301,vgpdm_dyn(30)-lvm(10)_final(5).webm,True,left,1,training(34).webm,0,141,141,77,,,,,,,,17:09:28:006,17:09:28:664,17:09:31:667,left,17:09:31:984,,2013_Jan_03_1638,59.9158387075,MP-Perception Experiment,xx24w24,
302,vgpdm_dyn(20)-lvm(5)_final(0).webm,False,left,1,training(37).webm,0,142,142,105,,,,,,,,17:09:32:661,17:09:33:500,17:09:36:486,left,17:09:36:853,,2013_Jan_03_1638,59.9158387075,MP-Perception Experiment,xx24w24,
303,vcgpdm_dyn(35)-lvm(30)_final(1).webm,True,left,1,training(11).webm,0,143,143,27,,,,,,,,17:09:37:706,17:09:38:354,17:09:41:356,left,17:09:41:740,,2013_Jan_03_1638,59.9158387075,MP-Perception Experiment,xx24w24,
304,vcgpdm_dyn(20)-lvm(30)_final(8).webm,True,left,1,training(8).webm,0,144,144,65,,,,,,,,17:09:42:418,17:09:43:241,17:09:46:230,left,17:09:46:730,,2013_Jan_03_1638,59.9158387075,MP-Perception Experiment,xx24w24,
305,training(2).webm,False,right,1,dmp_npsi(35)_final(4).webm,0,145,145,152,,,,,,,,17:09:47:404,17:09:48:231,17:09:51:234,right,17:09:51:751,,2013_Jan_03_1638,59.9158387075,MP-Perception Experiment,xx24w24,
306,training(41).webm,False,right,1,vgpdm_dyn(5)-lvm(10)_final(3).webm,0,146,146,58,,,,,,,,17:09:52:433,17:09:53:252,17:09:56:254,right,17:09:56:655,,2013_Jan_03_1638,59.9158387075,MP-Perception Experiment,xx24w24,
307,training(6).webm,True,right,1,vgpdm_dyn(30)-lvm(30)_final(3).webm,0,147,147,15,,,,,,,,17:09:57:479,17:09:58:156,17:10:01:158,right,17:10:01:592,,2013_Jan_03_1638,59.9158387075,MP-Perception Experiment,xx24w24,
308,vcgpdm_dyn(30)-lvm(30)_final(5).webm,True,left,1,training(10).webm,0,148,148,139,,,,,,,,17:10:02:436,17:10:03:093,17:10:06:097,left,17:10:06:497,,2013_Jan_03_1638,59.9158387075,MP-Perception Experiment,xx24w24,
309,training(14).webm,False,right,1,vgpdm_dyn(10)-lvm(30)_final(7).webm,0,149,149,2,,,,,,,,17:10:07:183,17:10:07:998,17:10:11:001,right,17:10:11:401,,2013_Jan_03_1638,59.9158387075,MP-Perception Experiment,xx24w24,
310,vgpdm_dyn(35)-lvm(25)_final(1).webm,False,left,1,training(1).webm,0,150,150,25,,,,,,,,17:10:12:141,17:10:12:902,17:10:15:905,right,17:10:16:355,,2013_Jan_03_1638,59.9158387075,MP-Perception Experiment,xx24w24,
311,training(11).webm,True,right,1,vgpdm_dyn(10)-lvm(25)_final(4).webm,0,151,151,11,,,,,,,,17:10:17:046,17:10:17:856,17:10:20:859,right,17:10:21:577,,2013_Jan_03_1638,59.9158387075,MP-Perception Experiment,xx24w24,
312,dmp_npsi(10)_final(4)_bad.webm,False,left,1,training(18).webm,0,152,152,145,,,,,,,,17:10:22:314,17:10:23:078,17:10:26:079,left,17:10:26:429,,2013_Jan_03_1638,59.9158387075,MP-Perception Experiment,xx24w24,
313,training(31).webm,False,right,1,vgpdm_dyn(10)-lvm(30)_final(1).webm,0,153,153,44,,,,,,,,17:10:27:278,17:10:27:930,17:10:30:933,right,17:10:31:750,,2013_Jan_03_1638,59.9158387075,MP-Perception Experiment,xx24w24,
314,dmp_npsi(25)_final(5).webm,False,left,1,training(18).webm,0,154,154,120,,,,,,,,17:10:32:427,17:10:33:251,17:10:36:254,right,17:10:36:871,,2013_Jan_03_1638,59.9158387075,MP-Perception Experiment,xx24w24,
315,training(36).webm,True,right,1,vgpdm_dyn(25)-lvm(30)_final(2).webm,0,155,155,90,,,,,,,,17:10:37:669,17:10:38:375,17:10:41:360,right,17:10:41:928,,2013_Jan_03_1638,59.9158387075,MP-Perception Experiment,xx24w24,
316,vgpdm_dyn(5)-lvm(25)_final(2)_out_of_screen.webm,True,left,1,training(2).webm,0,156,156,23,,,,,,,,17:10:42:656,17:10:43:429,17:10:46:431,left,17:10:46:832,,2013_Jan_03_1638,59.9158387075,MP-Perception Experiment,xx24w24,
317,dmp_npsi(50)_final(4).webm,True,left,1,training(3).webm,0,157,157,16,,,,,,,,17:10:47:688,17:10:48:333,17:10:51:335,left,17:10:51:752,,2013_Jan_03_1638,59.9158387075,MP-Perception Experiment,xx24w24,
318,training(32).webm,False,right,1,vcgpdm_dyn(30)-lvm(30)_final(5).webm,0,158,158,130,,,,,,,,17:10:52:427,17:10:53:253,17:10:56:257,right,17:10:56:841,,2013_Jan_03_1638,59.9158387075,MP-Perception Experiment,xx24w24,
319,vgpdm_dyn(30)-lvm(10)_final(1).webm,False,left,2,training(8).webm,0,0,0,25,,,,,,,,17:12:48:485,17:12:49:287,17:12:52:273,left,17:12:52:890,,2013_Jan_03_1638,59.9158387075,MP-Perception Experiment,xx24w24,
320,dmp_npsi(30)_final(6).webm,True,left,2,training(12).webm,0,1,1,52,,,,,,,,17:12:53:573,17:12:54:406,17:12:57:392,left,17:12:57:959,,2013_Jan_03_1638,59.9158387075,MP-Perception Experiment,xx24w24,
321,training(16).webm,True,right,2,tmp_numprim(6)_final(1).webm,0,2,2,105,,,,,,,,17:12:58:642,17:12:59:461,17:13:02:464,right,17:13:02:764,,2013_Jan_03_1638,59.9158387075,MP-Perception Experiment,xx24w24,
322,vgpdm_dyn(30)-lvm(20)_final(9).webm,True,left,2,training(34).webm,0,3,3,45,,,,,,,,17:13:03:450,17:13:04:265,17:13:07:253,right,17:13:07:670,,2013_Jan_03_1638,59.9158387075,MP-Perception Experiment,xx24w24,
323,vgpdm_dyn(15)-lvm(15)_final(9).webm,True,left,2,training(6).webm,0,4,4,118,,,,,,,,17:13:08:353,17:13:09:171,17:13:12:174,left,17:13:12:557,,2013_Jan_03_1638,59.9158387075,MP-Perception Experiment,xx24w24,
324,tmp_numprim(3)_final(5).webm,False,left,2,training(33).webm,0,5,5,28,,,,,,,,17:13:13:242,17:13:14:058,17:13:17:062,right,17:13:18:096,,2013_Jan_03_1638,59.9158387075,MP-Perception Experiment,xx24w24,
325,training(41).webm,False,right,2,vcgpdm_dyn(20)-lvm(15)_final(0).webm,0,6,6,42,,,,,,,,17:13:18:775,17:13:19:597,17:13:22:600,right,17:13:23:834,,2013_Jan_03_1638,59.9158387075,MP-Perception Experiment,xx24w24,
326,vcgpdm_dyn(10)-lvm(35)_final(1).webm,True,left,2,training(16).webm,0,7,7,147,,,,,,,,17:13:24:513,17:13:25:335,17:13:28:338,left,17:13:28:905,,2013_Jan_03_1638,59.9158387075,MP-Perception Experiment,xx24w24,
327,training(5).webm,True,right,2,vcgpdm_dyn(35)-lvm(25)_final(1).webm,0,8,8,6,,,,,,,,17:13:29:583,17:13:30:406,17:13:33:409,right,17:13:33:793,,2013_Jan_03_1638,59.9158387075,MP-Perception Experiment,xx24w24,
328,training(34).webm,False,right,2,vgpdm_dyn(20)-lvm(35)_final(8).webm,0,9,9,114,,,,,,,,17:13:34:475,17:13:35:294,17:13:38:297,right,17:13:39:498,,2013_Jan_03_1638,59.9158387075,MP-Perception Experiment,xx24w24,
329,training(2).webm,True,right,2,vcgpdm_dyn(15)-lvm(25)_final(1).webm,0,10,10,130,,,,,,,,17:13:40:176,17:13:40:999,17:13:43:999,right,17:13:47:686,,2013_Jan_03_1638,59.9158387075,MP-Perception Experiment,xx24w24,
330,vcgpdm_dyn(25)-lvm(25)_final(0).webm,False,left,2,training(9).webm,0,11,11,21,,,,,,,,17:13:48:537,17:13:49:187,17:13:52:190,left,17:13:52:741,,2013_Jan_03_1638,59.9158387075,MP-Perception Experiment,xx24w24,
331,vgpdm_dyn(15)-lvm(35)_final(8).webm,False,left,2,training(8).webm,0,12,12,13,,,,,,,,17:13:53:507,17:13:54:242,17:13:57:244,left,17:13:57:695,,2013_Jan_03_1638,59.9158387075,MP-Perception Experiment,xx24w24,
332,training(22).webm,False,right,2,vgpdm_dyn(20)-lvm(30)_final(5).webm,0,13,13,81,,,,,,,,17:13:58:377,17:13:59:198,17:14:02:200,left,17:14:03:418,,2013_Jan_03_1638,59.9158387075,MP-Perception Experiment,xx24w24,
333,training(30).webm,True,right,2,vgpdm_dyn(25)-lvm(20)_final(0).webm,0,14,14,29,,,,,,,,17:14:04:205,17:14:04:919,17:14:07:923,left,17:14:10:791,,2013_Jan_03_1638,59.9158387075,MP-Perception Experiment,xx24w24,
334,training(3).webm,True,right,2,vgpdm_dyn(15)-lvm(5)_final(4).webm,0,15,15,89,,,,,,,,17:14:11:469,17:14:12:293,17:14:15:295,left,17:14:16:596,,2013_Jan_03_1638,59.9158387075,MP-Perception Experiment,xx24w24,
335,vcgpdm_dyn(15)-lvm(35)_final(0).webm,True,left,2,training(10).webm,0,16,16,103,,,,,,,,17:14:17:276,17:14:18:097,17:14:21:100,right,17:14:21:600,,2013_Jan_03_1638,59.9158387075,MP-Perception Experiment,xx24w24,
336,training(26).webm,False,right,2,vgpdm_dyn(30)-lvm(30)_final(4).webm,0,17,17,15,,,,,,,,17:14:22:286,17:14:23:101,17:14:26:105,right,17:14:26:488,,2013_Jan_03_1638,59.9158387075,MP-Perception Experiment,xx24w24,
337,training(18).webm,False,right,2,vcgpdm_dyn(5)-lvm(5)_final(3).webm,0,18,18,37,,,,,,,,17:14:27:338,17:14:27:990,17:14:30:992,left,17:14:31:342,,2013_Jan_03_1638,59.9158387075,MP-Perception Experiment,xx24w24,
338,training(38).webm,True,right,2,tmp_numprim(4)_final(0).webm,0,19,19,31,,,,,,,,17:14:32:211,17:14:32:844,17:14:35:844,right,17:14:36:245,,2013_Jan_03_1638,59.9158387075,MP-Perception Experiment,xx24w24,
339,vcgpdm_dyn(15)-lvm(25)_final(9).webm,False,left,2,training(22).webm,0,20,20,64,,,,,,,,17:14:36:924,17:14:37:746,17:14:40:748,right,17:14:41:182,,2013_Jan_03_1638,59.9158387075,MP-Perception Experiment,xx24w24,
340,vcgpdm_dyn(25)-lvm(30)_final(7).webm,False,left,2,training(12).webm,0,21,21,33,,,,,,,,17:14:41:864,17:14:42:683,17:14:45:687,right,17:14:46:087,,2013_Jan_03_1638,59.9158387075,MP-Perception Experiment,xx24w24,
341,vcgpdm_dyn(20)-lvm(35)_final(9).webm,False,left,2,training(6).webm,0,22,22,72,,,,,,,,17:14:46:770,17:14:47:588,17:14:50:576,right,17:14:51:209,,2013_Jan_03_1638,59.9158387075,MP-Perception Experiment,xx24w24,
342,training(7).webm,False,right,2,vcgpdm_dyn(25)-lvm(10)_final(3).webm,0,23,23,61,,,,,,,,17:14:51:922,17:14:52:711,17:14:55:713,right,17:14:56:097,,2013_Jan_03_1638,59.9158387075,MP-Perception Experiment,xx24w24,
343,training(10).webm,True,right,2,vgpdm_dyn(35)-lvm(30)_final(4).webm,0,24,24,77,,,,,,,,17:14:56:780,17:14:57:598,17:15:00:601,right,17:15:01:752,,2013_Jan_03_1638,59.9158387075,MP-Perception Experiment,xx24w24,
344,vcgpdm_dyn(15)-lvm(20)_final(7).webm,False,left,2,training(11).webm,0,25,25,157,,,,,,,,17:15:02:445,17:15:03:253,17:15:06:256,right,17:15:06:823,,2013_Jan_03_1638,59.9158387075,MP-Perception Experiment,xx24w24,
345,dmp_npsi(40)_final(2).webm,True,left,2,training(48).webm,0,26,26,80,,,,,,,,17:15:07:504,17:15:08:324,17:15:11:327,left,17:15:12:111,,2013_Jan_03_1638,59.9158387075,MP-Perception Experiment,xx24w24,
346,vgpdm_dyn(20)-lvm(15)_final(7).webm,False,left,2,training(27).webm,0,27,27,112,,,,,,,,17:15:12:789,17:15:13:612,17:15:16:614,left,17:15:17:248,,2013_Jan_03_1638,59.9158387075,MP-Perception Experiment,xx24w24,
347,training(20).webm,True,right,2,map_cgpdm_final(0).webm,0,28,28,100,,,,,,,,17:15:17:929,17:15:18:750,17:15:21:753,right,17:15:22:220,,2013_Jan_03_1638,59.9158387075,MP-Perception Experiment,xx24w24,
348,training(19).webm,True,right,2,vgpdm_dyn(20)-lvm(30)_final(5).webm,0,29,29,101,,,,,,,,17:15:22:896,17:15:23:736,17:15:26:722,right,17:15:27:305,,2013_Jan_03_1638,59.9158387075,MP-Perception Experiment,xx24w24,
349,vgpdm_dyn(30)-lvm(10)_final(5).webm,False,left,2,training(38).webm,0,30,30,136,,,,,,,,17:15:27:983,17:15:28:807,17:15:31:809,left,17:15:33:460,,2013_Jan_03_1638,59.9158387075,MP-Perception Experiment,xx24w24,
350,training(48).webm,True,right,2,vgpdm_dyn(15)-lvm(35)_final(3).webm,0,31,31,83,,,,,,,,17:15:34:144,17:15:34:962,17:15:37:950,left,17:15:41:603,,2013_Jan_03_1638,59.9158387075,MP-Perception Experiment,xx24w24,
351,vcgpdm_dyn(20)-lvm(10)_final(3).webm,True,left,2,training(19).webm,0,32,32,11,,,,,,,,17:15:42:281,17:15:43:104,17:15:46:107,left,17:15:46:707,,2013_Jan_03_1638,59.9158387075,MP-Perception Experiment,xx24w24,
352,training(30).webm,True,right,2,vgpdm_dyn(5)-lvm(30)_final(2).webm,0,33,33,128,,,,,,,,17:15:47:387,17:15:48:208,17:15:51:211,right,17:15:53:330,,2013_Jan_03_1638,59.9158387075,MP-Perception Experiment,xx24w24,
353,dmp_npsi(20)_final(5).webm,True,left,2,training(21).webm,0,34,34,92,,,,,,,,17:15:54:043,17:15:54:831,17:15:57:834,left,17:15:59:168,,2013_Jan_03_1638,59.9158387075,MP-Perception Experiment,xx24w24,
354,tmp_numprim(9)_final(2).webm,False,left,2,training(22).webm,0,35,35,141,,,,,,,,17:15:59:849,17:16:00:669,17:16:03:672,right,17:16:06:157,,2013_Jan_03_1638,59.9158387075,MP-Perception Experiment,xx24w24,
355,vcgpdm_dyn(5)-lvm(20)_final(3).webm,True,left,2,training(9).webm,0,36,36,149,,,,,,,,17:16:06:835,17:16:07:658,17:16:10:662,left,17:16:11:146,,2013_Jan_03_1638,59.9158387075,MP-Perception Experiment,xx24w24,
356,training(41).webm,True,right,2,vgpdm_dyn(10)-lvm(5)_final(4).webm,0,37,37,58,,,,,,,,17:16:11:992,17:16:12:647,17:16:15:648,right,17:16:16:899,,2013_Jan_03_1638,59.9158387075,MP-Perception Experiment,xx24w24,
357,training(34).webm,False,right,2,tmp_numprim(10)_final(7).webm,0,38,38,88,,,,,,,,17:16:17:585,17:16:18:400,17:16:21:402,left,17:16:22:103,,2013_Jan_03_1638,59.9158387075,MP-Perception Experiment,xx24w24,
358,vgpdm_dyn(30)-lvm(15)_final(7).webm,False,left,2,training(38).webm,0,39,39,135,,,,,,,,17:16:22:846,17:16:23:604,17:16:26:606,left,17:16:27:157,,2013_Jan_03_1638,59.9158387075,MP-Perception Experiment,xx24w24,
359,vcgpdm_dyn(5)-lvm(5)_final(5).webm,False,left,2,training(12).webm,0,40,40,127,,,,,,,,17:16:27:885,17:16:28:661,17:16:31:647,left,17:16:32:147,,2013_Jan_03_1638,59.9158387075,MP-Perception Experiment,xx24w24,
360,vcgpdm_dyn(5)-lvm(15)_final(5).webm,False,left,2,training(29).webm,0,41,41,59,,,,,,,,17:16:32:827,17:16:33:648,17:16:36:651,left,17:16:37:968,,2013_Jan_03_1638,59.9158387075,MP-Perception Experiment,xx24w24,
361,vcgpdm_dyn(15)-lvm(30)_final(1).webm,False,left,2,training(39).webm,0,42,42,30,,,,,,,,17:16:38:812,17:16:39:469,17:16:42:472,left,17:16:43:790,,2013_Jan_03_1638,59.9158387075,MP-Perception Experiment,xx24w24,
362,dmp_npsi(30)_final(0).webm,True,left,2,training(12).webm,0,43,43,19,,,,,,,,17:16:44:531,17:16:45:292,17:16:48:294,left,17:16:51:280,,2013_Jan_03_1638,59.9158387075,MP-Perception Experiment,xx24w24,
363,training(3).webm,True,right,2,vgpdm_dyn(10)-lvm(15)_final(2).webm,0,44,44,55,,,,,,,,17:16:51:961,17:16:52:781,17:16:55:784,left,17:16:56:568,,2013_Jan_03_1638,59.9158387075,MP-Perception Experiment,xx24w24,
364,vgpdm_dyn(5)-lvm(10)_final(2).webm,False,left,2,training(8).webm,0,45,45,102,,,,,,,,17:16:57:265,17:16:58:069,17:17:01:071,left,17:17:01:922,,2013_Jan_03_1638,59.9158387075,MP-Perception Experiment,xx24w24,
365,vcgpdm_dyn(10)-lvm(20)_final(7).webm,True,left,2,training(41).webm,0,46,46,53,,,,,,,,17:17:02:708,17:17:03:424,17:17:06:425,left,17:17:09:377,,2013_Jan_03_1638,59.9158387075,MP-Perception Experiment,xx24w24,
366,vcgpdm_dyn(35)-lvm(10)_final(4).webm,False,left,2,training(34).webm,0,47,47,111,,,,,,,,17:17:10:059,17:17:10:878,17:17:13:881,right,17:17:14:114,,2013_Jan_03_1638,59.9158387075,MP-Perception Experiment,xx24w24,
367,vcgpdm_dyn(20)-lvm(35)_final(0).webm,True,left,2,training(11).webm,0,48,48,60,,,,,,,,17:17:14:842,17:17:15:617,17:17:18:603,right,17:17:19:220,,2013_Jan_03_1638,59.9158387075,MP-Perception Experiment,xx24w24,
368,vcgpdm_dyn(5)-lvm(20)_final(9).webm,False,left,2,training(38).webm,0,49,49,99,,,,,,,,17:17:19:902,17:17:20:722,17:17:23:725,right,17:17:24:325,,2013_Jan_03_1638,59.9158387075,MP-Perception Experiment,xx24w24,
369,vgpdm_dyn(25)-lvm(5)_final(0).webm,False,left,2,training(31).webm,0,50,50,98,,,,,,,,17:17:25:001,17:17:25:827,17:17:28:829,right,17:17:29:496,,2013_Jan_03_1638,59.9158387075,MP-Perception Experiment,xx24w24,
370,vgpdm_dyn(30)-lvm(35)_final(3).webm,False,left,2,training(10).webm,0,51,51,131,,,,,,,,17:17:30:178,17:17:30:997,17:17:34:000,left,17:17:35:234,,2013_Jan_03_1638,59.9158387075,MP-Perception Experiment,xx24w24,
371,training(1).webm,False,right,2,vcgpdm_dyn(10)-lvm(25)_final(9).webm,0,52,52,158,,,,,,,,17:17:36:085,17:17:36:735,17:17:39:739,right,17:17:40:339,,2013_Jan_03_1638,59.9158387075,MP-Perception Experiment,xx24w24,
372,training(22).webm,False,right,2,vcgpdm_dyn(20)-lvm(25)_final(4).webm,0,53,53,17,,,,,,,,17:17:41:018,17:17:41:840,17:17:44:843,right,17:17:45:277,,2013_Jan_03_1638,59.9158387075,MP-Perception Experiment,xx24w24,
373,training(29).webm,True,right,2,vcgpdm_dyn(20)-lvm(10)_final(3).webm,0,54,54,119,,,,,,,,17:17:45:958,17:17:46:778,17:17:49:780,right,17:17:50:131,,2013_Jan_03_1638,59.9158387075,MP-Perception Experiment,xx24w24,
374,tmp_numprim(4)_final(1).webm,False,left,2,training(38).webm,0,55,55,56,,,,,,,,17:17:50:805,17:17:51:632,17:17:54:632,left,17:17:55:116,,2013_Jan_03_1638,59.9158387075,MP-Perception Experiment,xx24w24,
375,vcgpdm_dyn(30)-lvm(5)_final(2).webm,True,left,2,training(3).webm,0,56,56,139,,,,,,,,17:17:55:795,17:17:56:618,17:17:59:621,left,17:18:00:155,,2013_Jan_03_1638,59.9158387075,MP-Perception Experiment,xx24w24,
376,training(1).webm,False,right,2,vcgpdm_dyn(20)-lvm(5)_final(7).webm,0,57,57,95,,,,,,,,17:18:00:852,17:18:01:656,17:18:04:658,right,17:18:05:125,,2013_Jan_03_1638,59.9158387075,MP-Perception Experiment,xx24w24,
377,training(31).webm,False,right,2,vcgpdm_dyn(35)-lvm(5)_final(1).webm,0,58,58,117,,,,,,,,17:18:05:971,17:18:06:626,17:18:09:614,right,17:18:09:964,,2013_Jan_03_1638,59.9158387075,MP-Perception Experiment,xx24w24,
378,training(23).webm,True,right,2,vgpdm_dyn(15)-lvm(25)_final(2).webm,0,59,59,120,,,,,,,,17:18:10:651,17:18:11:465,17:18:14:469,left,17:18:14:586,,2013_Jan_03_1638,59.9158387075,MP-Perception Experiment,xx24w24,
379,training(10).webm,False,right,2,vgpdm_dyn(35)-lvm(15)_final(2)_out_of_screen.webm,0,60,60,124,,,,,,,,17:18:15:280,17:18:16:087,17:18:19:089,right,17:18:19:473,,2013_Jan_03_1638,59.9158387075,MP-Perception Experiment,xx24w24,
380,vcgpdm_dyn(10)-lvm(30)_final(3).webm,True,left,2,training(20).webm,0,61,61,69,,,,,,,,17:18:20:157,17:18:20:974,17:18:23:977,left,17:18:24:360,,2013_Jan_03_1638,59.9158387075,MP-Perception Experiment,xx24w24,
381,tmp_numprim(2)_final(5).webm,True,left,2,training(15).webm,0,62,62,122,,,,,,,,17:18:25:182,17:18:25:861,17:18:28:864,left,17:18:29:298,,2013_Jan_03_1638,59.9158387075,MP-Perception Experiment,xx24w24,
382,vgpdm_dyn(30)-lvm(25)_final(7).webm,False,left,2,training(28).webm,0,63,63,140,,,,,,,,17:18:29:981,17:18:30:800,17:18:33:802,left,17:18:34:469,,2013_Jan_03_1638,59.9158387075,MP-Perception Experiment,xx24w24,
383,training(10).webm,False,right,2,vcgpdm_dyn(10)-lvm(5)_final(9).webm,0,64,64,10,,,,,,,,17:18:35:150,17:18:35:970,17:18:38:973,right,17:18:39:657,,2013_Jan_03_1638,59.9158387075,MP-Perception Experiment,xx24w24,
384,dmp_npsi(35)_final(0).webm,False,left,2,training(25).webm,0,65,65,146,,,,,,,,17:18:40:338,17:18:41:158,17:18:44:159,left,17:18:44:609,,2013_Jan_03_1638,59.9158387075,MP-Perception Experiment,xx24w24,
385,training(31).webm,False,right,2,vcgpdm_dyn(25)-lvm(10)_final(1).webm,0,66,66,0,,,,,,,,17:18:45:288,17:18:46:110,17:18:49:114,left,17:18:50:148,,2013_Jan_03_1638,59.9158387075,MP-Perception Experiment,xx24w24,
386,training(32).webm,True,right,2,vcgpdm_dyn(25)-lvm(20)_final(0).webm,0,67,67,63,,,,,,,,17:18:50:827,17:18:51:649,17:18:54:652,right,17:18:55:035,,2013_Jan_03_1638,59.9158387075,MP-Perception Experiment,xx24w24,
387,training(9).webm,False,right,2,vgpdm_dyn(20)-lvm(30)_final(2).webm,0,68,68,113,,,,,,,,17:18:55:720,17:18:56:538,17:18:59:541,left,17:18:59:858,,2013_Jan_03_1638,59.9158387075,MP-Perception Experiment,xx24w24,
388,vgpdm_dyn(20)-lvm(20)_final(2).webm,False,left,2,training(12).webm,0,69,69,156,,,,,,,,17:19:00:531,17:19:01:359,17:19:04:361,left,17:19:04:728,,2013_Jan_03_1638,59.9158387075,MP-Perception Experiment,xx24w24,
389,training(10).webm,False,right,2,dmp_npsi(40)_final(9).webm,0,70,70,79,,,,,,,,17:19:05:598,17:19:06:230,17:19:09:233,right,17:19:09:883,,2013_Jan_03_1638,59.9158387075,MP-Perception Experiment,xx24w24,
390,map_gpdm_final(2).webm,False,left,2,training(10).webm,0,71,71,34,,,,,,,,17:19:10:566,17:19:11:384,17:19:14:387,left,17:19:14:821,,2013_Jan_03_1638,59.9158387075,MP-Perception Experiment,xx24w24,
391,training(24).webm,True,right,2,vgpdm_dyn(10)-lvm(35)_final(5).webm,0,72,72,39,,,,,,,,17:19:15:507,17:19:16:322,17:19:19:324,right,17:19:19:691,,2013_Jan_03_1638,59.9158387075,MP-Perception Experiment,xx24w24,
392,training(1).webm,False,right,2,vcgpdm_dyn(30)-lvm(20)_final(7).webm,0,73,73,62,,,,,,,,17:19:20:541,17:19:21:192,17:19:24:196,right,17:19:24:229,,2013_Jan_03_1638,59.9158387075,MP-Perception Experiment,xx24w24,
393,training(30).webm,True,right,2,vcgpdm_dyn(15)-lvm(5)_final(6).webm,0,74,74,24,,,,,,,,17:19:25:080,17:19:25:730,17:19:28:733,right,17:19:29:083,,2013_Jan_03_1638,59.9158387075,MP-Perception Experiment,xx24w24,
394,training(25).webm,False,right,2,vcgpdm_dyn(10)-lvm(20)_final(4).webm,0,75,75,1,,,,,,,,17:19:29:934,17:19:30:601,17:19:33:587,right,17:19:34:853,,2013_Jan_03_1638,59.9158387075,MP-Perception Experiment,xx24w24,
395,tmp_numprim(3)_final(5).webm,True,left,2,training(30).webm,0,76,76,134,,,,,,,,17:19:35:530,17:19:36:354,17:19:39:356,left,17:19:40:909,,2013_Jan_03_1638,59.9158387075,MP-Perception Experiment,xx24w24,
396,training(3).webm,False,right,2,vgpdm_dyn(35)-lvm(30)_final(2).webm,0,77,77,71,,,,,,,,17:19:41:589,17:19:42:410,17:19:45:412,right,17:19:46:480,,2013_Jan_03_1638,59.9158387075,MP-Perception Experiment,xx24w24,
397,vgpdm_dyn(35)-lvm(5)_final(4).webm,True,left,2,training(12).webm,0,78,78,143,,,,,,,,17:19:47:159,17:19:47:983,17:19:50:968,left,17:19:51:469,,2013_Jan_03_1638,59.9158387075,MP-Perception Experiment,xx24w24,
398,training(2).webm,False,right,2,vgpdm_dyn(35)-lvm(35)_final(7).webm,0,79,79,93,,,,,,,,17:19:52:150,17:19:52:987,17:19:55:973,left,17:19:56:656,,2013_Jan_03_1638,59.9158387075,MP-Perception Experiment,xx24w24,
399,dmp_npsi(25)_final(7).webm,False,left,2,training(29).webm,0,80,80,85,,,,,,,,17:19:57:336,17:19:58:158,17:20:01:161,left,17:20:01:528,,2013_Jan_03_1638,59.9158387075,MP-Perception Experiment,xx24w24,
400,vgpdm_dyn(5)-lvm(20)_final(9).webm,False,left,2,training(33).webm,0,81,81,116,,,,,,,,17:20:02:359,17:20:03:029,17:20:06:032,left,17:20:07:433,,2013_Jan_03_1638,59.9158387075,MP-Perception Experiment,xx24w24,
401,map_gpdm_final(3).webm,False,left,2,training(22).webm,0,82,82,18,,,,,,,,17:20:08:140,17:20:08:934,17:20:11:936,left,17:20:12:337,,2013_Jan_03_1638,59.9158387075,MP-Perception Experiment,xx24w24,
402,training(14).webm,False,right,2,vcgpdm_dyn(30)-lvm(15)_final(4).webm,0,83,83,142,,,,,,,,17:20:13:014,17:20:13:838,17:20:16:841,left,17:20:17:542,,2013_Jan_03_1638,59.9158387075,MP-Perception Experiment,xx24w24,
403,training(9).webm,False,right,2,vcgpdm_dyn(25)-lvm(5)_final(9).webm,0,84,84,3,,,,,,,,17:20:18:225,17:20:19:043,17:20:22:046,right,17:20:22:463,,2013_Jan_03_1638,59.9158387075,MP-Perception Experiment,xx24w24,
404,tmp_numprim(10)_final(2).webm,True,left,2,training(40).webm,0,85,85,50,,,,,,,,17:20:23:148,17:20:23:979,17:20:26:964,left,17:20:27:381,,2013_Jan_03_1638,59.9158387075,MP-Perception Experiment,xx24w24,
405,training(2).webm,True,right,2,dmp_npsi(50)_final(5).webm,0,86,86,138,,,,,,,,17:20:28:213,17:20:28:883,17:20:31:885,right,17:20:32:319,,2013_Jan_03_1638,59.9158387075,MP-Perception Experiment,xx24w24,
406,training(30).webm,True,right,2,vgpdm_dyn(35)-lvm(30)_final(3).webm,0,87,87,106,,,,,,,,17:20:33:167,17:20:33:821,17:20:36:808,right,17:20:37:159,,2013_Jan_03_1638,59.9158387075,MP-Perception Experiment,xx24w24,
407,training(16).webm,False,right,2,vcgpdm_dyn(20)-lvm(35)_final(3).webm,0,88,88,104,,,,,,,,17:20:38:009,17:20:38:660,17:20:41:662,right,17:20:42:129,,2013_Jan_03_1638,59.9158387075,MP-Perception Experiment,xx24w24,
408,training(18).webm,False,right,2,vgpdm_dyn(20)-lvm(10)_final(5)_out_of_screen.webm,0,89,89,133,,,,,,,,17:20:42:979,17:20:43:631,17:20:46:633,right,17:20:47:217,,2013_Jan_03_1638,59.9158387075,MP-Perception Experiment,xx24w24,
409,vcgpdm_dyn(20)-lvm(10)_final(1).webm,True,left,2,training(12).webm,0,90,90,87,,,,,,,,17:20:48:000,17:20:48:718,17:20:51:722,right,17:20:52:455,,2013_Jan_03_1638,59.9158387075,MP-Perception Experiment,xx24w24,
410,training(34).webm,True,right,2,map_gpdm_final(1).webm,0,91,91,148,,,,,,,,17:20:53:303,17:20:53:973,17:20:56:959,right,17:20:57:526,,2013_Jan_03_1638,59.9158387075,MP-Perception Experiment,xx24w24,
411,training(24).webm,True,right,2,tmp_numprim(6)_final(2).webm,0,92,92,67,,,,,,,,17:20:58:203,17:20:59:027,17:21:02:030,right,17:21:03:364,,2013_Jan_03_1638,59.9158387075,MP-Perception Experiment,xx24w24,
412,training(4).webm,False,right,2,vcgpdm_dyn(35)-lvm(20)_final(2).webm,0,93,93,73,,,,,,,,17:21:04:043,17:21:04:865,17:21:07:869,right,17:21:08:386,,2013_Jan_03_1638,59.9158387075,MP-Perception Experiment,xx24w24,
413,training(26).webm,False,right,2,vgpdm_dyn(15)-lvm(30)_final(0).webm,0,94,94,132,,,,,,,,17:21:09:245,17:21:09:887,17:21:12:890,right,17:21:13:507,,2013_Jan_03_1638,59.9158387075,MP-Perception Experiment,xx24w24,
414,training(4).webm,True,right,2,dmp_npsi(20)_final(6).webm,0,95,95,46,,,,,,,,17:21:14:370,17:21:15:023,17:21:18:025,right,17:21:18:559,,2013_Jan_03_1638,59.9158387075,MP-Perception Experiment,xx24w24,
415,vgpdm_dyn(35)-lvm(30)_final(0).webm,False,left,2,training(20).webm,0,96,96,82,,,,,,,,17:21:19:231,17:21:20:060,17:21:23:063,right,17:21:23:447,,2013_Jan_03_1638,59.9158387075,MP-Perception Experiment,xx24w24,
416,training(31).webm,True,right,2,vgpdm_dyn(5)-lvm(20)_final(0).webm,0,97,97,35,,,,,,,,17:21:24:120,17:21:24:947,17:21:27:936,right,17:21:29:321,,2013_Jan_03_1638,59.9158387075,MP-Perception Experiment,xx24w24,
417,vcgpdm_dyn(10)-lvm(5)_final(9).webm,True,left,2,training(39).webm,0,98,98,66,,,,,,,,17:21:30:000,17:21:30:822,17:21:33:824,left,17:21:34:708,,2013_Jan_03_1638,59.9158387075,MP-Perception Experiment,xx24w24,
418,training(30).webm,True,right,2,map_cgpdm_final(4).webm,0,99,99,110,,,,,,,,17:21:35:388,17:21:36:209,17:21:39:212,right,17:21:39:762,,2013_Jan_03_1638,59.9158387075,MP-Perception Experiment,xx24w24,
419,training(23).webm,True,right,2,vgpdm_dyn(35)-lvm(30)_final(5).webm,0,100,100,145,,,,,,,,17:21:40:440,17:21:41:263,17:21:44:267,right,17:21:44:617,,2013_Jan_03_1638,59.9158387075,MP-Perception Experiment,xx24w24,
420,training(40).webm,False,right,2,vcgpdm_dyn(30)-lvm(15)_final(8).webm,0,101,101,154,,,,,,,,17:21:45:303,17:21:46:118,17:21:49:121,left,17:21:49:421,,2013_Jan_03_1638,59.9158387075,MP-Perception Experiment,xx24w24,
421,vcgpdm_dyn(25)-lvm(25)_final(6).webm,False,left,2,training(11).webm,0,102,102,70,,,,,,,,17:21:50:106,17:21:50:922,17:21:53:942,left,17:21:54:375,,2013_Jan_03_1638,59.9158387075,MP-Perception Experiment,xx24w24,
422,vcgpdm_dyn(5)-lvm(10)_final(6).webm,True,left,2,training(30).webm,0,103,103,137,,,,,,,,17:21:55:056,17:21:55:876,17:21:58:879,left,17:21:59:396,,2013_Jan_03_1638,59.9158387075,MP-Perception Experiment,xx24w24,
423,map_gpdm_final(4).webm,False,left,2,training(6).webm,0,104,104,126,,,,,,,,17:22:00:082,17:22:00:898,17:22:03:899,left,17:22:04:382,,2013_Jan_03_1638,59.9158387075,MP-Perception Experiment,xx24w24,
424,vgpdm_dyn(10)-lvm(25)_final(5).webm,True,left,2,training(31).webm,0,105,105,144,,,,,,,,17:22:05:119,17:22:05:884,17:22:08:886,left,17:22:09:520,,2013_Jan_03_1638,59.9158387075,MP-Perception Experiment,xx24w24,
425,vcgpdm_dyn(5)-lvm(15)_final(1).webm,False,left,2,training(14).webm,0,106,106,23,,,,,,,,17:22:10:221,17:22:11:021,17:22:14:024,left,17:22:14:440,,2013_Jan_03_1638,59.9158387075,MP-Perception Experiment,xx24w24,
426,dmp_npsi(40)_final(1).webm,False,left,2,training(10).webm,0,107,107,68,,,,,,,,17:22:15:180,17:22:15:943,17:22:18:930,left,17:22:19:347,,2013_Jan_03_1638,59.9158387075,MP-Perception Experiment,xx24w24,
427,training(18).webm,False,right,2,tmp_numprim(5)_final(6).webm,0,108,108,107,,,,,,,,17:22:20:026,17:22:20:848,17:22:23:851,right,17:22:24:235,,2013_Jan_03_1638,59.9158387075,MP-Perception Experiment,xx24w24,
428,vgpdm_dyn(10)-lvm(35)_final(5).webm,False,left,2,training(13).webm,0,109,109,155,,,,,,,,17:22:24:913,17:22:25:736,17:22:28:738,left,17:22:29:339,,2013_Jan_03_1638,59.9158387075,MP-Perception Experiment,xx24w24,
429,vcgpdm_dyn(20)-lvm(25)_final(4).webm,True,left,2,training(32).webm,0,110,110,152,,,,,,,,17:22:30:013,17:22:30:840,17:22:33:842,left,17:22:35:144,,2013_Jan_03_1638,59.9158387075,MP-Perception Experiment,xx24w24,
430,training(31).webm,True,right,2,vcgpdm_dyn(10)-lvm(35)_final(1).webm,0,111,111,86,,,,,,,,17:22:35:823,17:22:36:645,17:22:39:648,right,17:22:40:015,,2013_Jan_03_1638,59.9158387075,MP-Perception Experiment,xx24w24,
431,vgpdm_dyn(10)-lvm(30)_final(6).webm,True,left,2,training(34).webm,0,112,112,129,,,,,,,,17:22:40:699,17:22:41:516,17:22:44:519,left,17:22:44:735,,2013_Jan_03_1638,59.9158387075,MP-Perception Experiment,xx24w24,
432,tmp_numprim(3)_final(9).webm,False,left,2,training(2).webm,0,113,113,109,,,,,,,,17:22:45:460,17:22:46:237,17:22:49:239,left,17:22:49:623,,2013_Jan_03_1638,59.9158387075,MP-Perception Experiment,xx24w24,
433,vgpdm_dyn(35)-lvm(10)_final(3).webm,False,left,2,training(37).webm,0,114,114,48,,,,,,,,17:22:50:301,17:22:51:124,17:22:54:126,left,17:22:54:576,,2013_Jan_03_1638,59.9158387075,MP-Perception Experiment,xx24w24,
434,training(23).webm,True,right,2,vgpdm_dyn(35)-lvm(25)_final(8).webm,0,115,115,108,,,,,,,,17:22:55:254,17:22:56:077,17:22:59:080,right,17:22:59:663,,2013_Jan_03_1638,59.9158387075,MP-Perception Experiment,xx24w24,
435,training(30).webm,True,right,2,vgpdm_dyn(25)-lvm(10)_final(1)_out_of_screen.webm,0,116,116,4,,,,,,,,17:23:00:350,17:23:01:164,17:23:04:167,right,17:23:04:584,,2013_Jan_03_1638,59.9158387075,MP-Perception Experiment,xx24w24,
436,vcgpdm_dyn(35)-lvm(30)_final(1).webm,False,left,2,training(5).webm,0,117,117,90,,,,,,,,17:23:05:262,17:23:06:085,17:23:09:073,left,17:23:09:556,,2013_Jan_03_1638,59.9158387075,MP-Perception Experiment,xx24w24,
437,tmp_numprim(9)_final(9).webm,True,left,2,training(3).webm,0,118,118,38,,,,,,,,17:23:10:234,17:23:11:059,17:23:14:061,right,17:23:14:695,,2013_Jan_03_1638,59.9158387075,MP-Perception Experiment,xx24w24,
438,vcgpdm_dyn(35)-lvm(15)_final(9)_out_of_screen.webm,False,left,2,training(11).webm,0,119,119,8,,,,,,,,17:23:15:565,17:23:16:196,17:23:19:199,left,17:23:19:616,,2013_Jan_03_1638,59.9158387075,MP-Perception Experiment,xx24w24,
439,training(13).webm,False,right,2,vcgpdm_dyn(15)-lvm(35)_final(3).webm,0,120,120,7,,,,,,,,17:23:20:305,17:23:21:117,17:23:24:119,right,17:23:24:503,,2013_Jan_03_1638,59.9158387075,MP-Perception Experiment,xx24w24,
440,training(9).webm,True,right,2,tmp_numprim(5)_final(7).webm,0,121,121,36,,,,,,,,17:23:25:186,17:23:26:004,17:23:29:008,right,17:23:29:391,,2013_Jan_03_1638,59.9158387075,MP-Perception Experiment,xx24w24,
441,training(32).webm,True,right,2,vcgpdm_dyn(20)-lvm(25)_final(9).webm,0,122,122,22,,,,,,,,17:23:30:075,17:23:30:892,17:23:33:895,right,17:23:34:729,,2013_Jan_03_1638,59.9158387075,MP-Perception Experiment,xx24w24,
442,vcgpdm_dyn(30)-lvm(35)_final(7).webm,True,left,2,training(15).webm,0,123,123,54,,,,,,,,17:23:35:415,17:23:36:230,17:23:39:232,right,17:23:40:250,,2013_Jan_03_1638,59.9158387075,MP-Perception Experiment,xx24w24,
443,tmp_numprim(5)_final(1).webm,True,left,2,training(21).webm,0,124,124,84,,,,,,,,17:23:40:931,17:23:41:751,17:23:44:752,left,17:23:45:270,,2013_Jan_03_1638,59.9158387075,MP-Perception Experiment,xx24w24,
444,training(10).webm,False,right,2,vgpdm_dyn(25)-lvm(5)_final(1).webm,0,125,125,44,,,,,,,,17:23:46:122,17:23:46:771,17:23:49:790,left,17:23:50:241,,2013_Jan_03_1638,59.9158387075,MP-Perception Experiment,xx24w24,
445,training(24).webm,False,right,2,dmp_npsi(40)_final(4).webm,0,126,126,32,,,,,,,,17:23:50:927,17:23:51:742,17:23:54:744,right,17:23:55:230,,2013_Jan_03_1638,59.9158387075,MP-Perception Experiment,xx24w24,
446,training(33).webm,True,right,2,vgpdm_dyn(25)-lvm(35)_final(7).webm,0,127,127,96,,,,,,,,17:23:55:926,17:23:56:731,17:23:59:733,left,17:24:00:034,,2013_Jan_03_1638,59.9158387075,MP-Perception Experiment,xx24w24,
447,training(4).webm,True,right,2,vgpdm_dyn(15)-lvm(15)_final(1).webm,0,128,128,123,,,,,,,,17:24:00:707,17:24:01:535,17:24:04:538,right,17:24:05:122,,2013_Jan_03_1638,59.9158387075,MP-Perception Experiment,xx24w24,
448,training(27).webm,True,right,2,vgpdm_dyn(15)-lvm(15)_final(0).webm,0,129,129,115,,,,,,,,17:24:05:802,17:24:06:623,17:24:09:626,right,17:24:10:126,,2013_Jan_03_1638,59.9158387075,MP-Perception Experiment,xx24w24,
449,vcgpdm_dyn(25)-lvm(10)_final(5).webm,True,left,2,training(15).webm,0,130,130,121,,,,,,,,17:24:10:808,17:24:11:627,17:24:14:630,right,17:24:15:180,,2013_Jan_03_1638,59.9158387075,MP-Perception Experiment,xx24w24,
450,vcgpdm_dyn(10)-lvm(15)_final(6).webm,False,left,2,training(3).webm,0,131,131,41,,,,,,,,17:24:16:030,17:24:16:681,17:24:19:684,left,17:24:20:118,,2013_Jan_03_1638,59.9158387075,MP-Perception Experiment,xx24w24,
451,vcgpdm_dyn(25)-lvm(10)_final(7).webm,True,left,2,training(16).webm,0,132,132,49,,,,,,,,17:24:20:805,17:24:21:620,17:24:24:622,right,17:24:25:856,,2013_Jan_03_1638,59.9158387075,MP-Perception Experiment,xx24w24,
452,vgpdm_dyn(5)-lvm(15)_final(3).webm,True,left,2,training(0).webm,0,133,133,75,,,,,,,,17:24:26:685,17:24:27:357,17:24:30:360,left,17:24:31:528,,2013_Jan_03_1638,59.9158387075,MP-Perception Experiment,xx24w24,
453,vcgpdm_dyn(25)-lvm(25)_final(6).webm,True,left,2,training(26).webm,0,134,134,151,,,,,,,,17:24:32:208,17:24:33:029,17:24:36:029,right,17:24:36:630,,2013_Jan_03_1638,59.9158387075,MP-Perception Experiment,xx24w24,
454,training(23).webm,False,right,2,vgpdm_dyn(30)-lvm(25)_final(0).webm,0,135,135,40,,,,,,,,17:24:37:479,17:24:38:132,17:24:41:135,right,17:24:41:585,,2013_Jan_03_1638,59.9158387075,MP-Perception Experiment,xx24w24,
455,training(48).webm,True,right,2,vcgpdm_dyn(30)-lvm(5)_final(0).webm,0,136,136,43,,,,,,,,17:24:42:270,17:24:43:086,17:24:46:089,left,17:24:46:672,,2013_Jan_03_1638,59.9158387075,MP-Perception Experiment,xx24w24,
456,vcgpdm_dyn(15)-lvm(35)_final(0).webm,True,left,2,training(18).webm,0,137,137,16,,,,,,,,17:24:47:347,17:24:48:175,17:24:51:161,left,17:24:52:329,,2013_Jan_03_1638,59.9158387075,MP-Perception Experiment,xx24w24,
457,training(26).webm,False,right,2,vcgpdm_dyn(20)-lvm(10)_final(7).webm,0,138,138,2,,,,,,,,17:24:53:139,17:24:53:830,17:24:56:833,left,17:24:57:367,,2013_Jan_03_1638,59.9158387075,MP-Perception Experiment,xx24w24,
458,vcgpdm_dyn(15)-lvm(5)_final(3).webm,True,left,2,training(13).webm,0,139,139,153,,,,,,,,17:24:58:153,17:24:58:868,17:25:01:871,left,17:25:02:238,,2013_Jan_03_1638,59.9158387075,MP-Perception Experiment,xx24w24,
459,training(38).webm,False,right,2,vgpdm_dyn(35)-lvm(25)_final(1).webm,0,140,140,20,,,,,,,,17:25:02:917,17:25:03:739,17:25:06:741,right,17:25:07:175,,2013_Jan_03_1638,59.9158387075,MP-Perception Experiment,xx24w24,
460,training(37).webm,False,right,2,tmp_numprim(5)_final(4).webm,0,141,141,125,,,,,,,,17:25:08:023,17:25:08:676,17:25:11:679,right,17:25:12:046,,2013_Jan_03_1638,59.9158387075,MP-Perception Experiment,xx24w24,
461,vgpdm_dyn(10)-lvm(20)_final(2).webm,True,left,2,training(20).webm,0,142,142,65,,,,,,,,17:25:12:723,17:25:13:548,17:25:16:550,left,17:25:16:901,,2013_Jan_03_1638,59.9158387075,MP-Perception Experiment,xx24w24,
462,vcgpdm_dyn(30)-lvm(10)_final(7).webm,True,left,2,training(3).webm,0,143,143,78,,,,,,,,17:25:17:612,17:25:18:402,17:25:21:404,left,17:25:21:805,,2013_Jan_03_1638,59.9158387075,MP-Perception Experiment,xx24w24,
463,vgpdm_dyn(35)-lvm(5)_final(9).webm,False,left,2,training(41).webm,0,144,144,74,,,,,,,,17:25:22:481,17:25:23:306,17:25:26:306,left,17:25:27:140,,2013_Jan_03_1638,59.9158387075,MP-Perception Experiment,xx24w24,
464,training(48).webm,False,right,2,map_gpdm_final(5).webm,0,145,145,97,,,,,,,,17:25:27:823,17:25:28:642,17:25:31:645,right,17:25:32:262,,2013_Jan_03_1638,59.9158387075,MP-Perception Experiment,xx24w24,
465,vgpdm_dyn(15)-lvm(35)_final(4).webm,False,left,2,training(24).webm,0,146,146,57,,,,,,,,17:25:32:943,17:25:33:763,17:25:36:751,right,17:25:37:268,,2013_Jan_03_1638,59.9158387075,MP-Perception Experiment,xx24w24,
466,vgpdm_dyn(15)-lvm(15)_final(9).webm,True,left,2,training(23).webm,0,147,147,47,,,,,,,,17:25:37:945,17:25:38:769,17:25:41:772,left,17:25:42:239,,2013_Jan_03_1638,59.9158387075,MP-Perception Experiment,xx24w24,
467,training(12).webm,False,right,2,vgpdm_dyn(25)-lvm(30)_final(9).webm,0,148,148,76,,,,,,,,17:25:42:913,17:25:43:740,17:25:46:742,right,17:25:47:143,,2013_Jan_03_1638,59.9158387075,MP-Perception Experiment,xx24w24,
468,vcgpdm_dyn(10)-lvm(25)_final(7).webm,True,left,2,training(10).webm,0,149,149,14,,,,,,,,17:25:47:998,17:25:48:645,17:25:51:647,left,17:25:52:281,,2013_Jan_03_1638,59.9158387075,MP-Perception Experiment,xx24w24,
