trial_number,right,flipped,correct,block,left,trials.thisRepN,trials.thisTrialN,trials.thisN,trials.thisIndex,flipwelcome.keys,flipwelcome.corr,flipwelcome.rt,flippreparations.keys,flippreparations.rt,flipInstructions.keys,flipInstructions.rt,time_at_fixation_cross_onset,time_at_videoonset,time_at_videoend,participant_key_response,time_at_key_response,key_resp_4.keys,date,frameRate,expName,participant,
,,,,,,,,,,space,0,69.3936874695,,,,,,,,,,,2013_Jan_04_1236,59.9492656153,MP-Perception Experiment,xx25w20,
,,,,,,,,,,,,,space,9.9085246267,,,,,,,,,2013_Jan_04_1236,59.9492656153,MP-Perception Experiment,xx25w20,
,,,,,,,,,,,,,,,space,14.5957935537,,,,,,,2013_Jan_04_1236,59.9492656153,MP-Perception Experiment,xx25w20,
1,training(3).webm,True,right,0,vcgpdm_dyn(5)-lvm(15)_final(1).webm,0,0,0,12,,,,,,,,12:38:11:146,12:38:11:664,12:38:14:199,right,12:38:16:734,,2013_Jan_04_1236,59.9492656153,MP-Perception Experiment,xx25w20,
2,vcgpdm_dyn(15)-lvm(35)_final(6).webm,True,left,0,training(11).webm,0,1,1,131,,,,,,,,12:38:17:416,12:38:18:235,12:38:21:238,left,12:38:21:955,,2013_Jan_04_1236,59.9492656153,MP-Perception Experiment,xx25w20,
3,training(15).webm,True,right,0,vgpdm_dyn(30)-lvm(10)_final(5).webm,0,2,2,76,,,,,,,,12:38:22:640,12:38:23:456,12:38:26:459,left,12:38:27:328,,2013_Jan_04_1236,59.9492656153,MP-Perception Experiment,xx25w20,
4,training(1).webm,True,right,0,vcgpdm_dyn(10)-lvm(25)_final(5).webm,0,3,3,63,,,,,,,,12:38:28:173,12:38:28:829,12:38:31:831,right,12:38:32:466,,2013_Jan_04_1236,59.9492656153,MP-Perception Experiment,xx25w20,
5,training(24).webm,True,right,0,vcgpdm_dyn(5)-lvm(15)_final(7).webm,0,4,4,87,,,,,,,,12:38:33:154,12:38:33:967,12:38:36:970,left,12:38:38:471,,2013_Jan_04_1236,59.9492656153,MP-Perception Experiment,xx25w20,
6,vcgpdm_dyn(30)-lvm(30)_final(1).webm,True,left,0,training(31).webm,0,5,5,21,,,,,,,,12:38:39:346,12:38:39:972,12:38:42:975,left,12:38:43:792,,2013_Jan_04_1236,59.9492656153,MP-Perception Experiment,xx25w20,
7,training(13).webm,False,right,0,vcgpdm_dyn(10)-lvm(20)_final(9).webm,0,6,6,26,,,,,,,,12:38:44:644,12:38:45:293,12:38:48:296,right,12:38:48:863,,2013_Jan_04_1236,59.9492656153,MP-Perception Experiment,xx25w20,
8,training(31).webm,False,right,0,vcgpdm_dyn(10)-lvm(30)_final(8).webm,0,7,7,128,,,,,,,,12:38:49:672,12:38:50:365,12:38:53:368,left,12:38:54:668,,2013_Jan_04_1236,59.9492656153,MP-Perception Experiment,xx25w20,
9,vgpdm_dyn(35)-lvm(5)_final(3).webm,False,left,0,training(9).webm,0,8,8,32,,,,,,,,12:38:55:496,12:38:56:170,12:38:59:172,right,12:38:59:689,,2013_Jan_04_1236,59.9492656153,MP-Perception Experiment,xx25w20,
10,training(9).webm,False,right,0,vcgpdm_dyn(35)-lvm(5)_final(5).webm,0,9,9,38,,,,,,,,12:39:00:491,12:39:01:190,12:39:04:193,left,12:39:04:693,,2013_Jan_04_1236,59.9492656153,MP-Perception Experiment,xx25w20,
11,training(5).webm,True,right,0,vcgpdm_dyn(35)-lvm(25)_final(2).webm,0,10,10,41,,,,,,,,12:39:05:556,12:39:06:209,12:39:09:213,left,12:39:09:930,,2013_Jan_04_1236,59.9492656153,MP-Perception Experiment,xx25w20,
12,training(39).webm,True,right,0,vcgpdm_dyn(10)-lvm(10)_final(6).webm,0,11,11,135,,,,,,,,12:39:10:842,12:39:11:431,12:39:14:434,left,12:39:14:884,,2013_Jan_04_1236,59.9492656153,MP-Perception Experiment,xx25w20,
13,vcgpdm_dyn(25)-lvm(20)_final(9).webm,True,left,0,training(22).webm,0,12,12,127,,,,,,,,12:39:15:734,12:39:16:385,12:39:19:389,left,12:39:20:207,,2013_Jan_04_1236,59.9492656153,MP-Perception Experiment,xx25w20,
14,training(36).webm,True,right,0,vcgpdm_dyn(30)-lvm(5)_final(8).webm,0,13,13,141,,,,,,,,12:39:21:015,12:39:21:708,12:39:24:711,left,12:39:25:262,,2013_Jan_04_1236,59.9492656153,MP-Perception Experiment,xx25w20,
15,training(34).webm,False,right,0,dmp_npsi(15)_final(0).webm,0,14,14,95,,,,,,,,12:39:26:110,12:39:26:763,12:39:29:766,right,12:39:30:533,,2013_Jan_04_1236,59.9492656153,MP-Perception Experiment,xx25w20,
16,vcgpdm_dyn(25)-lvm(20)_final(1).webm,False,left,0,training(7).webm,0,15,15,140,,,,,,,,12:39:31:368,12:39:32:034,12:39:35:036,right,12:39:35:637,,2013_Jan_04_1236,59.9492656153,MP-Perception Experiment,xx25w20,
17,vcgpdm_dyn(35)-lvm(10)_final(1).webm,False,left,0,training(15).webm,0,16,16,6,,,,,,,,12:39:36:416,12:39:37:138,12:39:40:141,left,12:39:40:741,,2013_Jan_04_1236,59.9492656153,MP-Perception Experiment,xx25w20,
18,vcgpdm_dyn(15)-lvm(15)_final(8).webm,False,left,0,training(13).webm,0,17,17,45,,,,,,,,12:39:41:490,12:39:42:243,12:39:45:246,left,12:39:45:596,,2013_Jan_04_1236,59.9492656153,MP-Perception Experiment,xx25w20,
19,training(40).webm,True,right,0,vcgpdm_dyn(5)-lvm(5)_final(4).webm,0,18,18,157,,,,,,,,12:39:46:442,12:39:47:097,12:39:50:100,left,12:39:50:567,,2013_Jan_04_1236,59.9492656153,MP-Perception Experiment,xx25w20,
20,map_cgpdm_final(6).webm,False,left,0,training(36).webm,0,19,19,44,,,,,,,,12:39:51:342,12:39:52:068,12:39:55:068,left,12:39:55:902,,2013_Jan_04_1236,59.9492656153,MP-Perception Experiment,xx25w20,
21,vgpdm_dyn(30)-lvm(5)_final(3).webm,True,left,0,training(11).webm,0,20,20,158,,,,,,,,12:39:56:582,12:39:57:404,12:40:00:407,left,12:40:00:907,,2013_Jan_04_1236,59.9492656153,MP-Perception Experiment,xx25w20,
22,vcgpdm_dyn(15)-lvm(20)_final(5).webm,False,left,0,training(40).webm,0,21,21,100,,,,,,,,12:40:01:686,12:40:02:409,12:40:05:411,left,12:40:05:795,,2013_Jan_04_1236,59.9492656153,MP-Perception Experiment,xx25w20,
23,training(1).webm,False,right,0,vgpdm_dyn(35)-lvm(5)_final(7).webm,0,22,22,57,,,,,,,,12:40:06:615,12:40:07:296,12:40:10:283,right,12:40:10:667,,2013_Jan_04_1236,59.9492656153,MP-Perception Experiment,xx25w20,
24,vgpdm_dyn(5)-lvm(30)_final(1).webm,True,left,0,training(26).webm,0,23,23,114,,,,,,,,12:40:11:525,12:40:12:168,12:40:15:171,left,12:40:15:805,,2013_Jan_04_1236,59.9492656153,MP-Perception Experiment,xx25w20,
25,vcgpdm_dyn(5)-lvm(35)_final(3)_bad.webm,True,left,0,training(25).webm,0,24,24,18,,,,,,,,12:40:16:637,12:40:17:323,12:40:20:309,left,12:40:21:310,,2013_Jan_04_1236,59.9492656153,MP-Perception Experiment,xx25w20,
26,training(21).webm,True,right,0,vcgpdm_dyn(10)-lvm(35)_final(0).webm,0,25,25,49,,,,,,,,12:40:21:995,12:40:22:811,12:40:25:814,right,12:40:26:247,,2013_Jan_04_1236,59.9492656153,MP-Perception Experiment,xx25w20,
27,vgpdm_dyn(15)-lvm(25)_final(1).webm,True,left,0,training(11).webm,0,26,26,138,,,,,,,,12:40:27:026,12:40:27:748,12:40:30:751,left,12:40:31:135,,2013_Jan_04_1236,59.9492656153,MP-Perception Experiment,xx25w20,
28,tmp_numprim(6)_final(1).webm,True,left,0,training(36).webm,0,27,27,152,,,,,,,,12:40:31:816,12:40:32:636,12:40:35:639,left,12:40:36:273,,2013_Jan_04_1236,59.9492656153,MP-Perception Experiment,xx25w20,
29,vcgpdm_dyn(10)-lvm(10)_final(9).webm,True,left,0,training(3).webm,0,28,28,30,,,,,,,,12:40:37:022,12:40:37:774,12:40:40:777,left,12:40:41:361,,2013_Jan_04_1236,59.9492656153,MP-Perception Experiment,xx25w20,
30,tmp_numprim(6)_final(1).webm,False,left,0,training(25).webm,0,29,29,88,,,,,,,,12:40:42:038,12:40:42:862,12:40:45:862,right,12:40:46:313,,2013_Jan_04_1236,59.9492656153,MP-Perception Experiment,xx25w20,
31,vcgpdm_dyn(25)-lvm(15)_final(9).webm,True,left,0,training(9).webm,0,30,30,54,,,,,,,,12:40:47:164,12:40:47:831,12:40:50:816,left,12:40:51:450,,2013_Jan_04_1236,59.9492656153,MP-Perception Experiment,xx25w20,
32,training(9).webm,False,right,0,vcgpdm_dyn(35)-lvm(20)_final(0).webm,0,31,31,149,,,,,,,,12:40:52:131,12:40:52:952,12:40:55:955,right,12:40:56:389,,2013_Jan_04_1236,59.9492656153,MP-Perception Experiment,xx25w20,
33,training(38).webm,False,right,0,vgpdm_dyn(10)-lvm(20)_final(7).webm,0,32,32,20,,,,,,,,12:40:57:226,12:40:57:891,12:41:00:894,right,12:41:01:478,,2013_Jan_04_1236,59.9492656153,MP-Perception Experiment,xx25w20,
34,vcgpdm_dyn(15)-lvm(15)_final(8).webm,True,left,0,training(22).webm,0,33,33,105,,,,,,,,12:41:02:154,12:41:02:979,12:41:05:981,left,12:41:06:615,,2013_Jan_04_1236,59.9492656153,MP-Perception Experiment,xx25w20,
35,vgpdm_dyn(30)-lvm(20)_final(4).webm,False,left,0,training(28).webm,0,34,34,1,,,,,,,,12:41:07:468,12:41:08:116,12:41:11:120,right,12:41:11:504,,2013_Jan_04_1236,59.9492656153,MP-Perception Experiment,xx25w20,
36,training(41).webm,False,right,0,vgpdm_dyn(30)-lvm(30)_final(3).webm,0,35,35,27,,,,,,,,12:41:12:207,12:41:13:005,12:41:16:007,right,12:41:16:541,,2013_Jan_04_1236,59.9492656153,MP-Perception Experiment,xx25w20,
37,training(30).webm,False,right,0,vgpdm_dyn(30)-lvm(5)_final(3).webm,0,36,36,56,,,,,,,,12:41:17:386,12:41:18:042,12:41:21:044,right,12:41:21:428,,2013_Jan_04_1236,59.9492656153,MP-Perception Experiment,xx25w20,
38,training(11).webm,False,right,0,dmp_npsi(25)_final(4).webm,0,37,37,9,,,,,,,,12:41:22:115,12:41:22:929,12:41:25:932,right,12:41:26:599,,2013_Jan_04_1236,59.9492656153,MP-Perception Experiment,xx25w20,
39,training(7).webm,False,right,0,vgpdm_dyn(5)-lvm(20)_final(8).webm,0,38,38,113,,,,,,,,12:41:27:280,12:41:28:101,12:41:31:104,right,12:41:31:587,,2013_Jan_04_1236,59.9492656153,MP-Perception Experiment,xx25w20,
40,vgpdm_dyn(35)-lvm(25)_final(0).webm,False,left,0,training(15).webm,0,39,39,16,,,,,,,,12:41:32:270,12:41:33:089,12:41:36:089,left,12:41:36:406,,2013_Jan_04_1236,59.9492656153,MP-Perception Experiment,xx25w20,
41,vcgpdm_dyn(20)-lvm(10)_final(7).webm,False,left,0,training(35).webm,0,40,40,51,,,,,,,,12:41:37:089,12:41:37:907,12:41:40:910,left,12:41:41:460,,2013_Jan_04_1236,59.9492656153,MP-Perception Experiment,xx25w20,
42,training(11).webm,True,right,0,vgpdm_dyn(35)-lvm(10)_final(1).webm,0,41,41,155,,,,,,,,12:41:42:141,12:41:42:961,12:41:45:965,left,12:41:46:499,,2013_Jan_04_1236,59.9492656153,MP-Perception Experiment,xx25w20,
43,training(6).webm,False,right,0,vgpdm_dyn(35)-lvm(35)_final(7).webm,0,42,42,80,,,,,,,,12:41:47:179,12:41:48:000,12:41:50:987,right,12:41:51:288,,2013_Jan_04_1236,59.9492656153,MP-Perception Experiment,xx25w20,
44,tmp_numprim(8)_final(7).webm,True,left,0,training(17).webm,0,43,43,92,,,,,,,,12:41:51:979,12:41:52:789,12:41:55:791,right,12:41:56:308,,2013_Jan_04_1236,59.9492656153,MP-Perception Experiment,xx25w20,
45,training(38).webm,True,right,0,vcgpdm_dyn(15)-lvm(25)_final(1).webm,0,44,44,7,,,,,,,,12:41:57:138,12:41:57:809,12:42:00:829,right,12:42:01:346,,2013_Jan_04_1236,59.9492656153,MP-Perception Experiment,xx25w20,
46,vgpdm_dyn(20)-lvm(20)_final(7).webm,True,left,0,training(15).webm,0,45,45,71,,,,,,,,12:42:02:030,12:42:02:848,12:42:05:850,left,12:42:06:267,,2013_Jan_04_1236,59.9492656153,MP-Perception Experiment,xx25w20,
47,training(21).webm,True,right,0,vcgpdm_dyn(20)-lvm(15)_final(8).webm,0,46,46,133,,,,,,,,12:42:07:111,12:42:07:769,12:42:10:771,left,12:42:11:305,,2013_Jan_04_1236,59.9492656153,MP-Perception Experiment,xx25w20,
48,vgpdm_dyn(30)-lvm(30)_final(7).webm,False,left,0,training(38).webm,0,47,47,22,,,,,,,,12:42:11:986,12:42:12:806,12:42:15:808,right,12:42:16:159,,2013_Jan_04_1236,59.9492656153,MP-Perception Experiment,xx25w20,
49,dmp_npsi(35)_final(4).webm,True,left,0,training(27).webm,0,48,48,28,,,,,,,,12:42:16:978,12:42:17:660,12:42:20:663,left,12:42:21:297,,2013_Jan_04_1236,59.9492656153,MP-Perception Experiment,xx25w20,
50,vcgpdm_dyn(10)-lvm(35)_final(9).webm,True,left,0,training(37).webm,0,49,49,62,,,,,,,,12:42:21:982,12:42:22:798,12:42:25:799,left,12:42:26:466,,2013_Jan_04_1236,59.9492656153,MP-Perception Experiment,xx25w20,
51,vcgpdm_dyn(10)-lvm(25)_final(9).webm,True,left,0,training(28).webm,0,50,50,145,,,,,,,,12:42:27:147,12:42:27:967,12:42:30:970,left,12:42:31:487,,2013_Jan_04_1236,59.9492656153,MP-Perception Experiment,xx25w20,
52,training(3).webm,False,right,0,vcgpdm_dyn(20)-lvm(25)_final(8).webm,0,51,51,23,,,,,,,,12:42:32:167,12:42:32:988,12:42:35:991,right,12:42:36:374,,2013_Jan_04_1236,59.9492656153,MP-Perception Experiment,xx25w20,
53,training(16).webm,False,right,0,vcgpdm_dyn(10)-lvm(20)_final(8).webm,0,52,52,91,,,,,,,,12:42:37:228,12:42:37:878,12:42:40:864,right,12:42:41:348,,2013_Jan_04_1236,59.9492656153,MP-Perception Experiment,xx25w20,
54,training(34).webm,False,right,0,vgpdm_dyn(35)-lvm(5)_final(5).webm,0,53,53,108,,,,,,,,12:42:42:024,12:42:42:849,12:42:45:851,right,12:42:46:302,,2013_Jan_04_1236,59.9492656153,MP-Perception Experiment,xx25w20,
55,training(0).webm,False,right,0,vcgpdm_dyn(5)-lvm(30)_final(5)_bad.webm,0,54,54,4,,,,,,,,12:42:47:148,12:42:47:803,12:42:50:805,right,12:42:51:356,,2013_Jan_04_1236,59.9492656153,MP-Perception Experiment,xx25w20,
56,tmp_numprim(10)_final(9).webm,True,left,0,training(32).webm,0,55,55,102,,,,,,,,12:42:52:042,12:42:52:857,12:42:55:860,right,12:42:56:261,,2013_Jan_04_1236,59.9492656153,MP-Perception Experiment,xx25w20,
57,vcgpdm_dyn(15)-lvm(15)_final(6).webm,False,left,0,training(30).webm,0,56,56,143,,,,,,,,12:42:57:111,12:42:57:762,12:43:00:764,left,12:43:01:165,,2013_Jan_04_1236,59.9492656153,MP-Perception Experiment,xx25w20,
58,training(24).webm,True,right,0,tmp_numprim(9)_final(9).webm,0,57,57,106,,,,,,,,12:43:01:844,12:43:02:666,12:43:05:668,left,12:43:06:452,,2013_Jan_04_1236,59.9492656153,MP-Perception Experiment,xx25w20,
59,vcgpdm_dyn(10)-lvm(10)_final(7).webm,False,left,0,training(35).webm,0,58,58,14,,,,,,,,12:43:07:212,12:43:07:953,12:43:10:956,left,12:43:11:841,,2013_Jan_04_1236,59.9492656153,MP-Perception Experiment,xx25w20,
60,training(39).webm,False,right,0,vcgpdm_dyn(20)-lvm(15)_final(9).webm,0,59,59,33,,,,,,,,12:43:12:517,12:43:13:342,12:43:16:343,right,12:43:17:177,,2013_Jan_04_1236,59.9492656153,MP-Perception Experiment,xx25w20,
61,vcgpdm_dyn(10)-lvm(30)_final(0).webm,False,left,0,training(24).webm,0,60,60,31,,,,,,,,12:43:17:882,12:43:18:678,12:43:21:680,left,12:43:23:899,,2013_Jan_04_1236,59.9492656153,MP-Perception Experiment,xx25w20,
62,training(15).webm,True,right,0,vgpdm_dyn(10)-lvm(35)_final(3).webm,0,61,61,89,,,,,,,,12:43:24:583,12:43:25:400,12:43:28:388,right,12:43:28:771,,2013_Jan_04_1236,59.9492656153,MP-Perception Experiment,xx25w20,
63,training(2).webm,False,right,0,tmp_numprim(4)_final(6).webm,0,62,62,19,,,,,,,,12:43:29:463,12:43:30:273,12:43:33:276,right,12:43:33:643,,2013_Jan_04_1236,59.9492656153,MP-Perception Experiment,xx25w20,
64,training(35).webm,True,right,0,vgpdm_dyn(30)-lvm(25)_final(1).webm,0,63,63,121,,,,,,,,12:43:34:329,12:43:35:144,12:43:38:146,right,12:43:38:647,,2013_Jan_04_1236,59.9492656153,MP-Perception Experiment,xx25w20,
65,training(19).webm,False,right,0,vcgpdm_dyn(5)-lvm(15)_final(0).webm,0,64,64,107,,,,,,,,12:43:39:337,12:43:40:148,12:43:43:151,right,12:43:43:484,,2013_Jan_04_1236,59.9492656153,MP-Perception Experiment,xx25w20,
66,vgpdm_dyn(35)-lvm(35)_final(2).webm,True,left,0,training(38).webm,0,65,65,66,,,,,,,,12:43:44:162,12:43:44:985,12:43:47:989,right,12:43:48:573,,2013_Jan_04_1236,59.9492656153,MP-Perception Experiment,xx25w20,
67,vcgpdm_dyn(30)-lvm(30)_final(0).webm,False,left,0,training(25).webm,0,66,66,139,,,,,,,,12:43:49:250,12:43:50:074,12:43:53:076,left,12:43:53:460,,2013_Jan_04_1236,59.9492656153,MP-Perception Experiment,xx25w20,
68,training(32).webm,False,right,0,vcgpdm_dyn(5)-lvm(10)_final(4).webm,0,67,67,46,,,,,,,,12:43:54:141,12:43:54:961,12:43:57:964,left,12:43:58:597,,2013_Jan_04_1236,59.9492656153,MP-Perception Experiment,xx25w20,
69,vcgpdm_dyn(15)-lvm(30)_final(7).webm,False,left,0,training(37).webm,0,68,68,148,,,,,,,,12:43:59:276,12:44:00:098,12:44:03:101,right,12:44:04:186,,2013_Jan_04_1236,59.9492656153,MP-Perception Experiment,xx25w20,
70,vgpdm_dyn(15)-lvm(30)_final(8).webm,False,left,0,training(18).webm,0,69,69,58,,,,,,,,12:44:04:876,12:44:05:702,12:44:08:688,left,12:44:09:205,,2013_Jan_04_1236,59.9492656153,MP-Perception Experiment,xx25w20,
71,training(4).webm,False,right,0,vcgpdm_dyn(25)-lvm(35)_final(4).webm,0,70,70,99,,,,,,,,12:44:09:889,12:44:10:706,12:44:13:709,right,12:44:14:209,,2013_Jan_04_1236,59.9492656153,MP-Perception Experiment,xx25w20,
72,vgpdm_dyn(10)-lvm(20)_final(0).webm,False,left,0,training(19).webm,0,71,71,13,,,,,,,,12:44:14:889,12:44:15:710,12:44:18:698,left,12:44:19:332,,2013_Jan_04_1236,59.9492656153,MP-Perception Experiment,xx25w20,
73,training(27).webm,True,right,0,vcgpdm_dyn(35)-lvm(20)_final(3).webm,0,72,72,109,,,,,,,,12:44:20:042,12:44:20:833,12:44:23:836,left,12:44:24:720,,2013_Jan_04_1236,59.9492656153,MP-Perception Experiment,xx25w20,
74,training(40).webm,False,right,0,vgpdm_dyn(15)-lvm(15)_final(9).webm,0,73,73,116,,,,,,,,12:44:25:401,12:44:26:222,12:44:29:224,right,12:44:29:691,,2013_Jan_04_1236,59.9492656153,MP-Perception Experiment,xx25w20,
75,training(11).webm,False,right,0,vcgpdm_dyn(30)-lvm(15)_final(5).webm,0,74,74,17,,,,,,,,12:44:30:370,12:44:31:192,12:44:34:212,left,12:44:34:628,,2013_Jan_04_1236,59.9492656153,MP-Perception Experiment,xx25w20,
76,training(30).webm,True,right,0,tmp_numprim(4)_final(7).webm,0,75,75,24,,,,,,,,12:44:35:308,12:44:36:130,12:44:39:133,right,12:44:39:583,,2013_Jan_04_1236,59.9492656153,MP-Perception Experiment,xx25w20,
77,training(40).webm,True,right,0,vgpdm_dyn(20)-lvm(15)_final(0).webm,0,76,76,123,,,,,,,,12:44:40:292,12:44:41:085,12:44:44:087,right,12:44:44:454,,2013_Jan_04_1236,59.9492656153,MP-Perception Experiment,xx25w20,
78,training(31).webm,True,right,0,vcgpdm_dyn(10)-lvm(20)_final(2).webm,0,77,77,72,,,,,,,,12:44:45:313,12:44:45:955,12:44:48:958,right,12:44:49:441,,2013_Jan_04_1236,59.9492656153,MP-Perception Experiment,xx25w20,
79,vcgpdm_dyn(30)-lvm(35)_final(2).webm,False,left,0,training(2).webm,0,78,78,83,,,,,,,,12:44:50:212,12:44:50:943,12:44:53:945,left,12:44:54:462,,2013_Jan_04_1236,59.9492656153,MP-Perception Experiment,xx25w20,
80,vcgpdm_dyn(20)-lvm(30)_final(2).webm,False,left,0,training(13).webm,0,79,79,104,,,,,,,,12:44:55:146,12:44:55:978,12:44:58:965,left,12:44:59:315,,2013_Jan_04_1236,59.9492656153,MP-Perception Experiment,xx25w20,
81,vcgpdm_dyn(15)-lvm(5)_final(5).webm,False,left,0,training(25).webm,0,80,80,117,,,,,,,,12:45:00:152,12:45:00:816,12:45:03:819,left,12:45:04:319,,2013_Jan_04_1236,59.9492656153,MP-Perception Experiment,xx25w20,
82,training(23).webm,True,right,0,vgpdm_dyn(5)-lvm(15)_final(7).webm,0,81,81,94,,,,,,,,12:45:05:168,12:45:05:820,12:45:08:808,right,12:45:09:325,,2013_Jan_04_1236,59.9492656153,MP-Perception Experiment,xx25w20,
83,training(28).webm,False,right,0,vgpdm_dyn(15)-lvm(35)_final(8).webm,0,82,82,77,,,,,,,,12:45:10:170,12:45:10:826,12:45:13:846,right,12:45:14:964,,2013_Jan_04_1236,59.9492656153,MP-Perception Experiment,xx25w20,
84,vgpdm_dyn(20)-lvm(5)_final(1).webm,False,left,0,training(7).webm,0,83,83,60,,,,,,,,12:45:15:690,12:45:16:465,12:45:19:468,left,12:45:19:951,,2013_Jan_04_1236,59.9492656153,MP-Perception Experiment,xx25w20,
85,vcgpdm_dyn(15)-lvm(10)_final(7).webm,False,left,0,training(39).webm,0,84,84,137,,,,,,,,12:45:20:817,12:45:21:452,12:45:24:455,left,12:45:24:872,,2013_Jan_04_1236,59.9492656153,MP-Perception Experiment,xx25w20,
86,training(4).webm,True,right,0,tmp_numprim(3)_final(0).webm,0,85,85,119,,,,,,,,12:45:25:685,12:45:26:373,12:45:29:376,left,12:45:31:344,,2013_Jan_04_1236,59.9492656153,MP-Perception Experiment,xx25w20,
87,vcgpdm_dyn(30)-lvm(35)_final(3).webm,True,left,0,training(40).webm,0,86,86,97,,,,,,,,12:45:32:024,12:45:32:846,12:45:35:849,right,12:45:36:432,,2013_Jan_04_1236,59.9492656153,MP-Perception Experiment,xx25w20,
88,vcgpdm_dyn(35)-lvm(20)_final(9).webm,False,left,0,training(1).webm,0,87,87,129,,,,,,,,12:45:37:115,12:45:37:933,12:45:40:936,left,12:45:41:386,,2013_Jan_04_1236,59.9492656153,MP-Perception Experiment,xx25w20,
89,training(31).webm,True,right,0,tmp_numprim(9)_final(1).webm,0,88,88,111,,,,,,,,12:45:42:067,12:45:42:887,12:45:45:888,right,12:45:46:339,,2013_Jan_04_1236,59.9492656153,MP-Perception Experiment,xx25w20,
90,training(29).webm,True,right,0,vgpdm_dyn(25)-lvm(5)_final(9).webm,0,89,89,101,,,,,,,,12:45:47:185,12:45:47:840,12:45:50:843,right,12:45:51:227,,2013_Jan_04_1236,59.9492656153,MP-Perception Experiment,xx25w20,
91,vgpdm_dyn(10)-lvm(5)_final(3).webm,False,left,0,training(18).webm,0,90,90,68,,,,,,,,12:45:52:040,12:45:52:728,12:45:55:730,left,12:45:56:248,,2013_Jan_04_1236,59.9492656153,MP-Perception Experiment,xx25w20,
92,vcgpdm_dyn(35)-lvm(5)_final(0).webm,False,left,0,training(4).webm,0,91,91,25,,,,,,,,12:45:56:929,12:45:57:751,12:46:00:736,left,12:46:01:103,,2013_Jan_04_1236,59.9492656153,MP-Perception Experiment,xx25w20,
93,training(22).webm,True,right,0,vgpdm_dyn(15)-lvm(30)_final(7).webm,0,92,92,69,,,,,,,,12:46:01:958,12:46:02:604,12:46:05:607,right,12:46:06:074,,2013_Jan_04_1236,59.9492656153,MP-Perception Experiment,xx25w20,
94,dmp_npsi(40)_final(6).webm,False,left,0,training(40).webm,0,93,93,34,,,,,,,,12:46:06:852,12:46:07:576,12:46:10:579,left,12:46:10:962,,2013_Jan_04_1236,59.9492656153,MP-Perception Experiment,xx25w20,
95,tmp_numprim(8)_final(9).webm,False,left,0,training(20).webm,0,94,94,115,,,,,,,,12:46:11:810,12:46:12:463,12:46:15:466,right,12:46:15:783,,2013_Jan_04_1236,59.9492656153,MP-Perception Experiment,xx25w20,
96,training(40).webm,True,right,0,vgpdm_dyn(5)-lvm(30)_final(6).webm,0,95,95,156,,,,,,,,12:46:16:625,12:46:17:284,12:46:20:286,right,12:46:20:703,,2013_Jan_04_1236,59.9492656153,MP-Perception Experiment,xx25w20,
97,training(37).webm,True,right,0,vcgpdm_dyn(10)-lvm(5)_final(3).webm,0,96,96,55,,,,,,,,12:46:21:559,12:46:22:205,12:46:25:208,right,12:46:25:558,,2013_Jan_04_1236,59.9492656153,MP-Perception Experiment,xx25w20,
98,vcgpdm_dyn(20)-lvm(25)_final(5).webm,True,left,0,training(6).webm,0,97,97,126,,,,,,,,12:46:26:387,12:46:27:059,12:46:30:079,right,12:46:31:063,,2013_Jan_04_1236,59.9492656153,MP-Perception Experiment,xx25w20,
99,vcgpdm_dyn(15)-lvm(35)_final(7).webm,False,left,0,training(35).webm,0,98,98,142,,,,,,,,12:46:31:838,12:46:32:564,12:46:35:566,left,12:46:35:982,,2013_Jan_04_1236,59.9492656153,MP-Perception Experiment,xx25w20,
100,dmp_npsi(30)_final(9).webm,True,left,0,training(23).webm,0,99,99,136,,,,,,,,12:46:36:765,12:46:37:483,12:46:40:485,left,12:46:41:504,,2013_Jan_04_1236,59.9492656153,MP-Perception Experiment,xx25w20,
101,vcgpdm_dyn(30)-lvm(10)_final(1).webm,True,left,0,training(26).webm,0,100,100,43,,,,,,,,12:46:42:184,12:46:43:005,12:46:46:007,left,12:46:46:274,,2013_Jan_04_1236,59.9492656153,MP-Perception Experiment,xx25w20,
102,dmp_npsi(25)_final(8).webm,True,left,0,training(4).webm,0,101,101,82,,,,,,,,12:46:47:094,12:46:47:775,12:46:50:763,left,12:46:51:147,,2013_Jan_04_1236,59.9492656153,MP-Perception Experiment,xx25w20,
103,training(32).webm,True,right,0,vgpdm_dyn(20)-lvm(25)_final(7).webm,0,102,102,86,,,,,,,,12:46:51:826,12:46:52:648,12:46:55:650,right,12:46:56:117,,2013_Jan_04_1236,59.9492656153,MP-Perception Experiment,xx25w20,
104,training(28).webm,False,right,0,vcgpdm_dyn(15)-lvm(35)_final(2).webm,0,103,103,151,,,,,,,,12:46:56:967,12:46:57:618,12:47:00:622,right,12:47:00:989,,2013_Jan_04_1236,59.9492656153,MP-Perception Experiment,xx25w20,
105,training(28).webm,True,right,0,dmp_npsi(35)_final(9).webm,0,104,104,125,,,,,,,,12:47:01:673,12:47:02:490,12:47:05:493,right,12:47:06:126,,2013_Jan_04_1236,59.9492656153,MP-Perception Experiment,xx25w20,
106,vgpdm_dyn(30)-lvm(25)_final(9).webm,False,left,0,training(33).webm,0,105,105,75,,,,,,,,12:47:06:956,12:47:07:627,12:47:10:630,left,12:47:10:980,,2013_Jan_04_1236,59.9492656153,MP-Perception Experiment,xx25w20,
107,tmp_numprim(2)_final(3).webm,True,left,0,training(15).webm,0,106,106,47,,,,,,,,12:47:11:662,12:47:12:481,12:47:15:484,left,12:47:15:884,,2013_Jan_04_1236,59.9492656153,MP-Perception Experiment,xx25w20,
108,vgpdm_dyn(30)-lvm(15)_final(2).webm,False,left,0,training(40).webm,0,107,107,153,,,,,,,,12:47:16:611,12:47:17:386,12:47:20:389,left,12:47:20:806,,2013_Jan_04_1236,59.9492656153,MP-Perception Experiment,xx25w20,
109,vcgpdm_dyn(35)-lvm(25)_final(4).webm,False,left,0,training(16).webm,0,108,108,146,,,,,,,,12:47:21:494,12:47:22:307,12:47:25:309,right,12:47:26:425,,2013_Jan_04_1236,59.9492656153,MP-Perception Experiment,xx25w20,
110,training(13).webm,True,right,0,vgpdm_dyn(30)-lvm(25)_final(1).webm,0,109,109,37,,,,,,,,12:47:27:098,12:47:27:926,12:47:30:929,right,12:47:31:763,,2013_Jan_04_1236,59.9492656153,MP-Perception Experiment,xx25w20,
111,training(9).webm,False,right,0,vgpdm_dyn(15)-lvm(5)_final(6).webm,0,110,110,35,,,,,,,,12:47:32:444,12:47:33:264,12:47:36:268,right,12:47:36:668,,2013_Jan_04_1236,59.9492656153,MP-Perception Experiment,xx25w20,
112,training(19).webm,True,right,0,vgpdm_dyn(20)-lvm(30)_final(7).webm,0,111,111,81,,,,,,,,12:47:37:355,12:47:38:171,12:47:41:173,left,12:47:41:607,,2013_Jan_04_1236,59.9492656153,MP-Perception Experiment,xx25w20,
113,vgpdm_dyn(10)-lvm(5)_final(2).webm,False,left,0,training(11).webm,0,112,112,50,,,,,,,,12:47:42:290,12:47:43:108,12:47:46:111,left,12:47:47:362,,2013_Jan_04_1236,59.9492656153,MP-Perception Experiment,xx25w20,
114,vgpdm_dyn(20)-lvm(25)_final(7).webm,False,left,0,training(18).webm,0,113,113,147,,,,,,,,12:47:48:039,12:47:48:863,12:47:51:866,right,12:47:53:051,,2013_Jan_04_1236,59.9492656153,MP-Perception Experiment,xx25w20,
115,training(32).webm,True,right,0,vcgpdm_dyn(25)-lvm(35)_final(9).webm,0,114,114,90,,,,,,,,12:47:53:736,12:47:54:552,12:47:57:554,right,12:47:58:121,,2013_Jan_04_1236,59.9492656153,MP-Perception Experiment,xx25w20,
116,vcgpdm_dyn(25)-lvm(10)_final(1).webm,True,left,0,training(35).webm,0,115,115,2,,,,,,,,12:47:58:803,12:47:59:622,12:48:02:625,left,12:48:03:159,,2013_Jan_04_1236,59.9492656153,MP-Perception Experiment,xx25w20,
117,training(25).webm,True,right,0,vcgpdm_dyn(20)-lvm(5)_final(4).webm,0,116,116,15,,,,,,,,12:48:03:841,12:48:04:660,12:48:07:662,left,12:48:07:729,,2013_Jan_04_1236,59.9492656153,MP-Perception Experiment,xx25w20,
118,vcgpdm_dyn(5)-lvm(25)_final(0).webm,True,left,0,training(40).webm,0,117,117,154,,,,,,,,12:48:08:476,12:48:09:231,12:48:12:234,left,12:48:12:934,,2013_Jan_04_1236,59.9492656153,MP-Perception Experiment,xx25w20,
119,vcgpdm_dyn(25)-lvm(35)_final(6).webm,True,left,0,training(19).webm,0,118,118,144,,,,,,,,12:48:13:617,12:48:14:435,12:48:17:436,left,12:48:17:836,,2013_Jan_04_1236,59.9492656153,MP-Perception Experiment,xx25w20,
120,vgpdm_dyn(20)-lvm(30)_final(0).webm,True,left,0,training(9).webm,0,119,119,3,,,,,,,,12:48:18:565,12:48:19:338,12:48:22:340,left,12:48:23:041,,2013_Jan_04_1236,59.9492656153,MP-Perception Experiment,xx25w20,
121,vgpdm_dyn(10)-lvm(10)_final(3).webm,True,left,0,training(17).webm,0,120,120,150,,,,,,,,12:48:23:890,12:48:24:542,12:48:27:545,left,12:48:27:979,,2013_Jan_04_1236,59.9492656153,MP-Perception Experiment,xx25w20,
122,vcgpdm_dyn(25)-lvm(15)_final(4).webm,True,left,0,training(14).webm,0,121,121,64,,,,,,,,12:48:28:817,12:48:29:480,12:48:32:468,left,12:48:32:885,,2013_Jan_04_1236,59.9492656153,MP-Perception Experiment,xx25w20,
123,vgpdm_dyn(20)-lvm(35)_final(5).webm,False,left,0,training(13).webm,0,122,122,132,,,,,,,,12:48:33:574,12:48:34:386,12:48:37:388,left,12:48:37:789,,2013_Jan_04_1236,59.9492656153,MP-Perception Experiment,xx25w20,
124,training(36).webm,True,right,0,vcgpdm_dyn(15)-lvm(5)_final(7).webm,0,123,123,40,,,,,,,,12:48:38:618,12:48:39:290,12:48:42:309,right,12:48:42:759,,2013_Jan_04_1236,59.9492656153,MP-Perception Experiment,xx25w20,
125,training(32).webm,False,right,0,vgpdm_dyn(15)-lvm(25)_final(9).webm,0,124,124,74,,,,,,,,12:48:43:497,12:48:44:261,12:48:47:281,right,12:48:47:798,,2013_Jan_04_1236,59.9492656153,MP-Perception Experiment,xx25w20,
126,vcgpdm_dyn(25)-lvm(5)_final(2).webm,True,left,0,training(18).webm,0,125,125,79,,,,,,,,12:48:48:652,12:48:49:299,12:48:52:302,left,12:48:52:852,,2013_Jan_04_1236,59.9492656153,MP-Perception Experiment,xx25w20,
127,map_gpdm_final(9).webm,True,left,0,training(17).webm,0,126,126,39,,,,,,,,12:48:53:537,12:48:54:353,12:48:57:356,left,12:48:57:873,,2013_Jan_04_1236,59.9492656153,MP-Perception Experiment,xx25w20,
128,vcgpdm_dyn(20)-lvm(25)_final(7).webm,False,left,0,training(38).webm,0,127,127,0,,,,,,,,12:48:58:559,12:48:59:374,12:49:02:377,left,12:49:02:711,,2013_Jan_04_1236,59.9492656153,MP-Perception Experiment,xx25w20,
129,training(39).webm,True,right,0,vcgpdm_dyn(25)-lvm(30)_final(0).webm,0,128,128,8,,,,,,,,12:49:03:497,12:49:04:212,12:49:07:213,left,12:49:07:563,,2013_Jan_04_1236,59.9492656153,MP-Perception Experiment,xx25w20,
130,training(21).webm,True,right,0,tmp_numprim(8)_final(8).webm,0,129,129,118,,,,,,,,12:49:08:412,12:49:09:064,12:49:12:067,left,12:49:12:384,,2013_Jan_04_1236,59.9492656153,MP-Perception Experiment,xx25w20,
131,training(21).webm,False,right,0,vcgpdm_dyn(25)-lvm(35)_final(3).webm,0,130,130,53,,,,,,,,12:49:13:067,12:49:13:885,12:49:16:872,right,12:49:17:456,,2013_Jan_04_1236,59.9492656153,MP-Perception Experiment,xx25w20,
132,vgpdm_dyn(35)-lvm(35)_final(2).webm,True,left,0,training(26).webm,0,131,131,84,,,,,,,,12:49:18:138,12:49:18:958,12:49:21:961,left,12:49:22:478,,2013_Jan_04_1236,59.9492656153,MP-Perception Experiment,xx25w20,
133,training(0).webm,True,right,0,vgpdm_dyn(25)-lvm(25)_final(2)_bad.webm,0,132,132,73,,,,,,,,12:49:23:340,12:49:23:979,12:49:26:981,right,12:49:27:465,,2013_Jan_04_1236,59.9492656153,MP-Perception Experiment,xx25w20,
134,vcgpdm_dyn(20)-lvm(15)_final(1).webm,False,left,0,training(12).webm,0,133,133,10,,,,,,,,12:49:28:330,12:49:28:966,12:49:31:969,right,12:49:33:337,,2013_Jan_04_1236,59.9492656153,MP-Perception Experiment,xx25w20,
135,training(25).webm,False,right,0,vcgpdm_dyn(35)-lvm(5)_final(6).webm,0,134,134,70,,,,,,,,12:49:34:018,12:49:34:838,12:49:37:841,right,12:49:38:141,,2013_Jan_04_1236,59.9492656153,MP-Perception Experiment,xx25w20,
136,training(19).webm,True,right,0,vgpdm_dyn(10)-lvm(10)_final(2).webm,0,135,135,85,,,,,,,,12:49:38:991,12:49:39:643,12:49:42:645,right,12:49:43:196,,2013_Jan_04_1236,59.9492656153,MP-Perception Experiment,xx25w20,
137,training(6).webm,True,right,0,vgpdm_dyn(20)-lvm(20)_final(0).webm,0,136,136,96,,,,,,,,12:49:43:878,12:49:44:697,12:49:47:699,left,12:49:48:133,,2013_Jan_04_1236,59.9492656153,MP-Perception Experiment,xx25w20,
138,training(4).webm,False,right,0,vcgpdm_dyn(10)-lvm(5)_final(6).webm,0,137,137,112,,,,,,,,12:49:48:980,12:49:49:634,12:49:52:637,right,12:49:52:987,,2013_Jan_04_1236,59.9492656153,MP-Perception Experiment,xx25w20,
139,training(19).webm,True,right,0,vcgpdm_dyn(15)-lvm(10)_final(2).webm,0,138,138,48,,,,,,,,12:49:53:676,12:49:54:489,12:49:57:490,left,12:49:57:907,,2013_Jan_04_1236,59.9492656153,MP-Perception Experiment,xx25w20,
140,training(7).webm,False,right,0,vgpdm_dyn(10)-lvm(5)_final(8).webm,0,139,139,103,,,,,,,,12:49:58:587,12:49:59:408,12:50:02:410,right,12:50:02:844,,2013_Jan_04_1236,59.9492656153,MP-Perception Experiment,xx25w20,
141,training(33).webm,False,right,0,vgpdm_dyn(5)-lvm(20)_final(4).webm,0,140,140,36,,,,,,,,12:50:03:537,12:50:04:345,12:50:07:348,right,12:50:07:631,,2013_Jan_04_1236,59.9492656153,MP-Perception Experiment,xx25w20,
142,vcgpdm_dyn(30)-lvm(35)_final(0).webm,True,left,0,training(20).webm,0,141,141,110,,,,,,,,12:50:08:481,12:50:09:132,12:50:12:121,right,12:50:12:505,,2013_Jan_04_1236,59.9492656153,MP-Perception Experiment,xx25w20,
143,vgpdm_dyn(25)-lvm(30)_final(1).webm,True,left,0,training(14).webm,0,142,142,67,,,,,,,,12:50:13:192,12:50:14:006,12:50:17:008,left,12:50:17:325,,2013_Jan_04_1236,59.9492656153,MP-Perception Experiment,xx25w20,
144,training(14).webm,True,right,0,vgpdm_dyn(10)-lvm(20)_final(0).webm,0,143,143,42,,,,,,,,12:50:18:008,12:50:18:826,12:50:21:829,right,12:50:22:346,,2013_Jan_04_1236,59.9492656153,MP-Perception Experiment,xx25w20,
145,vcgpdm_dyn(15)-lvm(30)_final(6).webm,False,left,0,training(26).webm,0,144,144,120,,,,,,,,12:50:23:027,12:50:23:847,12:50:26:850,left,12:50:27:250,,2013_Jan_04_1236,59.9492656153,MP-Perception Experiment,xx25w20,
146,tmp_numprim(9)_final(9).webm,False,left,0,training(38).webm,0,145,145,134,,,,,,,,12:50:27:931,12:50:28:752,12:50:31:771,left,12:50:32:105,,2013_Jan_04_1236,59.9492656153,MP-Perception Experiment,xx25w20,
147,vcgpdm_dyn(30)-lvm(25)_final(8).webm,False,left,0,training(27).webm,0,146,146,59,,,,,,,,12:50:32:813,12:50:33:606,12:50:36:608,left,12:50:37:059,,2013_Jan_04_1236,59.9492656153,MP-Perception Experiment,xx25w20,
148,training(15).webm,False,right,0,vcgpdm_dyn(15)-lvm(25)_final(3).webm,0,147,147,78,,,,,,,,12:50:37:889,12:50:38:560,12:50:41:562,right,12:50:42:330,,2013_Jan_04_1236,59.9492656153,MP-Perception Experiment,xx25w20,
149,training(30).webm,True,right,0,vgpdm_dyn(5)-lvm(30)_final(5).webm,0,148,148,29,,,,,,,,12:50:43:016,12:50:43:831,12:50:46:832,right,12:50:47:433,,2013_Jan_04_1236,59.9492656153,MP-Perception Experiment,xx25w20,
150,vcgpdm_dyn(5)-lvm(25)_final(9).webm,True,left,0,training(34).webm,0,149,149,122,,,,,,,,12:50:48:202,12:50:48:934,12:50:51:937,left,12:50:52:370,,2013_Jan_04_1236,59.9492656153,MP-Perception Experiment,xx25w20,
151,training(35).webm,True,right,0,vcgpdm_dyn(10)-lvm(25)_final(8).webm,0,150,150,5,,,,,,,,12:50:53:055,12:50:53:871,12:50:56:875,right,12:50:57:343,,2013_Jan_04_1236,59.9492656153,MP-Perception Experiment,xx25w20,
152,vgpdm_dyn(15)-lvm(25)_final(6).webm,False,left,0,training(29).webm,0,151,151,61,,,,,,,,12:50:58:192,12:50:58:844,12:51:01:846,left,12:51:02:397,,2013_Jan_04_1236,59.9492656153,MP-Perception Experiment,xx25w20,
153,dmp_npsi(20)_final(8).webm,True,left,0,training(40).webm,0,152,152,130,,,,,,,,12:51:03:086,12:51:03:899,12:51:06:901,left,12:51:07:285,,2013_Jan_04_1236,59.9492656153,MP-Perception Experiment,xx25w20,
154,training(37).webm,True,right,0,vgpdm_dyn(10)-lvm(20)_final(0).webm,0,153,153,52,,,,,,,,12:51:07:968,12:51:08:786,12:51:11:789,right,12:51:13:223,,2013_Jan_04_1236,59.9492656153,MP-Perception Experiment,xx25w20,
155,training(18).webm,True,right,0,vcgpdm_dyn(20)-lvm(20)_final(2).webm,0,154,154,98,,,,,,,,12:51:13:912,12:51:14:724,12:51:17:744,left,12:51:18:110,,2013_Jan_04_1236,59.9492656153,MP-Perception Experiment,xx25w20,
156,training(15).webm,True,right,0,tmp_numprim(2)_final(0).webm,0,155,155,65,,,,,,,,12:51:18:942,12:51:19:612,12:51:22:615,right,12:51:22:932,,2013_Jan_04_1236,59.9492656153,MP-Perception Experiment,xx25w20,
157,training(13).webm,True,right,0,vgpdm_dyn(25)-lvm(35)_final(4).webm,0,156,156,11,,,,,,,,12:51:23:619,12:51:24:433,12:51:27:436,right,12:51:27:803,,2013_Jan_04_1236,59.9492656153,MP-Perception Experiment,xx25w20,
158,training(0).webm,True,right,0,vgpdm_dyn(25)-lvm(20)_final(4).webm,0,157,157,124,,,,,,,,12:51:28:486,12:51:29:304,12:51:32:306,right,12:51:32:740,,2013_Jan_04_1236,59.9492656153,MP-Perception Experiment,xx25w20,
159,training(15).webm,False,right,0,vgpdm_dyn(30)-lvm(15)_final(0).webm,0,158,158,93,,,,,,,,12:51:33:436,12:51:34:241,12:51:37:242,right,12:51:38:243,,2013_Jan_04_1236,59.9492656153,MP-Perception Experiment,xx25w20,
160,training(0).webm,True,right,1,tmp_numprim(6)_final(5).webm,0,0,0,100,,,,,,,,12:53:57:676,12:53:58:500,12:54:01:486,left,12:54:02:053,,2013_Jan_04_1236,59.9492656153,MP-Perception Experiment,xx25w20,
161,vgpdm_dyn(25)-lvm(5)_final(8).webm,False,left,1,training(29).webm,0,1,1,125,,,,,,,,12:54:02:735,12:54:03:554,12:54:06:555,right,12:54:07:572,,2013_Jan_04_1236,59.9492656153,MP-Perception Experiment,xx25w20,
162,training(32).webm,False,right,1,vcgpdm_dyn(25)-lvm(5)_final(4).webm,0,2,2,12,,,,,,,,12:54:08:254,12:54:09:073,12:54:12:076,left,12:54:12:559,,2013_Jan_04_1236,59.9492656153,MP-Perception Experiment,xx25w20,
163,training(22).webm,False,right,1,dmp_npsi(30)_final(2).webm,0,3,3,37,,,,,,,,12:54:13:245,12:54:14:061,12:54:17:049,left,12:54:17:433,,2013_Jan_04_1236,59.9492656153,MP-Perception Experiment,xx25w20,
164,training(9).webm,False,right,1,vcgpdm_dyn(30)-lvm(10)_final(3).webm,0,4,4,148,,,,,,,,12:54:18:118,12:54:18:934,12:54:21:937,right,12:54:22:320,,2013_Jan_04_1236,59.9492656153,MP-Perception Experiment,xx25w20,
165,vcgpdm_dyn(5)-lvm(20)_final(0).webm,True,left,1,training(6).webm,0,5,5,129,,,,,,,,12:54:23:003,12:54:23:821,12:54:26:824,left,12:54:27:241,,2013_Jan_04_1236,59.9492656153,MP-Perception Experiment,xx25w20,
166,training(11).webm,False,right,1,vcgpdm_dyn(15)-lvm(30)_final(5).webm,0,6,6,140,,,,,,,,12:54:27:932,12:54:28:742,12:54:31:744,right,12:54:32:195,,2013_Jan_04_1236,59.9492656153,MP-Perception Experiment,xx25w20,
167,vcgpdm_dyn(30)-lvm(5)_final(0).webm,False,left,1,training(2).webm,0,7,7,137,,,,,,,,12:54:32:904,12:54:33:697,12:54:36:699,right,12:54:37:100,,2013_Jan_04_1236,59.9492656153,MP-Perception Experiment,xx25w20,
168,training(39).webm,True,right,1,vcgpdm_dyn(35)-lvm(25)_final(7).webm,0,8,8,136,,,,,,,,12:54:37:786,12:54:38:601,12:54:41:603,left,12:54:42:537,,2013_Jan_04_1236,59.9492656153,MP-Perception Experiment,xx25w20,
169,vcgpdm_dyn(35)-lvm(20)_final(6).webm,True,left,1,training(3).webm,0,9,9,156,,,,,,,,12:54:43:219,12:54:44:039,12:54:47:041,left,12:54:47:391,,2013_Jan_04_1236,59.9492656153,MP-Perception Experiment,xx25w20,
170,training(23).webm,False,right,1,vgpdm_dyn(20)-lvm(35)_final(1).webm,0,10,10,98,,,,,,,,12:54:48:071,12:54:48:893,12:54:51:896,right,12:54:52:280,,2013_Jan_04_1236,59.9492656153,MP-Perception Experiment,xx25w20,
171,training(27).webm,True,right,1,vcgpdm_dyn(30)-lvm(20)_final(4).webm,0,11,11,81,,,,,,,,12:54:52:964,12:54:53:781,12:54:56:781,right,12:54:57:249,,2013_Jan_04_1236,59.9492656153,MP-Perception Experiment,xx25w20,
172,vgpdm_dyn(10)-lvm(35)_final(9).webm,False,left,1,training(10).webm,0,12,12,25,,,,,,,,12:54:58:070,12:54:58:750,12:55:01:752,left,12:55:02:052,,2013_Jan_04_1236,59.9492656153,MP-Perception Experiment,xx25w20,
173,training(35).webm,True,right,1,vgpdm_dyn(25)-lvm(20)_final(0).webm,0,13,13,34,,,,,,,,12:55:02:907,12:55:03:554,12:55:06:556,left,12:55:07:123,,2013_Jan_04_1236,59.9492656153,MP-Perception Experiment,xx25w20,
174,tmp_numprim(4)_final(3).webm,False,left,1,training(22).webm,0,14,14,130,,,,,,,,12:55:07:758,12:55:08:625,12:55:11:630,left,12:55:12:013,,2013_Jan_04_1236,59.9492656153,MP-Perception Experiment,xx25w20,
175,vgpdm_dyn(5)-lvm(15)_final(6).webm,True,left,1,training(3).webm,0,15,15,26,,,,,,,,12:55:12:700,12:55:13:514,12:55:16:517,left,12:55:16:984,,2013_Jan_04_1236,59.9492656153,MP-Perception Experiment,xx25w20,
176,training(8).webm,False,right,1,tmp_numprim(5)_final(0).webm,0,16,16,59,,,,,,,,12:55:17:676,12:55:18:485,12:55:21:487,right,12:55:22:071,,2013_Jan_04_1236,59.9492656153,MP-Perception Experiment,xx25w20,
177,training(15).webm,False,right,1,vgpdm_dyn(5)-lvm(10)_final(2).webm,0,17,17,122,,,,,,,,12:55:22:761,12:55:23:572,12:55:26:576,right,12:55:27:193,,2013_Jan_04_1236,59.9492656153,MP-Perception Experiment,xx25w20,
178,tmp_numprim(10)_final(6).webm,False,left,1,training(9).webm,0,18,18,35,,,,,,,,12:55:27:967,12:55:28:694,12:55:31:697,right,12:55:32:197,,2013_Jan_04_1236,59.9492656153,MP-Perception Experiment,xx25w20,
179,training(20).webm,False,right,1,map_gpdm_final(4).webm,0,19,19,73,,,,,,,,12:55:33:058,12:55:33:698,12:55:36:701,right,12:55:37:151,,2013_Jan_04_1236,59.9492656153,MP-Perception Experiment,xx25w20,
180,vgpdm_dyn(30)-lvm(30)_final(4).webm,False,left,1,training(40).webm,0,20,20,84,,,,,,,,12:55:38:002,12:55:38:652,12:55:41:655,left,12:55:42:672,,2013_Jan_04_1236,59.9492656153,MP-Perception Experiment,xx25w20,
181,training(15).webm,False,right,1,vcgpdm_dyn(5)-lvm(25)_final(0).webm,0,21,21,65,,,,,,,,12:55:43:349,12:55:44:174,12:55:47:175,right,12:55:47:642,,2013_Jan_04_1236,59.9492656153,MP-Perception Experiment,xx25w20,
182,vcgpdm_dyn(15)-lvm(10)_final(3).webm,False,left,1,training(22).webm,0,22,22,17,,,,,,,,12:55:48:414,12:55:49:143,12:55:52:146,left,12:55:52:529,,2013_Jan_04_1236,59.9492656153,MP-Perception Experiment,xx25w20,
183,map_cgpdm_final(0).webm,True,left,1,training(16).webm,0,23,23,118,,,,,,,,12:55:53:273,12:55:54:031,12:55:57:018,left,12:55:57:352,,2013_Jan_04_1236,59.9492656153,MP-Perception Experiment,xx25w20,
184,vcgpdm_dyn(35)-lvm(30)_final(8).webm,False,left,1,training(1).webm,0,24,24,68,,,,,,,,12:55:58:131,12:55:58:853,12:56:01:856,left,12:56:02:324,,2013_Jan_04_1236,59.9492656153,MP-Perception Experiment,xx25w20,
185,training(22).webm,True,right,1,tmp_numprim(5)_final(4).webm,0,25,25,7,,,,,,,,12:56:03:138,12:56:03:825,12:56:06:827,right,12:56:07:511,,2013_Jan_04_1236,59.9492656153,MP-Perception Experiment,xx25w20,
186,training(18).webm,False,right,1,vgpdm_dyn(15)-lvm(5)_final(1).webm,0,26,26,153,,,,,,,,12:56:08:348,12:56:09:012,12:56:12:015,right,12:56:12:699,,2013_Jan_04_1236,59.9492656153,MP-Perception Experiment,xx25w20,
187,training(20).webm,False,right,1,vcgpdm_dyn(35)-lvm(30)_final(3).webm,0,27,27,64,,,,,,,,12:56:13:382,12:56:14:200,12:56:17:202,right,12:56:17:969,,2013_Jan_04_1236,59.9492656153,MP-Perception Experiment,xx25w20,
188,vcgpdm_dyn(10)-lvm(25)_final(1).webm,False,left,1,training(34).webm,0,28,28,22,,,,,,,,12:56:18:824,12:56:19:472,12:56:22:474,left,12:56:22:958,,2013_Jan_04_1236,59.9492656153,MP-Perception Experiment,xx25w20,
189,training(33).webm,True,right,1,dmp_npsi(5)_final(9)_bad.webm,0,29,29,157,,,,,,,,12:56:23:641,12:56:24:459,12:56:27:461,right,12:56:28:212,,2013_Jan_04_1236,59.9492656153,MP-Perception Experiment,xx25w20,
190,vgpdm_dyn(10)-lvm(30)_final(7).webm,True,left,1,training(22).webm,0,30,30,93,,,,,,,,12:56:28:937,12:56:29:713,12:56:32:715,left,12:56:33:249,,2013_Jan_04_1236,59.9492656153,MP-Perception Experiment,xx25w20,
191,map_cgpdm_final(3).webm,True,left,1,training(0).webm,0,31,31,115,,,,,,,,12:56:33:957,12:56:34:751,12:56:37:752,left,12:56:38:053,,2013_Jan_04_1236,59.9492656153,MP-Perception Experiment,xx25w20,
192,training(29).webm,False,right,1,vcgpdm_dyn(35)-lvm(30)_final(9).webm,0,32,32,134,,,,,,,,12:56:38:904,12:56:39:554,12:56:42:556,right,12:56:43:190,,2013_Jan_04_1236,59.9492656153,MP-Perception Experiment,xx25w20,
193,training(3).webm,True,right,1,dmp_npsi(30)_final(1).webm,0,33,33,56,,,,,,,,12:56:43:877,12:56:44:691,12:56:47:694,right,12:56:48:261,,2013_Jan_04_1236,59.9492656153,MP-Perception Experiment,xx25w20,
194,training(14).webm,True,right,1,vcgpdm_dyn(20)-lvm(5)_final(7).webm,0,34,34,119,,,,,,,,12:56:49:111,12:56:49:764,12:56:52:750,left,12:56:53:233,,2013_Jan_04_1236,59.9492656153,MP-Perception Experiment,xx25w20,
195,vgpdm_dyn(30)-lvm(15)_final(7).webm,True,left,1,training(19).webm,0,35,35,6,,,,,,,,12:56:53:918,12:56:54:735,12:56:57:738,left,12:56:58:422,,2013_Jan_04_1236,59.9492656153,MP-Perception Experiment,xx25w20,
196,training(27).webm,False,right,1,map_gpdm_final(5).webm,0,36,36,154,,,,,,,,12:56:59:241,12:56:59:940,12:57:02:926,right,12:57:03:376,,2013_Jan_04_1236,59.9492656153,MP-Perception Experiment,xx25w20,
197,vcgpdm_dyn(25)-lvm(25)_final(0).webm,True,left,1,training(32).webm,0,37,37,90,,,,,,,,12:57:04:059,12:57:04:877,12:57:07:880,left,12:57:08:413,,2013_Jan_04_1236,59.9492656153,MP-Perception Experiment,xx25w20,
198,training(36).webm,True,right,1,vcgpdm_dyn(25)-lvm(15)_final(5).webm,0,38,38,133,,,,,,,,12:57:09:248,12:57:09:914,12:57:12:918,left,12:57:13:285,,2013_Jan_04_1236,59.9492656153,MP-Perception Experiment,xx25w20,
199,training(17).webm,False,right,1,vcgpdm_dyn(15)-lvm(25)_final(9).webm,0,39,39,55,,,,,,,,12:57:13:970,12:57:14:786,12:57:17:788,left,12:57:18:172,,2013_Jan_04_1236,59.9492656153,MP-Perception Experiment,xx25w20,
200,vcgpdm_dyn(25)-lvm(5)_final(6).webm,True,left,1,training(10).webm,0,40,40,3,,,,,,,,12:57:18:946,12:57:19:673,12:57:22:676,left,12:57:23:310,,2013_Jan_04_1236,59.9492656153,MP-Perception Experiment,xx25w20,
201,training(24).webm,False,right,1,vcgpdm_dyn(15)-lvm(25)_final(2).webm,0,41,41,89,,,,,,,,12:57:24:161,12:57:24:811,12:57:27:811,right,12:57:28:245,,2013_Jan_04_1236,59.9492656153,MP-Perception Experiment,xx25w20,
202,training(2).webm,False,right,1,vcgpdm_dyn(20)-lvm(15)_final(5).webm,0,42,42,49,,,,,,,,12:57:29:058,12:57:29:747,12:57:32:750,right,12:57:33:183,,2013_Jan_04_1236,59.9492656153,MP-Perception Experiment,xx25w20,
203,training(25).webm,True,right,1,vcgpdm_dyn(35)-lvm(10)_final(2).webm,0,43,43,14,,,,,,,,12:57:33:869,12:57:34:685,12:57:37:672,right,12:57:38:139,,2013_Jan_04_1236,59.9492656153,MP-Perception Experiment,xx25w20,
204,vcgpdm_dyn(30)-lvm(25)_final(9).webm,False,left,1,training(26).webm,0,44,44,36,,,,,,,,12:57:38:847,12:57:39:640,12:57:42:643,right,12:57:43:310,,2013_Jan_04_1236,59.9492656153,MP-Perception Experiment,xx25w20,
205,training(14).webm,False,right,1,vcgpdm_dyn(15)-lvm(20)_final(0).webm,0,45,45,57,,,,,,,,12:57:43:992,12:57:44:811,12:57:47:814,right,12:57:48:448,,2013_Jan_04_1236,59.9492656153,MP-Perception Experiment,xx25w20,
206,training(35).webm,False,right,1,dmp_npsi(15)_final(8).webm,0,46,46,96,,,,,,,,12:57:49:295,12:57:49:950,12:57:52:952,right,12:57:53:386,,2013_Jan_04_1236,59.9492656153,MP-Perception Experiment,xx25w20,
207,training(8).webm,True,right,1,vgpdm_dyn(20)-lvm(30)_final(3).webm,0,47,47,58,,,,,,,,12:57:54:069,12:57:54:887,12:57:57:889,right,12:57:58:423,,2013_Jan_04_1236,59.9492656153,MP-Perception Experiment,xx25w20,
208,tmp_numprim(5)_final(6).webm,False,left,1,training(20).webm,0,48,48,105,,,,,,,,12:57:59:102,12:57:59:924,12:58:02:943,left,12:58:03:528,,2013_Jan_04_1236,59.9492656153,MP-Perception Experiment,xx25w20,
209,training(2).webm,False,right,1,vcgpdm_dyn(25)-lvm(25)_final(0).webm,0,49,49,46,,,,,,,,12:58:04:205,12:58:05:029,12:58:08:032,right,12:58:08:466,,2013_Jan_04_1236,59.9492656153,MP-Perception Experiment,xx25w20,
210,vgpdm_dyn(20)-lvm(20)_final(3).webm,True,left,1,training(29).webm,0,50,50,141,,,,,,,,12:58:09:148,12:58:09:967,12:58:12:969,left,12:58:13:520,,2013_Jan_04_1236,59.9492656153,MP-Perception Experiment,xx25w20,
211,vcgpdm_dyn(30)-lvm(20)_final(1).webm,True,left,1,training(6).webm,0,51,51,138,,,,,,,,12:58:14:168,12:58:15:021,12:58:18:022,left,12:58:18:355,,2013_Jan_04_1236,59.9492656153,MP-Perception Experiment,xx25w20,
212,vcgpdm_dyn(25)-lvm(20)_final(0).webm,False,left,1,training(0).webm,0,52,52,112,,,,,,,,12:58:19:040,12:58:19:856,12:58:22:860,right,12:58:23:527,,2013_Jan_04_1236,59.9492656153,MP-Perception Experiment,xx25w20,
213,tmp_numprim(3)_final(1).webm,True,left,1,training(4).webm,0,53,53,13,,,,,,,,12:58:24:212,12:58:25:028,12:58:28:031,left,12:58:28:464,,2013_Jan_04_1236,59.9492656153,MP-Perception Experiment,xx25w20,
214,training(22).webm,False,right,1,vgpdm_dyn(15)-lvm(35)_final(0).webm,0,54,54,69,,,,,,,,12:58:29:149,12:58:29:965,12:58:32:953,right,12:58:33:337,,2013_Jan_04_1236,59.9492656153,MP-Perception Experiment,xx25w20,
215,training(26).webm,True,right,1,tmp_numprim(2)_final(0).webm,0,55,55,38,,,,,,,,12:58:34:016,12:58:34:838,12:58:37:840,right,12:58:38:375,,2013_Jan_04_1236,59.9492656153,MP-Perception Experiment,xx25w20,
216,training(6).webm,False,right,1,dmp_npsi(30)_final(8).webm,0,56,56,152,,,,,,,,12:58:39:069,12:58:39:876,12:58:42:879,left,12:58:43:362,,2013_Jan_04_1236,59.9492656153,MP-Perception Experiment,xx25w20,
217,training(12).webm,False,right,1,map_cgpdm_final(1).webm,0,57,57,87,,,,,,,,12:58:44:046,12:58:44:864,12:58:47:866,right,12:58:48:216,,2013_Jan_04_1236,59.9492656153,MP-Perception Experiment,xx25w20,
218,vcgpdm_dyn(20)-lvm(15)_final(3).webm,True,left,1,training(27).webm,0,58,58,16,,,,,,,,12:58:48:902,12:58:49:718,12:58:52:720,left,12:58:53:254,,2013_Jan_04_1236,59.9492656153,MP-Perception Experiment,xx25w20,
219,training(9).webm,True,right,1,vgpdm_dyn(30)-lvm(20)_final(4).webm,0,59,59,104,,,,,,,,12:58:53:931,12:58:54:755,12:58:57:758,left,12:58:58:159,,2013_Jan_04_1236,59.9492656153,MP-Perception Experiment,xx25w20,
220,training(26).webm,False,right,1,vgpdm_dyn(15)-lvm(35)_final(7).webm,0,60,60,149,,,,,,,,12:58:58:844,12:58:59:660,12:59:02:662,left,12:59:03:096,,2013_Jan_04_1236,59.9492656153,MP-Perception Experiment,xx25w20,
221,training(2).webm,False,right,1,vcgpdm_dyn(30)-lvm(20)_final(0).webm,0,61,61,76,,,,,,,,12:59:03:778,12:59:04:597,12:59:07:598,right,12:59:08:048,,2013_Jan_04_1236,59.9492656153,MP-Perception Experiment,xx25w20,
222,vgpdm_dyn(10)-lvm(25)_final(8).webm,True,left,1,training(5).webm,0,62,62,116,,,,,,,,12:59:08:689,12:59:09:549,12:59:12:552,right,12:59:12:952,,2013_Jan_04_1236,59.9492656153,MP-Perception Experiment,xx25w20,
223,vgpdm_dyn(30)-lvm(20)_final(9).webm,False,left,1,training(0).webm,0,63,63,120,,,,,,,,12:59:13:613,12:59:14:454,12:59:17:457,right,12:59:17:892,,2013_Jan_04_1236,59.9492656153,MP-Perception Experiment,xx25w20,
224,training(6).webm,False,right,1,vgpdm_dyn(15)-lvm(20)_final(3)_out_of_screen.webm,0,64,64,2,,,,,,,,12:59:18:711,12:59:19:393,12:59:22:396,right,12:59:22:680,,2013_Jan_04_1236,59.9492656153,MP-Perception Experiment,xx25w20,
225,vcgpdm_dyn(20)-lvm(25)_final(4).webm,True,left,1,training(38).webm,0,65,65,91,,,,,,,,12:59:23:536,12:59:24:181,12:59:27:183,left,12:59:27:550,,2013_Jan_04_1236,59.9492656153,MP-Perception Experiment,xx25w20,
226,vgpdm_dyn(15)-lvm(15)_final(5).webm,True,left,1,training(14).webm,0,66,66,50,,,,,,,,12:59:28:284,12:59:29:051,12:59:32:055,left,12:59:32:822,,2013_Jan_04_1236,59.9492656153,MP-Perception Experiment,xx25w20,
227,vcgpdm_dyn(30)-lvm(20)_final(0).webm,False,left,1,training(39).webm,0,67,67,48,,,,,,,,12:59:33:506,12:59:34:323,12:59:37:326,left,12:59:38:410,,2013_Jan_04_1236,59.9492656153,MP-Perception Experiment,xx25w20,
228,vcgpdm_dyn(30)-lvm(30)_final(9).webm,True,left,1,training(48).webm,0,68,68,11,,,,,,,,12:59:39:284,12:59:39:911,12:59:42:914,right,12:59:43:264,,2013_Jan_04_1236,59.9492656153,MP-Perception Experiment,xx25w20,
229,vcgpdm_dyn(20)-lvm(30)_final(7).webm,False,left,1,training(41).webm,0,69,69,60,,,,,,,,12:59:43:951,12:59:44:765,12:59:47:767,left,12:59:48:469,,2013_Jan_04_1236,59.9492656153,MP-Perception Experiment,xx25w20,
230,training(33).webm,False,right,1,vcgpdm_dyn(5)-lvm(15)_final(2).webm,0,70,70,15,,,,,,,,12:59:49:319,12:59:49:970,12:59:52:973,left,12:59:53:373,,2013_Jan_04_1236,59.9492656153,MP-Perception Experiment,xx25w20,
231,training(0).webm,True,right,1,vcgpdm_dyn(5)-lvm(20)_final(3).webm,0,71,71,28,,,,,,,,12:59:54:060,12:59:54:874,12:59:57:875,right,12:59:58:309,,2013_Jan_04_1236,59.9492656153,MP-Perception Experiment,xx25w20,
232,training(2).webm,False,right,1,tmp_numprim(4)_final(9).webm,0,72,72,43,,,,,,,,12:59:59:160,12:59:59:810,13:00:02:812,right,13:00:03:263,,2013_Jan_04_1236,59.9492656153,MP-Perception Experiment,xx25w20,
233,training(7).webm,False,right,1,dmp_npsi(40)_final(9).webm,0,73,73,61,,,,,,,,13:00:03:902,13:00:04:764,13:00:07:767,left,13:00:08:103,,2013_Jan_04_1236,59.9492656153,MP-Perception Experiment,xx25w20,
234,training(17).webm,False,right,1,vgpdm_dyn(10)-lvm(15)_final(4).webm,0,74,74,23,,,,,,,,13:00:08:916,13:00:09:604,13:00:12:606,right,13:00:13:123,,2013_Jan_04_1236,59.9492656153,MP-Perception Experiment,xx25w20,
235,vcgpdm_dyn(30)-lvm(5)_final(9).webm,False,left,1,training(11).webm,0,75,75,40,,,,,,,,13:00:13:807,13:00:14:624,13:00:17:627,left,13:00:18:044,,2013_Jan_04_1236,59.9492656153,MP-Perception Experiment,xx25w20,
236,vgpdm_dyn(30)-lvm(15)_final(2).webm,True,left,1,training(41).webm,0,76,76,29,,,,,,,,13:00:18:726,13:00:19:545,13:00:22:548,left,13:00:22:981,,2013_Jan_04_1236,59.9492656153,MP-Perception Experiment,xx25w20,
237,vgpdm_dyn(30)-lvm(15)_final(0).webm,False,left,1,training(48).webm,0,77,77,132,,,,,,,,13:00:23:654,13:00:24:483,13:00:27:486,left,13:00:27:819,,2013_Jan_04_1236,59.9492656153,MP-Perception Experiment,xx25w20,
238,vgpdm_dyn(35)-lvm(25)_final(6).webm,True,left,1,training(40).webm,0,78,78,62,,,,,,,,13:00:28:545,13:00:29:321,13:00:32:323,left,13:00:32:640,,2013_Jan_04_1236,59.9492656153,MP-Perception Experiment,xx25w20,
239,training(6).webm,True,right,1,dmp_npsi(25)_final(1).webm,0,79,79,155,,,,,,,,13:00:33:330,13:00:34:141,13:00:37:144,right,13:00:37:477,,2013_Jan_04_1236,59.9492656153,MP-Perception Experiment,xx25w20,
240,training(40).webm,False,right,1,vgpdm_dyn(30)-lvm(5)_final(7).webm,0,80,80,139,,,,,,,,13:00:38:324,13:00:38:978,13:00:41:982,right,13:00:42:582,,2013_Jan_04_1236,59.9492656153,MP-Perception Experiment,xx25w20,
241,vgpdm_dyn(25)-lvm(5)_final(3).webm,False,left,1,training(17).webm,0,81,81,94,,,,,,,,13:00:43:290,13:00:44:084,13:00:47:084,left,13:00:47:568,,2013_Jan_04_1236,59.9492656153,MP-Perception Experiment,xx25w20,
242,vgpdm_dyn(20)-lvm(35)_final(3).webm,True,left,1,training(4).webm,0,82,82,128,,,,,,,,13:00:48:249,13:00:49:069,13:00:52:072,left,13:00:52:455,,2013_Jan_04_1236,59.9492656153,MP-Perception Experiment,xx25w20,
243,training(4).webm,False,right,1,vgpdm_dyn(5)-lvm(35)_final(9)_bad.webm,0,83,83,44,,,,,,,,13:00:53:291,13:00:53:956,13:00:56:959,right,13:00:57:292,,2013_Jan_04_1236,59.9492656153,MP-Perception Experiment,xx25w20,
244,training(12).webm,False,right,1,vcgpdm_dyn(10)-lvm(30)_final(2).webm,0,84,84,80,,,,,,,,13:00:58:148,13:00:58:796,13:01:01:782,right,13:01:02:133,,2013_Jan_04_1236,59.9492656153,MP-Perception Experiment,xx25w20,
245,vgpdm_dyn(25)-lvm(5)_final(9).webm,False,left,1,training(38).webm,0,85,85,97,,,,,,,,13:01:02:816,13:01:03:634,13:01:06:636,right,13:01:07:320,,2013_Jan_04_1236,59.9492656153,MP-Perception Experiment,xx25w20,
246,vcgpdm_dyn(20)-lvm(20)_final(5).webm,True,left,1,training(29).webm,0,86,86,1,,,,,,,,13:01:08:173,13:01:08:821,13:01:11:824,right,13:01:12:508,,2013_Jan_04_1236,59.9492656153,MP-Perception Experiment,xx25w20,
247,training(8).webm,False,right,1,vcgpdm_dyn(5)-lvm(25)_final(8).webm,0,87,87,83,,,,,,,,13:01:13:187,13:01:14:009,13:01:17:012,right,13:01:17:362,,2013_Jan_04_1236,59.9492656153,MP-Perception Experiment,xx25w20,
248,training(2).webm,False,right,1,tmp_numprim(4)_final(9).webm,0,88,88,79,,,,,,,,13:01:18:040,13:01:18:864,13:01:21:866,right,13:01:22:216,,2013_Jan_04_1236,59.9492656153,MP-Perception Experiment,xx25w20,
249,vgpdm_dyn(5)-lvm(10)_final(3).webm,False,left,1,training(35).webm,0,89,89,147,,,,,,,,13:01:23:046,13:01:23:718,13:01:26:720,left,13:01:27:004,,2013_Jan_04_1236,59.9492656153,MP-Perception Experiment,xx25w20,
250,vcgpdm_dyn(15)-lvm(30)_final(5).webm,True,left,1,training(40).webm,0,90,90,70,,,,,,,,13:01:27:682,13:01:28:505,13:01:31:507,left,13:01:31:808,,2013_Jan_04_1236,59.9492656153,MP-Perception Experiment,xx25w20,
251,vcgpdm_dyn(5)-lvm(10)_final(3).webm,False,left,1,training(28).webm,0,91,91,41,,,,,,,,13:01:32:655,13:01:33:310,13:01:36:310,left,13:01:36:794,,2013_Jan_04_1236,59.9492656153,MP-Perception Experiment,xx25w20,
252,training(37).webm,False,right,1,vgpdm_dyn(35)-lvm(5)_final(3).webm,0,92,92,18,,,,,,,,13:01:37:473,13:01:38:295,13:01:41:298,left,13:01:41:898,,2013_Jan_04_1236,59.9492656153,MP-Perception Experiment,xx25w20,
253,training(13).webm,True,right,1,vgpdm_dyn(10)-lvm(10)_final(0).webm,0,93,93,143,,,,,,,,13:01:42:579,13:01:43:399,13:01:46:402,left,13:01:47:002,,2013_Jan_04_1236,59.9492656153,MP-Perception Experiment,xx25w20,
254,training(30).webm,True,right,1,vgpdm_dyn(20)-lvm(15)_final(2).webm,0,94,94,111,,,,,,,,13:01:47:714,13:01:48:520,13:01:51:492,left,13:01:51:876,,2013_Jan_04_1236,59.9492656153,MP-Perception Experiment,xx25w20,
255,training(23).webm,True,right,1,vcgpdm_dyn(15)-lvm(35)_final(5).webm,0,95,95,9,,,,,,,,13:01:52:722,13:01:53:377,13:01:56:379,right,13:01:56:796,,2013_Jan_04_1236,59.9492656153,MP-Perception Experiment,xx25w20,
256,training(26).webm,False,right,1,tmp_numprim(7)_final(8).webm,0,96,96,47,,,,,,,,13:01:57:647,13:01:58:297,13:02:01:300,right,13:02:01:734,,2013_Jan_04_1236,59.9492656153,MP-Perception Experiment,xx25w20,
257,training(9).webm,True,right,1,tmp_numprim(2)_final(2).webm,0,97,97,113,,,,,,,,13:02:02:586,13:02:03:235,13:02:06:237,right,13:02:06:638,,2013_Jan_04_1236,59.9492656153,MP-Perception Experiment,xx25w20,
258,training(24).webm,False,right,1,vcgpdm_dyn(25)-lvm(30)_final(0).webm,0,98,98,78,,,,,,,,13:02:07:317,13:02:08:140,13:02:11:159,right,13:02:11:910,,2013_Jan_04_1236,59.9492656153,MP-Perception Experiment,xx25w20,
259,training(33).webm,False,right,1,vcgpdm_dyn(20)-lvm(5)_final(8).webm,0,99,99,101,,,,,,,,13:02:12:590,13:02:13:411,13:02:16:413,right,13:02:17:064,,2013_Jan_04_1236,59.9492656153,MP-Perception Experiment,xx25w20,
260,training(19).webm,True,right,1,vcgpdm_dyn(20)-lvm(30)_final(2).webm,0,100,100,74,,,,,,,,13:02:17:743,13:02:18:565,13:02:21:567,right,13:02:21:968,,2013_Jan_04_1236,59.9492656153,MP-Perception Experiment,xx25w20,
261,training(30).webm,True,right,1,vgpdm_dyn(30)-lvm(10)_final(8).webm,0,101,101,52,,,,,,,,13:02:22:815,13:02:23:469,13:02:26:470,right,13:02:26:804,,2013_Jan_04_1236,59.9492656153,MP-Perception Experiment,xx25w20,
262,vgpdm_dyn(30)-lvm(5)_final(6).webm,True,left,1,training(25).webm,0,102,102,108,,,,,,,,13:02:27:529,13:02:28:305,13:02:31:308,left,13:02:31:691,,2013_Jan_04_1236,59.9492656153,MP-Perception Experiment,xx25w20,
263,training(31).webm,True,right,1,vgpdm_dyn(30)-lvm(20)_final(7).webm,0,103,103,63,,,,,,,,13:02:32:529,13:02:33:209,13:02:36:195,right,13:02:37:329,,2013_Jan_04_1236,59.9492656153,MP-Perception Experiment,xx25w20,
264,vcgpdm_dyn(30)-lvm(15)_final(0).webm,True,left,1,training(27).webm,0,104,104,99,,,,,,,,13:02:38:177,13:02:38:832,13:02:41:818,left,13:02:42:318,,2013_Jan_04_1236,59.9492656153,MP-Perception Experiment,xx25w20,
265,training(5).webm,True,right,1,vgpdm_dyn(25)-lvm(35)_final(8).webm,0,105,105,53,,,,,,,,13:02:43:174,13:02:43:820,13:02:46:823,left,13:02:47:357,,2013_Jan_04_1236,59.9492656153,MP-Perception Experiment,xx25w20,
266,training(26).webm,True,right,1,tmp_numprim(5)_final(4).webm,0,106,106,82,,,,,,,,13:02:48:036,13:02:48:858,13:02:51:860,right,13:02:52:211,,2013_Jan_04_1236,59.9492656153,MP-Perception Experiment,xx25w20,
267,training(9).webm,True,right,1,vgpdm_dyn(30)-lvm(30)_final(1).webm,0,107,107,123,,,,,,,,13:02:53:095,13:02:53:712,13:02:56:714,left,13:02:57:048,,2013_Jan_04_1236,59.9492656153,MP-Perception Experiment,xx25w20,
268,tmp_numprim(10)_final(7).webm,False,left,1,training(12).webm,0,108,108,5,,,,,,,,13:02:57:813,13:02:58:549,13:03:01:552,right,13:03:01:986,,2013_Jan_04_1236,59.9492656153,MP-Perception Experiment,xx25w20,
269,vgpdm_dyn(20)-lvm(35)_final(0).webm,False,left,1,training(6).webm,0,109,109,4,,,,,,,,13:03:02:836,13:03:03:487,13:03:06:490,left,13:03:07:007,,2013_Jan_04_1236,59.9492656153,MP-Perception Experiment,xx25w20,
270,training(34).webm,False,right,1,vcgpdm_dyn(30)-lvm(10)_final(7).webm,0,110,110,0,,,,,,,,13:03:07:856,13:03:08:508,13:03:11:511,right,13:03:11:878,,2013_Jan_04_1236,59.9492656153,MP-Perception Experiment,xx25w20,
271,vcgpdm_dyn(5)-lvm(20)_final(3).webm,True,left,1,training(31).webm,0,111,111,86,,,,,,,,13:03:12:554,13:03:13:379,13:03:16:379,left,13:03:16:713,,2013_Jan_04_1236,59.9492656153,MP-Perception Experiment,xx25w20,
272,vcgpdm_dyn(25)-lvm(10)_final(1).webm,True,left,1,training(8).webm,0,112,112,135,,,,,,,,13:03:17:390,13:03:18:215,13:03:21:218,left,13:03:21:535,,2013_Jan_04_1236,59.9492656153,MP-Perception Experiment,xx25w20,
273,training(21).webm,False,right,1,vgpdm_dyn(10)-lvm(10)_final(8).webm,0,113,113,42,,,,,,,,13:03:22:384,13:03:23:036,13:03:26:038,right,13:03:26:288,,2013_Jan_04_1236,59.9492656153,MP-Perception Experiment,xx25w20,
274,training(6).webm,False,right,1,vgpdm_dyn(5)-lvm(20)_final(1).webm,0,114,114,31,,,,,,,,13:03:27:150,13:03:27:790,13:03:30:777,right,13:03:31:228,,2013_Jan_04_1236,59.9492656153,MP-Perception Experiment,xx25w20,
275,training(21).webm,False,right,1,dmp_npsi(15)_final(7).webm,0,115,115,85,,,,,,,,13:03:32:076,13:03:32:729,13:03:35:732,right,13:03:36:383,,2013_Jan_04_1236,59.9492656153,MP-Perception Experiment,xx25w20,
276,vcgpdm_dyn(35)-lvm(20)_final(3).webm,False,left,1,training(35).webm,0,116,116,39,,,,,,,,13:03:37:055,13:03:37:884,13:03:40:886,left,13:03:41:203,,2013_Jan_04_1236,59.9492656153,MP-Perception Experiment,xx25w20,
277,vcgpdm_dyn(5)-lvm(20)_final(5).webm,True,left,1,training(40).webm,0,117,117,158,,,,,,,,13:03:42:055,13:03:42:704,13:03:45:707,left,13:03:45:974,,2013_Jan_04_1236,59.9492656153,MP-Perception Experiment,xx25w20,
278,dmp_npsi(40)_final(5).webm,False,left,1,training(2).webm,0,118,118,144,,,,,,,,13:03:46:662,13:03:47:475,13:03:50:477,right,13:03:50:878,,2013_Jan_04_1236,59.9492656153,MP-Perception Experiment,xx25w20,
279,vcgpdm_dyn(30)-lvm(5)_final(4).webm,False,left,1,training(41).webm,0,119,119,20,,,,,,,,13:03:51:565,13:03:52:379,13:03:55:382,right,13:03:55:699,,2013_Jan_04_1236,59.9492656153,MP-Perception Experiment,xx25w20,
280,training(26).webm,False,right,1,tmp_numprim(7)_final(7).webm,0,120,120,19,,,,,,,,13:03:56:390,13:03:57:200,13:04:00:203,left,13:04:00:570,,2013_Jan_04_1236,59.9492656153,MP-Perception Experiment,xx25w20,
281,dmp_npsi(45)_final(2).webm,False,left,1,training(18).webm,0,121,121,45,,,,,,,,13:04:01:252,13:04:02:071,13:04:05:073,left,13:04:05:374,,2013_Jan_04_1236,59.9492656153,MP-Perception Experiment,xx25w20,
282,vgpdm_dyn(10)-lvm(5)_final(3).webm,False,left,1,training(19).webm,0,122,122,72,,,,,,,,13:04:06:050,13:04:06:890,13:04:09:876,left,13:04:10:126,,2013_Jan_04_1236,59.9492656153,MP-Perception Experiment,xx25w20,
283,training(14).webm,True,right,1,vcgpdm_dyn(25)-lvm(35)_final(6).webm,0,123,123,127,,,,,,,,13:04:10:805,13:04:11:628,13:04:14:630,right,13:04:15:181,,2013_Jan_04_1236,59.9492656153,MP-Perception Experiment,xx25w20,
284,training(9).webm,False,right,1,vgpdm_dyn(15)-lvm(15)_final(1).webm,0,124,124,33,,,,,,,,13:04:15:867,13:04:16:682,13:04:19:670,right,13:04:20:003,,2013_Jan_04_1236,59.9492656153,MP-Perception Experiment,xx25w20,
285,training(23).webm,True,right,1,vcgpdm_dyn(25)-lvm(20)_final(0).webm,0,125,125,95,,,,,,,,13:04:20:683,13:04:21:504,13:04:24:507,right,13:04:24:857,,2013_Jan_04_1236,59.9492656153,MP-Perception Experiment,xx25w20,
286,vcgpdm_dyn(15)-lvm(20)_final(5).webm,True,left,1,training(4).webm,0,126,126,145,,,,,,,,13:04:25:536,13:04:26:358,13:04:29:362,left,13:04:29:745,,2013_Jan_04_1236,59.9492656153,MP-Perception Experiment,xx25w20,
287,training(22).webm,False,right,1,vcgpdm_dyn(15)-lvm(25)_final(6).webm,0,127,127,114,,,,,,,,13:04:30:595,13:04:31:247,13:04:34:249,right,13:04:34:583,,2013_Jan_04_1236,59.9492656153,MP-Perception Experiment,xx25w20,
288,vcgpdm_dyn(30)-lvm(15)_final(6).webm,False,left,1,training(39).webm,0,128,128,103,,,,,,,,13:04:35:268,13:04:36:084,13:04:39:086,right,13:04:39:553,,2013_Jan_04_1236,59.9492656153,MP-Perception Experiment,xx25w20,
289,vcgpdm_dyn(25)-lvm(30)_final(4).webm,True,left,1,training(37).webm,0,129,129,102,,,,,,,,13:04:40:322,13:04:41:054,13:04:44:057,left,13:04:44:491,,2013_Jan_04_1236,59.9492656153,MP-Perception Experiment,xx25w20,
290,vcgpdm_dyn(20)-lvm(25)_final(3).webm,True,left,1,training(27).webm,0,130,130,150,,,,,,,,13:04:45:175,13:04:45:993,13:04:48:995,left,13:04:49:496,,2013_Jan_04_1236,59.9492656153,MP-Perception Experiment,xx25w20,
291,training(12).webm,False,right,1,vcgpdm_dyn(20)-lvm(35)_final(0).webm,0,131,131,24,,,,,,,,13:04:50:340,13:04:50:997,13:04:53:999,right,13:04:54:417,,2013_Jan_04_1236,59.9492656153,MP-Perception Experiment,xx25w20,
292,training(8).webm,True,right,1,vgpdm_dyn(5)-lvm(15)_final(0).webm,0,132,132,67,,,,,,,,13:04:55:100,13:04:55:917,13:04:58:918,right,13:04:59:235,,2013_Jan_04_1236,59.9492656153,MP-Perception Experiment,xx25w20,
293,training(37).webm,False,right,1,tmp_numprim(9)_final(1).webm,0,133,133,142,,,,,,,,13:04:59:912,13:05:00:736,13:05:03:740,right,13:05:04:157,,2013_Jan_04_1236,59.9492656153,MP-Perception Experiment,xx25w20,
294,vcgpdm_dyn(15)-lvm(20)_final(9).webm,True,left,1,training(25).webm,0,134,134,66,,,,,,,,13:05:04:858,13:05:05:658,13:05:08:646,left,13:05:08:896,,2013_Jan_04_1236,59.9492656153,MP-Perception Experiment,xx25w20,
295,training(16).webm,False,right,1,vgpdm_dyn(35)-lvm(10)_final(5).webm,0,135,135,54,,,,,,,,13:05:09:710,13:05:10:397,13:05:13:399,left,13:05:13:816,,2013_Jan_04_1236,59.9492656153,MP-Perception Experiment,xx25w20,
296,vcgpdm_dyn(25)-lvm(5)_final(7).webm,False,left,1,training(29).webm,0,136,136,27,,,,,,,,13:05:14:501,13:05:15:317,13:05:18:320,left,13:05:18:604,,2013_Jan_04_1236,59.9492656153,MP-Perception Experiment,xx25w20,
297,training(29).webm,True,right,1,dmp_npsi(40)_final(8).webm,0,137,137,30,,,,,,,,13:05:19:293,13:05:20:105,13:05:23:125,left,13:05:23:559,,2013_Jan_04_1236,59.9492656153,MP-Perception Experiment,xx25w20,
298,training(29).webm,True,right,1,vgpdm_dyn(25)-lvm(35)_final(0).webm,0,138,138,32,,,,,,,,13:05:24:388,13:05:25:060,13:05:28:062,right,13:05:28:346,,2013_Jan_04_1236,59.9492656153,MP-Perception Experiment,xx25w20,
299,vgpdm_dyn(30)-lvm(10)_final(8).webm,False,left,1,training(40).webm,0,139,139,124,,,,,,,,13:05:29:026,13:05:29:847,13:05:32:849,left,13:05:33:133,,2013_Jan_04_1236,59.9492656153,MP-Perception Experiment,xx25w20,
300,training(7).webm,False,right,1,map_gpdm_final(6).webm,0,140,140,10,,,,,,,,13:05:33:816,13:05:34:634,13:05:37:637,right,13:05:38:021,,2013_Jan_04_1236,59.9492656153,MP-Perception Experiment,xx25w20,
301,vcgpdm_dyn(30)-lvm(5)_final(6).webm,True,left,1,training(27).webm,0,141,141,51,,,,,,,,13:05:38:708,13:05:39:522,13:05:42:525,left,13:05:43:092,,2013_Jan_04_1236,59.9492656153,MP-Perception Experiment,xx25w20,
302,dmp_npsi(45)_final(9).webm,True,left,1,training(30).webm,0,142,142,117,,,,,,,,13:05:43:833,13:05:44:593,13:05:47:594,left,13:05:47:911,,2013_Jan_04_1236,59.9492656153,MP-Perception Experiment,xx25w20,
303,training(35).webm,True,right,1,vcgpdm_dyn(35)-lvm(5)_final(9).webm,0,143,143,88,,,,,,,,13:05:48:762,13:05:49:412,13:05:52:414,left,13:05:52:648,,2013_Jan_04_1236,59.9492656153,MP-Perception Experiment,xx25w20,
304,training(32).webm,True,right,1,vcgpdm_dyn(30)-lvm(10)_final(4).webm,0,144,144,8,,,,,,,,13:05:53:482,13:05:54:149,13:05:57:153,right,13:05:57:469,,2013_Jan_04_1236,59.9492656153,MP-Perception Experiment,xx25w20,
305,training(20).webm,False,right,1,vgpdm_dyn(35)-lvm(25)_final(4).webm,0,145,145,126,,,,,,,,13:05:58:150,13:05:58:971,13:06:01:958,right,13:06:02:309,,2013_Jan_04_1236,59.9492656153,MP-Perception Experiment,xx25w20,
306,vgpdm_dyn(30)-lvm(35)_final(0).webm,True,left,1,training(41).webm,0,146,146,21,,,,,,,,13:06:02:995,13:06:03:810,13:06:06:812,left,13:06:07:229,,2013_Jan_04_1236,59.9492656153,MP-Perception Experiment,xx25w20,
307,training(24).webm,False,right,1,vgpdm_dyn(30)-lvm(15)_final(7).webm,0,147,147,110,,,,,,,,13:06:07:908,13:06:08:730,13:06:11:733,right,13:06:12:250,,2013_Jan_04_1236,59.9492656153,MP-Perception Experiment,xx25w20,
308,training(2).webm,False,right,1,dmp_npsi(20)_final(6).webm,0,148,148,107,,,,,,,,13:06:12:960,13:06:13:752,13:06:16:754,right,13:06:17:122,,2013_Jan_04_1236,59.9492656153,MP-Perception Experiment,xx25w20,
309,training(17).webm,True,right,1,vcgpdm_dyn(10)-lvm(15)_final(5).webm,0,149,149,77,,,,,,,,13:06:17:808,13:06:18:623,13:06:21:625,right,13:06:22:075,,2013_Jan_04_1236,59.9492656153,MP-Perception Experiment,xx25w20,
310,training(17).webm,True,right,1,vcgpdm_dyn(5)-lvm(15)_final(4).webm,0,150,150,146,,,,,,,,13:06:22:758,13:06:23:577,13:06:26:579,left,13:06:27:130,,2013_Jan_04_1236,59.9492656153,MP-Perception Experiment,xx25w20,
311,vgpdm_dyn(35)-lvm(20)_final(3)_out_of_screen.webm,True,left,1,training(26).webm,0,151,151,75,,,,,,,,13:06:27:821,13:06:28:631,13:06:31:634,left,13:06:32:268,,2013_Jan_04_1236,59.9492656153,MP-Perception Experiment,xx25w20,
312,training(36).webm,False,right,1,dmp_npsi(50)_final(1).webm,0,152,152,106,,,,,,,,13:06:32:997,13:06:33:769,13:06:36:770,right,13:06:37:170,,2013_Jan_04_1236,59.9492656153,MP-Perception Experiment,xx25w20,
313,training(40).webm,False,right,1,vcgpdm_dyn(15)-lvm(10)_final(4).webm,0,153,153,151,,,,,,,,13:06:37:983,13:06:38:671,13:06:41:674,left,13:06:41:941,,2013_Jan_04_1236,59.9492656153,MP-Perception Experiment,xx25w20,
314,training(16).webm,False,right,1,vgpdm_dyn(20)-lvm(5)_final(1).webm,0,154,154,92,,,,,,,,13:06:42:622,13:06:43:442,13:06:46:444,right,13:06:46:728,,2013_Jan_04_1236,59.9492656153,MP-Perception Experiment,xx25w20,
315,dmp_npsi(35)_final(7).webm,False,left,1,training(38).webm,0,155,155,121,,,,,,,,13:06:47:412,13:06:48:232,13:06:51:218,right,13:06:51:551,,2013_Jan_04_1236,59.9492656153,MP-Perception Experiment,xx25w20,
316,vgpdm_dyn(10)-lvm(25)_final(6).webm,False,left,1,training(23).webm,0,156,156,131,,,,,,,,13:06:52:371,13:06:53:052,13:06:56:055,left,13:06:56:856,,2013_Jan_04_1236,59.9492656153,MP-Perception Experiment,xx25w20,
317,training(0).webm,True,right,1,vgpdm_dyn(35)-lvm(25)_final(1).webm,0,157,157,109,,,,,,,,13:06:57:537,13:06:58:357,13:07:01:359,right,13:07:01:710,,2013_Jan_04_1236,59.9492656153,MP-Perception Experiment,xx25w20,
318,training(15).webm,False,right,1,vgpdm_dyn(5)-lvm(20)_final(2).webm,0,158,158,71,,,,,,,,13:07:02:563,13:07:03:211,13:07:06:231,right,13:07:06:548,,2013_Jan_04_1236,59.9492656153,MP-Perception Experiment,xx25w20,
319,training(3).webm,False,right,2,map_cgpdm_final(7).webm,0,0,0,59,,,,,,,,13:09:17:066,13:09:17:892,13:09:20:880,right,13:09:21:247,,2013_Jan_04_1236,59.9492656153,MP-Perception Experiment,xx25w20,
320,training(13).webm,False,right,2,vgpdm_dyn(10)-lvm(5)_final(7).webm,0,1,1,90,,,,,,,,13:09:21:934,13:09:22:748,13:09:25:751,right,13:09:26:218,,2013_Jan_04_1236,59.9492656153,MP-Perception Experiment,xx25w20,
321,vgpdm_dyn(30)-lvm(20)_final(4).webm,True,left,2,training(19).webm,0,2,2,18,,,,,,,,13:09:26:898,13:09:27:736,13:09:30:722,left,13:09:31:222,,2013_Jan_04_1236,59.9492656153,MP-Perception Experiment,xx25w20,
322,vgpdm_dyn(35)-lvm(30)_final(6).webm,True,left,2,training(6).webm,0,3,3,50,,,,,,,,13:09:31:908,13:09:32:724,13:09:35:726,left,13:09:36:060,,2013_Jan_04_1236,59.9492656153,MP-Perception Experiment,xx25w20,
323,map_cgpdm_final(5).webm,False,left,2,training(24).webm,0,4,4,72,,,,,,,,13:09:36:746,13:09:37:561,13:09:40:580,left,13:09:40:897,,2013_Jan_04_1236,59.9492656153,MP-Perception Experiment,xx25w20,
324,vgpdm_dyn(20)-lvm(15)_final(7).webm,False,left,2,training(31).webm,0,5,5,158,,,,,,,,13:09:41:643,13:09:42:398,13:09:45:402,left,13:09:45:702,,2013_Jan_04_1236,59.9492656153,MP-Perception Experiment,xx25w20,
325,vcgpdm_dyn(10)-lvm(10)_final(2).webm,True,left,2,training(12).webm,0,6,6,35,,,,,,,,13:09:46:415,13:09:47:203,13:09:50:205,left,13:09:51:290,,2013_Jan_04_1236,59.9492656153,MP-Perception Experiment,xx25w20,
326,tmp_numprim(3)_final(9).webm,False,left,2,training(13).webm,0,7,7,48,,,,,,,,13:09:52:111,13:09:52:791,13:09:55:793,left,13:09:56:127,,2013_Jan_04_1236,59.9492656153,MP-Perception Experiment,xx25w20,
327,training(25).webm,True,right,2,vgpdm_dyn(30)-lvm(25)_final(9).webm,0,8,8,135,,,,,,,,13:09:56:824,13:09:57:643,13:10:00:646,left,13:10:01:013,,2013_Jan_04_1236,59.9492656153,MP-Perception Experiment,xx25w20,
328,training(16).webm,True,right,2,vcgpdm_dyn(20)-lvm(10)_final(5).webm,0,9,9,68,,,,,,,,13:10:01:829,13:10:02:515,13:10:05:517,right,13:10:06:351,,2013_Jan_04_1236,59.9492656153,MP-Perception Experiment,xx25w20,
329,vgpdm_dyn(10)-lvm(20)_final(2).webm,True,left,2,training(39).webm,0,10,10,94,,,,,,,,13:10:07:035,13:10:07:852,13:10:10:857,left,13:10:11:190,,2013_Jan_04_1236,59.9492656153,MP-Perception Experiment,xx25w20,
330,training(20).webm,False,right,2,vgpdm_dyn(20)-lvm(30)_final(3).webm,0,11,11,61,,,,,,,,13:10:11:872,13:10:12:691,13:10:15:694,left,13:10:16:177,,2013_Jan_04_1236,59.9492656153,MP-Perception Experiment,xx25w20,
331,vgpdm_dyn(20)-lvm(30)_final(5).webm,True,left,2,training(6).webm,0,12,12,0,,,,,,,,13:10:16:882,13:10:17:680,13:10:20:682,left,13:10:21:349,,2013_Jan_04_1236,59.9492656153,MP-Perception Experiment,xx25w20,
332,training(22).webm,True,right,2,vgpdm_dyn(30)-lvm(5)_final(9).webm,0,13,13,113,,,,,,,,13:10:22:200,13:10:22:850,13:10:25:853,right,13:10:26:270,,2013_Jan_04_1236,59.9492656153,MP-Perception Experiment,xx25w20,
333,tmp_numprim(9)_final(9).webm,False,left,2,training(4).webm,0,14,14,51,,,,,,,,13:10:26:953,13:10:27:771,13:10:30:774,right,13:10:31:608,,2013_Jan_04_1236,59.9492656153,MP-Perception Experiment,xx25w20,
334,training(17).webm,True,right,2,vcgpdm_dyn(10)-lvm(10)_final(9).webm,0,15,15,106,,,,,,,,13:10:32:287,13:10:33:125,13:10:36:129,right,13:10:36:663,,2013_Jan_04_1236,59.9492656153,MP-Perception Experiment,xx25w20,
335,training(32).webm,True,right,2,vcgpdm_dyn(35)-lvm(10)_final(0).webm,0,16,16,101,,,,,,,,13:10:37:342,13:10:38:164,13:10:41:166,right,13:10:41:683,,2013_Jan_04_1236,59.9492656153,MP-Perception Experiment,xx25w20,
336,training(41).webm,True,right,2,dmp_npsi(50)_final(6).webm,0,17,17,12,,,,,,,,13:10:42:368,13:10:43:184,13:10:46:185,right,13:10:46:552,,2013_Jan_04_1236,59.9492656153,MP-Perception Experiment,xx25w20,
337,training(13).webm,True,right,2,vgpdm_dyn(30)-lvm(20)_final(7).webm,0,18,18,137,,,,,,,,13:10:47:228,13:10:48:053,13:10:51:056,right,13:10:51:389,,2013_Jan_04_1236,59.9492656153,MP-Perception Experiment,xx25w20,
338,vgpdm_dyn(25)-lvm(30)_final(5).webm,True,left,2,training(8).webm,0,19,19,57,,,,,,,,13:10:52:072,13:10:52:892,13:10:55:894,left,13:10:56:027,,2013_Jan_04_1236,59.9492656153,MP-Perception Experiment,xx25w20,
339,training(31).webm,False,right,2,vcgpdm_dyn(15)-lvm(10)_final(0).webm,0,20,20,22,,,,,,,,13:10:56:716,13:10:57:529,13:11:00:531,right,13:11:00:933,,2013_Jan_04_1236,59.9492656153,MP-Perception Experiment,xx25w20,
340,training(25).webm,True,right,2,vcgpdm_dyn(10)-lvm(30)_final(3).webm,0,21,21,41,,,,,,,,13:11:01:615,13:11:02:434,13:11:05:437,right,13:11:06:004,,2013_Jan_04_1236,59.9492656153,MP-Perception Experiment,xx25w20,
341,vcgpdm_dyn(35)-lvm(5)_final(4).webm,True,left,2,training(9).webm,0,22,22,83,,,,,,,,13:11:06:686,13:11:07:505,13:11:10:509,left,13:11:10:775,,2013_Jan_04_1236,59.9492656153,MP-Perception Experiment,xx25w20,
342,training(13).webm,True,right,2,vgpdm_dyn(10)-lvm(30)_final(8).webm,0,23,23,4,,,,,,,,13:11:11:459,13:11:12:277,13:11:15:279,right,13:11:16:747,,2013_Jan_04_1236,59.9492656153,MP-Perception Experiment,xx25w20,
343,vcgpdm_dyn(35)-lvm(15)_final(3)_out_of_screen.webm,False,left,2,training(16).webm,0,24,24,5,,,,,,,,13:11:17:460,13:11:18:248,13:11:21:250,left,13:11:21:701,,2013_Jan_04_1236,59.9492656153,MP-Perception Experiment,xx25w20,
344,vcgpdm_dyn(20)-lvm(35)_final(8).webm,True,left,2,training(32).webm,0,25,25,13,,,,,,,,13:11:22:384,13:11:23:202,13:11:26:204,left,13:11:26:538,,2013_Jan_04_1236,59.9492656153,MP-Perception Experiment,xx25w20,
345,vgpdm_dyn(30)-lvm(35)_final(8).webm,True,left,2,training(7).webm,0,26,26,14,,,,,,,,13:11:27:223,13:11:28:040,13:11:31:043,left,13:11:31:410,,2013_Jan_04_1236,59.9492656153,MP-Perception Experiment,xx25w20,
346,training(5).webm,False,right,2,vcgpdm_dyn(10)-lvm(35)_final(9).webm,0,27,27,122,,,,,,,,13:11:32:085,13:11:32:911,13:11:35:914,left,13:11:36:179,,2013_Jan_04_1236,59.9492656153,MP-Perception Experiment,xx25w20,
347,vcgpdm_dyn(30)-lvm(25)_final(6).webm,True,left,2,training(37).webm,0,28,28,150,,,,,,,,13:11:36:865,13:11:37:680,13:11:40:682,left,13:11:41:016,,2013_Jan_04_1236,59.9492656153,MP-Perception Experiment,xx25w20,
348,map_cgpdm_final(9).webm,True,left,2,training(39).webm,0,29,29,55,,,,,,,,13:11:41:740,13:11:42:517,13:11:45:520,left,13:11:45:871,,2013_Jan_04_1236,59.9492656153,MP-Perception Experiment,xx25w20,
349,dmp_npsi(45)_final(9).webm,False,left,2,training(23).webm,0,30,30,3,,,,,,,,13:11:46:551,13:11:47:372,13:11:50:376,right,13:11:50:993,,2013_Jan_04_1236,59.9492656153,MP-Perception Experiment,xx25w20,
350,training(16).webm,False,right,2,vgpdm_dyn(35)-lvm(10)_final(7).webm,0,31,31,111,,,,,,,,13:11:51:820,13:11:52:494,13:11:55:497,right,13:11:55:897,,2013_Jan_04_1236,59.9492656153,MP-Perception Experiment,xx25w20,
351,training(16).webm,True,right,2,vcgpdm_dyn(20)-lvm(25)_final(3).webm,0,32,32,66,,,,,,,,13:11:56:576,13:11:57:398,13:12:00:401,right,13:12:00:751,,2013_Jan_04_1236,59.9492656153,MP-Perception Experiment,xx25w20,
352,training(23).webm,True,right,2,vcgpdm_dyn(15)-lvm(15)_final(8).webm,0,33,33,24,,,,,,,,13:12:01:432,13:12:02:252,13:12:05:256,right,13:12:05:573,,2013_Jan_04_1236,59.9492656153,MP-Perception Experiment,xx25w20,
353,vgpdm_dyn(20)-lvm(20)_final(8).webm,False,left,2,training(24).webm,0,34,34,96,,,,,,,,13:12:06:256,13:12:07:074,13:12:10:093,right,13:12:10:727,,2013_Jan_04_1236,59.9492656153,MP-Perception Experiment,xx25w20,
354,vcgpdm_dyn(20)-lvm(15)_final(6).webm,True,left,2,training(48).webm,0,35,35,67,,,,,,,,13:12:11:547,13:12:12:228,13:12:15:247,right,13:12:15:814,,2013_Jan_04_1236,59.9492656153,MP-Perception Experiment,xx25w20,
355,training(6).webm,True,right,2,vgpdm_dyn(25)-lvm(30)_final(2).webm,0,36,36,155,,,,,,,,13:12:16:497,13:12:17:315,13:12:20:319,right,13:12:20:569,,2013_Jan_04_1236,59.9492656153,MP-Perception Experiment,xx25w20,
356,training(27).webm,True,right,2,vcgpdm_dyn(15)-lvm(5)_final(5).webm,0,37,37,8,,,,,,,,13:12:21:252,13:12:22:070,13:12:25:090,right,13:12:25:390,,2013_Jan_04_1236,59.9492656153,MP-Perception Experiment,xx25w20,
357,training(10).webm,True,right,2,vcgpdm_dyn(35)-lvm(30)_final(6).webm,0,38,38,60,,,,,,,,13:12:26:098,13:12:26:906,13:12:29:892,right,13:12:30:292,,2013_Jan_04_1236,59.9492656153,MP-Perception Experiment,xx25w20,
358,training(6).webm,True,right,2,map_cgpdm_final(2).webm,0,39,39,132,,,,,,,,13:12:31:128,13:12:31:793,13:12:34:796,right,13:12:35:112,,2013_Jan_04_1236,59.9492656153,MP-Perception Experiment,xx25w20,
359,vgpdm_dyn(20)-lvm(5)_final(5).webm,False,left,2,training(35).webm,0,40,40,147,,,,,,,,13:12:35:798,13:12:36:614,13:12:39:602,left,13:12:40:053,,2013_Jan_04_1236,59.9492656153,MP-Perception Experiment,xx25w20,
360,vcgpdm_dyn(5)-lvm(5)_final(2).webm,True,left,2,training(18).webm,0,41,41,129,,,,,,,,13:12:40:780,13:12:41:554,13:12:44:556,left,13:12:44:940,,2013_Jan_04_1236,59.9492656153,MP-Perception Experiment,xx25w20,
361,training(41).webm,False,right,2,vgpdm_dyn(25)-lvm(10)_final(3)_out_of_screen.webm,0,42,42,70,,,,,,,,13:12:45:624,13:12:46:441,13:12:49:444,right,13:12:49:827,,2013_Jan_04_1236,59.9492656153,MP-Perception Experiment,xx25w20,
362,training(41).webm,True,right,2,vgpdm_dyn(35)-lvm(10)_final(8).webm,0,43,43,37,,,,,,,,13:12:50:510,13:12:51:328,13:12:54:347,right,13:12:54:798,,2013_Jan_04_1236,59.9492656153,MP-Perception Experiment,xx25w20,
363,training(31).webm,True,right,2,vgpdm_dyn(15)-lvm(35)_final(8).webm,0,44,44,43,,,,,,,,13:12:55:473,13:12:56:300,13:12:59:303,right,13:12:59:903,,2013_Jan_04_1236,59.9492656153,MP-Perception Experiment,xx25w20,
364,vgpdm_dyn(35)-lvm(30)_final(2).webm,True,left,2,training(39).webm,0,45,45,20,,,,,,,,13:13:00:589,13:13:01:421,13:13:04:406,left,13:13:04:774,,2013_Jan_04_1236,59.9492656153,MP-Perception Experiment,xx25w20,
365,dmp_npsi(15)_final(0).webm,False,left,2,training(38).webm,0,46,46,109,,,,,,,,13:13:05:451,13:13:06:275,13:13:09:294,left,13:13:09:744,,2013_Jan_04_1236,59.9492656153,MP-Perception Experiment,xx25w20,
366,training(26).webm,True,right,2,vgpdm_dyn(30)-lvm(35)_final(8).webm,0,47,47,142,,,,,,,,13:13:10:422,13:13:11:245,13:13:14:249,left,13:13:14:549,,2013_Jan_04_1236,59.9492656153,MP-Perception Experiment,xx25w20,
367,vgpdm_dyn(10)-lvm(10)_final(3).webm,True,left,2,training(40).webm,0,48,48,30,,,,,,,,13:13:15:229,13:13:16:050,13:13:19:051,left,13:13:19:351,,2013_Jan_04_1236,59.9492656153,MP-Perception Experiment,xx25w20,
368,vgpdm_dyn(30)-lvm(30)_final(9).webm,False,left,2,training(5).webm,0,49,49,123,,,,,,,,13:13:20:036,13:13:20:852,13:13:23:855,left,13:13:24:288,,2013_Jan_04_1236,59.9492656153,MP-Perception Experiment,xx25w20,
369,training(18).webm,False,right,2,vgpdm_dyn(10)-lvm(30)_final(6).webm,0,50,50,131,,,,,,,,13:13:25:107,13:13:25:790,13:13:28:792,right,13:13:29:343,,2013_Jan_04_1236,59.9492656153,MP-Perception Experiment,xx25w20,
370,tmp_numprim(2)_final(5).webm,True,left,2,training(26).webm,0,51,51,40,,,,,,,,13:13:30:202,13:13:30:846,13:13:33:832,left,13:13:34:516,,2013_Jan_04_1236,59.9492656153,MP-Perception Experiment,xx25w20,
371,training(11).webm,False,right,2,vgpdm_dyn(15)-lvm(35)_final(6).webm,0,52,52,11,,,,,,,,13:13:35:204,13:13:36:017,13:13:39:020,right,13:13:39:337,,2013_Jan_04_1236,59.9492656153,MP-Perception Experiment,xx25w20,
372,tmp_numprim(7)_final(2).webm,False,left,2,training(10).webm,0,53,53,102,,,,,,,,13:13:40:188,13:13:40:838,13:13:43:840,left,13:13:44:241,,2013_Jan_04_1236,59.9492656153,MP-Perception Experiment,xx25w20,
373,dmp_npsi(50)_final(3).webm,True,left,2,training(28).webm,0,54,54,154,,,,,,,,13:13:44:990,13:13:45:742,13:13:48:745,left,13:13:49:463,,2013_Jan_04_1236,59.9492656153,MP-Perception Experiment,xx25w20,
374,vcgpdm_dyn(35)-lvm(30)_final(9).webm,True,left,2,training(37).webm,0,55,55,151,,,,,,,,13:13:50:141,13:13:50:964,13:13:53:966,left,13:13:54:333,,2013_Jan_04_1236,59.9492656153,MP-Perception Experiment,xx25w20,
375,training(18).webm,False,right,2,vgpdm_dyn(5)-lvm(30)_final(4).webm,0,56,56,27,,,,,,,,13:13:55:185,13:13:55:834,13:13:58:837,right,13:13:59:270,,2013_Jan_04_1236,59.9492656153,MP-Perception Experiment,xx25w20,
376,training(13).webm,True,right,2,vgpdm_dyn(35)-lvm(25)_final(9).webm,0,57,57,23,,,,,,,,13:14:00:121,13:14:00:772,13:14:03:774,right,13:14:04:225,,2013_Jan_04_1236,59.9492656153,MP-Perception Experiment,xx25w20,
377,vcgpdm_dyn(30)-lvm(20)_final(0).webm,True,left,2,training(3).webm,0,58,58,93,,,,,,,,13:14:04:906,13:14:05:727,13:14:08:727,right,13:14:09:294,,2013_Jan_04_1236,59.9492656153,MP-Perception Experiment,xx25w20,
378,vcgpdm_dyn(5)-lvm(25)_final(1).webm,True,left,2,training(32).webm,0,59,59,47,,,,,,,,13:14:10:067,13:14:10:796,13:14:13:798,left,13:14:14:365,,2013_Jan_04_1236,59.9492656153,MP-Perception Experiment,xx25w20,
379,vgpdm_dyn(35)-lvm(5)_final(5).webm,False,left,2,training(7).webm,0,60,60,49,,,,,,,,13:14:15:044,13:14:15:866,13:14:18:854,left,13:14:19:371,,2013_Jan_04_1236,59.9492656153,MP-Perception Experiment,xx25w20,
380,tmp_numprim(6)_final(4).webm,False,left,2,training(13).webm,0,61,61,77,,,,,,,,13:14:20:057,13:14:20:872,13:14:23:892,right,13:14:24:376,,2013_Jan_04_1236,59.9492656153,MP-Perception Experiment,xx25w20,
381,training(38).webm,False,right,2,vgpdm_dyn(25)-lvm(35)_final(4).webm,0,62,62,17,,,,,,,,13:14:25:056,13:14:25:877,13:14:28:880,right,13:14:29:247,,2013_Jan_04_1236,59.9492656153,MP-Perception Experiment,xx25w20,
382,training(9).webm,True,right,2,vcgpdm_dyn(30)-lvm(25)_final(1).webm,0,63,63,79,,,,,,,,13:14:30:101,13:14:30:748,13:14:33:750,right,13:14:34:051,,2013_Jan_04_1236,59.9492656153,MP-Perception Experiment,xx25w20,
383,vgpdm_dyn(20)-lvm(10)_final(3)_out_of_screen.webm,True,left,2,training(26).webm,0,64,64,140,,,,,,,,13:14:34:892,13:14:35:552,13:14:38:554,left,13:14:39:188,,2013_Jan_04_1236,59.9492656153,MP-Perception Experiment,xx25w20,
384,vcgpdm_dyn(25)-lvm(30)_final(4).webm,True,left,2,training(21).webm,0,65,65,108,,,,,,,,13:14:39:871,13:14:40:690,13:14:43:692,right,13:14:44:310,,2013_Jan_04_1236,59.9492656153,MP-Perception Experiment,xx25w20,
385,training(41).webm,False,right,2,vgpdm_dyn(35)-lvm(30)_final(2).webm,0,66,66,146,,,,,,,,13:14:44:990,13:14:45:811,13:14:48:814,left,13:14:49:281,,2013_Jan_04_1236,59.9492656153,MP-Perception Experiment,xx25w20,
386,vcgpdm_dyn(30)-lvm(20)_final(1).webm,True,left,2,training(39).webm,0,67,67,153,,,,,,,,13:14:49:957,13:14:50:782,13:14:53:784,left,13:14:54:418,,2013_Jan_04_1236,59.9492656153,MP-Perception Experiment,xx25w20,
387,training(1).webm,False,right,2,vgpdm_dyn(10)-lvm(15)_final(7).webm,0,68,68,98,,,,,,,,13:14:55:268,13:14:55:919,13:14:58:921,right,13:14:59:621,,2013_Jan_04_1236,59.9492656153,MP-Perception Experiment,xx25w20,
388,training(30).webm,True,right,2,vcgpdm_dyn(20)-lvm(10)_final(7).webm,0,69,69,104,,,,,,,,13:15:00:300,13:15:01:123,13:15:04:125,right,13:15:04:492,,2013_Jan_04_1236,59.9492656153,MP-Perception Experiment,xx25w20,
389,map_gpdm_final(1).webm,False,left,2,training(6).webm,0,70,70,126,,,,,,,,13:15:05:262,13:15:05:993,13:15:08:996,left,13:15:09:496,,2013_Jan_04_1236,59.9492656153,MP-Perception Experiment,xx25w20,
390,vcgpdm_dyn(15)-lvm(5)_final(7).webm,True,left,2,training(6).webm,0,71,71,130,,,,,,,,13:15:10:176,13:15:10:999,13:15:13:985,right,13:15:14:452,,2013_Jan_04_1236,59.9492656153,MP-Perception Experiment,xx25w20,
391,training(2).webm,False,right,2,vcgpdm_dyn(20)-lvm(20)_final(0).webm,0,72,72,53,,,,,,,,13:15:15:309,13:15:15:954,13:15:18:956,right,13:15:19:424,,2013_Jan_04_1236,59.9492656153,MP-Perception Experiment,xx25w20,
392,training(17).webm,False,right,2,vcgpdm_dyn(10)-lvm(5)_final(5).webm,0,73,73,10,,,,,,,,13:15:20:277,13:15:20:925,13:15:23:927,right,13:15:24:294,,2013_Jan_04_1236,59.9492656153,MP-Perception Experiment,xx25w20,
393,training(16).webm,True,right,2,dmp_npsi(45)_final(5).webm,0,74,74,89,,,,,,,,13:15:25:147,13:15:25:795,13:15:28:814,left,13:15:29:465,,2013_Jan_04_1236,59.9492656153,MP-Perception Experiment,xx25w20,
394,training(17).webm,True,right,2,vgpdm_dyn(5)-lvm(10)_final(2).webm,0,75,75,26,,,,,,,,13:15:30:142,13:15:30:966,13:15:33:970,right,13:15:34:353,,2013_Jan_04_1236,59.9492656153,MP-Perception Experiment,xx25w20,
395,training(27).webm,True,right,2,vcgpdm_dyn(20)-lvm(5)_final(1).webm,0,76,76,34,,,,,,,,13:15:35:190,13:15:35:854,13:15:38:857,right,13:15:39:257,,2013_Jan_04_1236,59.9492656153,MP-Perception Experiment,xx25w20,
396,training(7).webm,False,right,2,vgpdm_dyn(20)-lvm(5)_final(4).webm,0,77,77,54,,,,,,,,13:15:40:086,13:15:40:758,13:15:43:761,right,13:15:44:078,,2013_Jan_04_1236,59.9492656153,MP-Perception Experiment,xx25w20,
397,training(1).webm,False,right,2,vgpdm_dyn(15)-lvm(5)_final(6).webm,0,78,78,65,,,,,,,,13:15:44:754,13:15:45:579,13:15:48:580,right,13:15:49:130,,2013_Jan_04_1236,59.9492656153,MP-Perception Experiment,xx25w20,
398,tmp_numprim(2)_final(3).webm,False,left,2,training(29).webm,0,79,79,157,,,,,,,,13:15:49:808,13:15:50:632,13:15:53:635,left,13:15:54:118,,2013_Jan_04_1236,59.9492656153,MP-Perception Experiment,xx25w20,
399,training(24).webm,True,right,2,dmp_npsi(45)_final(0).webm,0,80,80,114,,,,,,,,13:15:54:801,13:15:55:620,13:15:58:607,left,13:15:59:091,,2013_Jan_04_1236,59.9492656153,MP-Perception Experiment,xx25w20,
400,training(24).webm,True,right,2,vgpdm_dyn(10)-lvm(35)_final(0).webm,0,81,81,139,,,,,,,,13:15:59:778,13:16:00:592,13:16:03:611,right,13:16:04:062,,2013_Jan_04_1236,59.9492656153,MP-Perception Experiment,xx25w20,
401,vcgpdm_dyn(25)-lvm(10)_final(6).webm,False,left,2,training(22).webm,0,82,82,87,,,,,,,,13:16:04:842,13:16:05:563,13:16:08:566,left,13:16:09:167,,2013_Jan_04_1236,59.9492656153,MP-Perception Experiment,xx25w20,
402,training(5).webm,False,right,2,vgpdm_dyn(25)-lvm(15)_final(3)_out_of_screen.webm,0,83,83,107,,,,,,,,13:16:10:019,13:16:10:668,13:16:13:670,right,13:16:13:987,,2013_Jan_04_1236,59.9492656153,MP-Perception Experiment,xx25w20,
403,training(10).webm,False,right,2,dmp_npsi(25)_final(8).webm,0,84,84,28,,,,,,,,13:16:14:669,13:16:15:488,13:16:18:491,right,13:16:19:041,,2013_Jan_04_1236,59.9492656153,MP-Perception Experiment,xx25w20,
404,vcgpdm_dyn(30)-lvm(15)_final(1).webm,True,left,2,training(29).webm,0,85,85,136,,,,,,,,13:16:19:766,13:16:20:542,13:16:23:545,left,13:16:23:829,,2013_Jan_04_1236,59.9492656153,MP-Perception Experiment,xx25w20,
405,vgpdm_dyn(15)-lvm(25)_final(7).webm,False,left,2,training(27).webm,0,86,86,46,,,,,,,,13:16:24:553,13:16:25:331,13:16:28:333,left,13:16:28:717,,2013_Jan_04_1236,59.9492656153,MP-Perception Experiment,xx25w20,
406,training(5).webm,True,right,2,vcgpdm_dyn(10)-lvm(5)_final(0).webm,0,87,87,29,,,,,,,,13:16:29:532,13:16:30:218,13:16:33:221,right,13:16:33:537,,2013_Jan_04_1236,59.9492656153,MP-Perception Experiment,xx25w20,
407,vcgpdm_dyn(10)-lvm(20)_final(9).webm,False,left,2,training(4).webm,0,88,88,75,,,,,,,,13:16:34:216,13:16:35:038,13:16:38:039,right,13:16:38:389,,2013_Jan_04_1236,59.9492656153,MP-Perception Experiment,xx25w20,
408,vcgpdm_dyn(20)-lvm(30)_final(0).webm,True,left,2,training(39).webm,0,89,89,16,,,,,,,,13:16:39:255,13:16:39:891,13:16:42:894,left,13:16:43:711,,2013_Jan_04_1236,59.9492656153,MP-Perception Experiment,xx25w20,
409,training(9).webm,True,right,2,dmp_npsi(20)_final(9).webm,0,90,90,97,,,,,,,,13:16:44:562,13:16:45:213,13:16:48:215,right,13:16:48:716,,2013_Jan_04_1236,59.9492656153,MP-Perception Experiment,xx25w20,
410,vcgpdm_dyn(35)-lvm(30)_final(0).webm,True,left,2,training(40).webm,0,91,91,143,,,,,,,,13:16:49:564,13:16:50:217,13:16:53:204,left,13:16:53:555,,2013_Jan_04_1236,59.9492656153,MP-Perception Experiment,xx25w20,
411,training(38).webm,False,right,2,vcgpdm_dyn(30)-lvm(5)_final(8).webm,0,92,92,74,,,,,,,,13:16:54:233,13:16:55:056,13:16:58:058,right,13:16:58:442,,2013_Jan_04_1236,59.9492656153,MP-Perception Experiment,xx25w20,
412,vcgpdm_dyn(15)-lvm(35)_final(3).webm,True,left,2,training(40).webm,0,93,93,6,,,,,,,,13:16:59:189,13:16:59:944,13:17:02:947,right,13:17:03:247,,2013_Jan_04_1236,59.9492656153,MP-Perception Experiment,xx25w20,
413,training(30).webm,False,right,2,vgpdm_dyn(5)-lvm(25)_final(3)_out_of_screen.webm,0,94,94,148,,,,,,,,13:17:04:092,13:17:04:748,13:17:07:750,right,13:17:08:534,,2013_Jan_04_1236,59.9492656153,MP-Perception Experiment,xx25w20,
414,training(30).webm,False,right,2,vgpdm_dyn(30)-lvm(30)_final(1).webm,0,95,95,115,,,,,,,,13:17:09:213,13:17:10:035,13:17:13:038,right,13:17:13:422,,2013_Jan_04_1236,59.9492656153,MP-Perception Experiment,xx25w20,
415,vcgpdm_dyn(20)-lvm(5)_final(2).webm,False,left,2,training(20).webm,0,96,96,121,,,,,,,,13:17:14:158,13:17:14:923,13:17:17:926,right,13:17:18:226,,2013_Jan_04_1236,59.9492656153,MP-Perception Experiment,xx25w20,
416,training(4).webm,False,right,2,vcgpdm_dyn(5)-lvm(5)_final(4).webm,0,97,97,128,,,,,,,,13:17:18:907,13:17:19:728,13:17:22:747,left,13:17:23:281,,2013_Jan_04_1236,59.9492656153,MP-Perception Experiment,xx25w20,
417,training(19).webm,False,right,2,vcgpdm_dyn(30)-lvm(15)_final(9).webm,0,98,98,64,,,,,,,,13:17:23:966,13:17:24:782,13:17:27:782,right,13:17:28:166,,2013_Jan_04_1236,59.9492656153,MP-Perception Experiment,xx25w20,
418,training(29).webm,False,right,2,vcgpdm_dyn(20)-lvm(10)_final(9).webm,0,99,99,78,,,,,,,,13:17:28:852,13:17:29:667,13:17:32:670,right,13:17:33:020,,2013_Jan_04_1236,59.9492656153,MP-Perception Experiment,xx25w20,
419,vgpdm_dyn(10)-lvm(10)_final(6).webm,False,left,2,training(7).webm,0,100,100,32,,,,,,,,13:17:33:703,13:17:34:521,13:17:37:525,right,13:17:38:010,,2013_Jan_04_1236,59.9492656153,MP-Perception Experiment,xx25w20,
420,map_gpdm_final(8).webm,False,left,2,training(41).webm,0,101,101,44,,,,,,,,13:17:38:694,13:17:39:511,13:17:42:530,left,13:17:42:831,,2013_Jan_04_1236,59.9492656153,MP-Perception Experiment,xx25w20,
421,training(36).webm,False,right,2,vcgpdm_dyn(15)-lvm(25)_final(2).webm,0,102,102,58,,,,,,,,13:17:43:509,13:17:44:332,13:17:47:334,left,13:17:47:701,,2013_Jan_04_1236,59.9492656153,MP-Perception Experiment,xx25w20,
422,training(14).webm,False,right,2,vgpdm_dyn(10)-lvm(5)_final(2).webm,0,103,103,25,,,,,,,,13:17:48:380,13:17:49:202,13:17:52:206,left,13:17:52:623,,2013_Jan_04_1236,59.9492656153,MP-Perception Experiment,xx25w20,
423,training(48).webm,False,right,2,vcgpdm_dyn(25)-lvm(25)_final(7).webm,0,104,104,69,,,,,,,,13:17:53:325,13:17:54:124,13:17:57:126,left,13:17:57:477,,2013_Jan_04_1236,59.9492656153,MP-Perception Experiment,xx25w20,
424,training(0).webm,False,right,2,vgpdm_dyn(15)-lvm(30)_final(7).webm,0,105,105,149,,,,,,,,13:17:58:155,13:17:58:978,13:18:01:981,right,13:18:02:364,,2013_Jan_04_1236,59.9492656153,MP-Perception Experiment,xx25w20,
425,training(27).webm,True,right,2,vcgpdm_dyn(15)-lvm(15)_final(1).webm,0,106,106,36,,,,,,,,13:18:03:219,13:18:03:865,13:18:06:868,right,13:18:07:535,,2013_Jan_04_1236,59.9492656153,MP-Perception Experiment,xx25w20,
426,training(21).webm,True,right,2,map_cgpdm_final(8).webm,0,107,107,21,,,,,,,,13:18:08:219,13:18:09:036,13:18:12:039,right,13:18:12:356,,2013_Jan_04_1236,59.9492656153,MP-Perception Experiment,xx25w20,
427,vcgpdm_dyn(10)-lvm(35)_final(9).webm,False,left,2,training(13).webm,0,108,108,127,,,,,,,,13:18:13:035,13:18:13:858,13:18:16:858,left,13:18:17:359,,2013_Jan_04_1236,59.9492656153,MP-Perception Experiment,xx25w20,
428,vcgpdm_dyn(35)-lvm(20)_final(9).webm,False,left,2,training(32).webm,0,109,109,38,,,,,,,,13:18:18:039,13:18:18:860,13:18:21:862,left,13:18:22:113,,2013_Jan_04_1236,59.9492656153,MP-Perception Experiment,xx25w20,
429,vgpdm_dyn(30)-lvm(10)_final(4).webm,False,left,2,training(18).webm,0,110,110,7,,,,,,,,13:18:22:934,13:18:23:614,13:18:26:616,left,13:18:26:900,,2013_Jan_04_1236,59.9492656153,MP-Perception Experiment,xx25w20,
430,vcgpdm_dyn(20)-lvm(30)_final(8).webm,True,left,2,training(19).webm,0,111,111,124,,,,,,,,13:18:27:590,13:18:28:402,13:18:31:390,left,13:18:31:706,,2013_Jan_04_1236,59.9492656153,MP-Perception Experiment,xx25w20,
431,training(35).webm,True,right,2,vgpdm_dyn(20)-lvm(25)_final(2).webm,0,112,112,110,,,,,,,,13:18:32:558,13:18:33:208,13:18:36:210,left,13:18:36:527,,2013_Jan_04_1236,59.9492656153,MP-Perception Experiment,xx25w20,
432,training(4).webm,True,right,2,dmp_npsi(20)_final(5).webm,0,113,113,112,,,,,,,,13:18:37:215,13:18:38:028,13:18:41:030,right,13:18:41:431,,2013_Jan_04_1236,59.9492656153,MP-Perception Experiment,xx25w20,
433,vcgpdm_dyn(20)-lvm(30)_final(1).webm,False,left,2,training(22).webm,0,114,114,92,,,,,,,,13:18:42:114,13:18:42:932,13:18:45:935,left,13:18:46:586,,2013_Jan_04_1236,59.9492656153,MP-Perception Experiment,xx25w20,
434,vgpdm_dyn(25)-lvm(35)_final(0).webm,True,left,2,training(25).webm,0,115,115,56,,,,,,,,13:18:47:266,13:18:48:087,13:18:51:090,left,13:18:51:407,,2013_Jan_04_1236,59.9492656153,MP-Perception Experiment,xx25w20,
435,vgpdm_dyn(5)-lvm(20)_final(4).webm,False,left,2,training(21).webm,0,116,116,105,,,,,,,,13:18:52:086,13:18:52:908,13:18:55:910,left,13:18:56:227,,2013_Jan_04_1236,59.9492656153,MP-Perception Experiment,xx25w20,
436,vcgpdm_dyn(20)-lvm(35)_final(4).webm,False,left,2,training(13).webm,0,117,117,120,,,,,,,,13:18:56:935,13:18:57:728,13:19:00:731,left,13:19:01:098,,2013_Jan_04_1236,59.9492656153,MP-Perception Experiment,xx25w20,
437,tmp_numprim(9)_final(5).webm,False,left,2,training(0).webm,0,118,118,39,,,,,,,,13:19:01:783,13:19:02:600,13:19:05:619,left,13:19:07:235,,2013_Jan_04_1236,59.9492656153,MP-Perception Experiment,xx25w20,
438,dmp_npsi(35)_final(4).webm,True,left,2,training(29).webm,0,119,119,156,,,,,,,,13:19:07:909,13:19:08:736,13:19:11:739,left,13:19:12:556,,2013_Jan_04_1236,59.9492656153,MP-Perception Experiment,xx25w20,
439,vgpdm_dyn(5)-lvm(20)_final(2).webm,False,left,2,training(8).webm,0,120,120,88,,,,,,,,13:19:13:237,13:19:14:057,13:19:17:060,left,13:19:17:327,,2013_Jan_04_1236,59.9492656153,MP-Perception Experiment,xx25w20,
440,vgpdm_dyn(10)-lvm(20)_final(2).webm,True,left,2,training(34).webm,0,121,121,84,,,,,,,,13:19:18:005,13:19:18:830,13:19:21:817,left,13:19:22:517,,2013_Jan_04_1236,59.9492656153,MP-Perception Experiment,xx25w20,
441,vcgpdm_dyn(10)-lvm(15)_final(1).webm,True,left,2,training(29).webm,0,122,122,85,,,,,,,,13:19:23:285,13:19:24:018,13:19:27:020,left,13:19:27:521,,2013_Jan_04_1236,59.9492656153,MP-Perception Experiment,xx25w20,
442,training(12).webm,True,right,2,dmp_npsi(40)_final(7).webm,0,123,123,99,,,,,,,,13:19:28:205,13:19:29:022,13:19:32:025,left,13:19:32:525,,2013_Jan_04_1236,59.9492656153,MP-Perception Experiment,xx25w20,
443,vgpdm_dyn(10)-lvm(25)_final(3).webm,False,left,2,training(12).webm,0,124,124,62,,,,,,,,13:19:33:351,13:19:34:026,13:19:37:030,left,13:19:37:430,,2013_Jan_04_1236,59.9492656153,MP-Perception Experiment,xx25w20,
444,training(14).webm,True,right,2,tmp_numprim(10)_final(2).webm,0,125,125,145,,,,,,,,13:19:38:277,13:19:38:931,13:19:41:934,left,13:19:42:351,,2013_Jan_04_1236,59.9492656153,MP-Perception Experiment,xx25w20,
445,vgpdm_dyn(35)-lvm(30)_final(7).webm,False,left,2,training(21).webm,0,126,126,95,,,,,,,,13:19:43:182,13:19:43:852,13:19:46:855,left,13:19:47:438,,2013_Jan_04_1236,59.9492656153,MP-Perception Experiment,xx25w20,
446,tmp_numprim(7)_final(8).webm,True,left,2,training(22).webm,0,127,127,138,,,,,,,,13:19:48:119,13:19:48:939,13:19:51:942,right,13:19:52:292,,2013_Jan_04_1236,59.9492656153,MP-Perception Experiment,xx25w20,
447,training(28).webm,True,right,2,vgpdm_dyn(5)-lvm(5)_final(9)_out_of_screen.webm,0,128,128,118,,,,,,,,13:19:53:125,13:19:53:793,13:19:56:795,right,13:19:57:179,,2013_Jan_04_1236,59.9492656153,MP-Perception Experiment,xx25w20,
448,vcgpdm_dyn(35)-lvm(5)_final(2).webm,False,left,2,training(6).webm,0,129,129,86,,,,,,,,13:19:57:969,13:19:58:680,13:20:01:682,right,13:20:02:066,,2013_Jan_04_1236,59.9492656153,MP-Perception Experiment,xx25w20,
449,training(12).webm,False,right,2,vgpdm_dyn(10)-lvm(30)_final(2).webm,0,130,130,144,,,,,,,,13:20:02:913,13:20:03:567,13:20:06:570,right,13:20:06:920,,2013_Jan_04_1236,59.9492656153,MP-Perception Experiment,xx25w20,
450,vgpdm_dyn(5)-lvm(30)_final(0).webm,False,left,2,training(20).webm,0,131,131,100,,,,,,,,13:20:07:647,13:20:08:421,13:20:11:409,left,13:20:11:726,,2013_Jan_04_1236,59.9492656153,MP-Perception Experiment,xx25w20,
451,vgpdm_dyn(5)-lvm(15)_final(1).webm,False,left,2,training(37).webm,0,132,132,19,,,,,,,,13:20:12:414,13:20:13:228,13:20:16:230,left,13:20:16:647,,2013_Jan_04_1236,59.9492656153,MP-Perception Experiment,xx25w20,
452,vcgpdm_dyn(5)-lvm(5)_final(4).webm,True,left,2,training(13).webm,0,133,133,125,,,,,,,,13:20:17:328,13:20:18:148,13:20:21:151,left,13:20:21:818,,2013_Jan_04_1236,59.9492656153,MP-Perception Experiment,xx25w20,
453,vgpdm_dyn(20)-lvm(5)_final(7).webm,False,left,2,training(9).webm,0,134,134,117,,,,,,,,13:20:22:550,13:20:23:319,13:20:26:338,right,13:20:26:822,,2013_Jan_04_1236,59.9492656153,MP-Perception Experiment,xx25w20,
454,training(16).webm,False,right,2,vcgpdm_dyn(15)-lvm(30)_final(2).webm,0,135,135,9,,,,,,,,13:20:27:507,13:20:28:323,13:20:31:326,left,13:20:31:844,,2013_Jan_04_1236,59.9492656153,MP-Perception Experiment,xx25w20,
455,vcgpdm_dyn(15)-lvm(30)_final(9).webm,True,left,2,training(14).webm,0,136,136,52,,,,,,,,13:20:32:586,13:20:33:345,13:20:36:347,left,13:20:36:814,,2013_Jan_04_1236,59.9492656153,MP-Perception Experiment,xx25w20,
456,dmp_npsi(30)_final(6).webm,False,left,2,training(28).webm,0,137,137,33,,,,,,,,13:20:37:632,13:20:38:316,13:20:41:318,right,13:20:42:269,,2013_Jan_04_1236,59.9492656153,MP-Perception Experiment,xx25w20,
457,training(17).webm,True,right,2,tmp_numprim(7)_final(3).webm,0,138,138,76,,,,,,,,13:20:43:118,13:20:43:770,13:20:46:771,right,13:20:47:422,,2013_Jan_04_1236,59.9492656153,MP-Perception Experiment,xx25w20,
458,vcgpdm_dyn(30)-lvm(15)_final(8).webm,True,left,2,training(37).webm,0,139,139,71,,,,,,,,13:20:48:262,13:20:48:923,13:20:51:926,left,13:20:52:226,,2013_Jan_04_1236,59.9492656153,MP-Perception Experiment,xx25w20,
459,dmp_npsi(15)_final(9).webm,False,left,2,training(13).webm,0,140,140,73,,,,,,,,13:20:53:077,13:20:53:727,13:20:56:730,left,13:20:57:280,,2013_Jan_04_1236,59.9492656153,MP-Perception Experiment,xx25w20,
460,vcgpdm_dyn(25)-lvm(25)_final(9).webm,False,left,2,training(5).webm,0,141,141,82,,,,,,,,13:20:57:976,13:20:58:783,13:21:01:769,left,13:21:02:086,,2013_Jan_04_1236,59.9492656153,MP-Perception Experiment,xx25w20,
461,training(28).webm,False,right,2,vgpdm_dyn(5)-lvm(10)_final(3).webm,0,142,142,63,,,,,,,,13:21:02:765,13:21:03:587,13:21:06:590,left,13:21:07:374,,2013_Jan_04_1236,59.9492656153,MP-Perception Experiment,xx25w20,
462,vgpdm_dyn(15)-lvm(5)_final(6).webm,False,left,2,training(1).webm,0,143,143,116,,,,,,,,13:21:08:054,13:21:08:876,13:21:11:878,left,13:21:12:462,,2013_Jan_04_1236,59.9492656153,MP-Perception Experiment,xx25w20,
463,vgpdm_dyn(10)-lvm(25)_final(1).webm,False,left,2,training(37).webm,0,144,144,80,,,,,,,,13:21:13:146,13:21:13:963,13:21:16:982,left,13:21:17:850,,2013_Jan_04_1236,59.9492656153,MP-Perception Experiment,xx25w20,
464,training(13).webm,True,right,2,vcgpdm_dyn(5)-lvm(10)_final(5).webm,0,145,145,45,,,,,,,,13:21:18:701,13:21:19:351,13:21:22:354,right,13:21:22:905,,2013_Jan_04_1236,59.9492656153,MP-Perception Experiment,xx25w20,
465,vgpdm_dyn(35)-lvm(35)_final(0).webm,True,left,2,training(13).webm,0,146,146,103,,,,,,,,13:21:23:588,13:21:24:406,13:21:27:408,left,13:21:27:909,,2013_Jan_04_1236,59.9492656153,MP-Perception Experiment,xx25w20,
466,training(6).webm,True,right,2,tmp_numprim(8)_final(6).webm,0,147,147,42,,,,,,,,13:21:28:596,13:21:29:410,13:21:32:412,left,13:21:33:013,,2013_Jan_04_1236,59.9492656153,MP-Perception Experiment,xx25w20,
467,vcgpdm_dyn(25)-lvm(30)_final(9).webm,True,left,2,training(26).webm,0,148,148,81,,,,,,,,13:21:33:696,13:21:34:514,13:21:37:515,right,13:21:38:315,,2013_Jan_04_1236,59.9492656153,MP-Perception Experiment,xx25w20,
468,training(13).webm,False,right,2,vgpdm_dyn(35)-lvm(30)_final(5).webm,0,149,149,1,,,,,,,,13:21:38:997,13:21:39:817,13:21:42:820,left,13:21:43:070,,2013_Jan_04_1236,59.9492656153,MP-Perception Experiment,xx25w20,
