trial_number,right,flipped,correct,block,left,trials.thisRepN,trials.thisTrialN,trials.thisN,trials.thisIndex,flipwelcome.keys,flipwelcome.corr,flipwelcome.rt,flippreparations.keys,flippreparations.rt,flipInstructions.keys,flipInstructions.rt,time_at_fixation_cross_onset,time_at_videoonset,time_at_videoend,participant_key_response,time_at_key_response,key_resp_4.keys,date,frameRate,expName,participant,
,,,,,,,,,,space,0,35.1814557928,,,,,,,,,,,2013_Jan_05_1132,59.9576734099,MP-Perception Experiment,xx26m21,
,,,,,,,,,,,,,space,35.5466535558,,,,,,,,,2013_Jan_05_1132,59.9576734099,MP-Perception Experiment,xx26m21,
,,,,,,,,,,,,,,,space,6.60571619599,,,,,,,2013_Jan_05_1132,59.9576734099,MP-Perception Experiment,xx26m21,
1,training(2).webm,True,right,0,tmp_numprim(8)_final(6).webm,0,0,0,17,,,,,,,,11:33:36:564,11:33:37:121,11:33:40:107,left,11:33:43:176,,2013_Jan_05_1132,59.9576734099,MP-Perception Experiment,xx26m21,
2,vcgpdm_dyn(5)-lvm(25)_final(2).webm,True,left,0,training(25).webm,0,1,1,77,,,,,,,,11:33:44:023,11:33:44:677,11:33:47:680,left,11:33:49:264,,2013_Jan_05_1132,59.9576734099,MP-Perception Experiment,xx26m21,
3,tmp_numprim(4)_final(5).webm,False,left,0,training(23).webm,0,2,2,70,,,,,,,,11:33:49:950,11:33:50:767,11:33:53:769,left,11:33:54:837,,2013_Jan_05_1132,59.9576734099,MP-Perception Experiment,xx26m21,
4,training(34).webm,True,right,0,vcgpdm_dyn(5)-lvm(25)_final(0).webm,0,3,3,64,,,,,,,,11:33:55:686,11:33:56:338,11:33:59:338,right,11:33:59:789,,2013_Jan_05_1132,59.9576734099,MP-Perception Experiment,xx26m21,
5,training(12).webm,False,right,0,vgpdm_dyn(10)-lvm(30)_final(6).webm,0,4,4,101,,,,,,,,11:34:00:646,11:34:01:290,11:34:04:292,right,11:34:05:076,,2013_Jan_05_1132,59.9576734099,MP-Perception Experiment,xx26m21,
6,vgpdm_dyn(5)-lvm(20)_final(0).webm,False,left,0,training(40).webm,0,5,5,8,,,,,,,,11:34:05:907,11:34:06:578,11:34:09:566,right,11:34:10:233,,2013_Jan_05_1132,59.9576734099,MP-Perception Experiment,xx26m21,
7,dmp_npsi(45)_final(8).webm,False,left,0,training(22).webm,0,6,6,52,,,,,,,,11:34:11:072,11:34:11:734,11:34:14:737,left,11:34:16:188,,2013_Jan_05_1132,59.9576734099,MP-Perception Experiment,xx26m21,
8,tmp_numprim(9)_final(1).webm,False,left,0,training(33).webm,0,7,7,81,,,,,,,,11:34:17:042,11:34:17:689,11:34:20:692,left,11:34:21:709,,2013_Jan_05_1132,59.9576734099,MP-Perception Experiment,xx26m21,
9,training(29).webm,False,right,0,vgpdm_dyn(20)-lvm(15)_final(0).webm,0,8,8,46,,,,,,,,11:34:22:554,11:34:23:210,11:34:26:214,right,11:34:27:365,,2013_Jan_05_1132,59.9576734099,MP-Perception Experiment,xx26m21,
10,tmp_numprim(2)_final(6).webm,True,left,0,training(23).webm,0,9,9,92,,,,,,,,11:34:28:041,11:34:28:866,11:34:31:868,left,11:34:32:769,,2013_Jan_05_1132,59.9576734099,MP-Perception Experiment,xx26m21,
11,vgpdm_dyn(20)-lvm(5)_final(6).webm,False,left,0,training(11).webm,0,10,10,148,,,,,,,,11:34:33:448,11:34:34:270,11:34:37:273,left,11:34:39:541,,2013_Jan_05_1132,59.9576734099,MP-Perception Experiment,xx26m21,
12,training(2).webm,False,right,0,dmp_npsi(30)_final(9).webm,0,11,11,128,,,,,,,,11:34:40:252,11:34:41:042,11:34:44:046,right,11:34:44:396,,2013_Jan_05_1132,59.9576734099,MP-Perception Experiment,xx26m21,
13,training(24).webm,False,right,0,vgpdm_dyn(35)-lvm(35)_final(7).webm,0,12,12,115,,,,,,,,11:34:45:078,11:34:45:897,11:34:48:898,right,11:34:49:499,,2013_Jan_05_1132,59.9576734099,MP-Perception Experiment,xx26m21,
14,training(32).webm,True,right,0,vgpdm_dyn(15)-lvm(5)_final(3).webm,0,13,13,91,,,,,,,,11:34:50:172,11:34:51:000,11:34:54:002,right,11:34:55:637,,2013_Jan_05_1132,59.9576734099,MP-Perception Experiment,xx26m21,
15,dmp_npsi(35)_final(4).webm,True,left,0,training(38).webm,0,14,14,94,,,,,,,,11:34:56:314,11:34:57:138,11:35:00:142,right,11:35:00:759,,2013_Jan_05_1132,59.9576734099,MP-Perception Experiment,xx26m21,
16,training(41).webm,False,right,0,vcgpdm_dyn(35)-lvm(25)_final(2).webm,0,15,15,9,,,,,,,,11:35:01:600,11:35:02:262,11:35:05:247,right,11:35:05:931,,2013_Jan_05_1132,59.9576734099,MP-Perception Experiment,xx26m21,
17,vcgpdm_dyn(20)-lvm(30)_final(3).webm,True,left,0,training(48).webm,0,16,16,45,,,,,,,,11:35:06:671,11:35:07:432,11:35:10:435,left,11:35:11:019,,2013_Jan_05_1132,59.9576734099,MP-Perception Experiment,xx26m21,
18,training(39).webm,False,right,0,dmp_npsi(50)_final(0).webm,0,17,17,153,,,,,,,,11:35:11:866,11:35:12:520,11:35:15:522,left,11:35:17:358,,2013_Jan_05_1132,59.9576734099,MP-Perception Experiment,xx26m21,
19,vcgpdm_dyn(35)-lvm(25)_final(7).webm,True,left,0,training(39).webm,0,18,18,0,,,,,,,,11:35:18:083,11:35:18:859,11:35:21:862,left,11:35:22:379,,2013_Jan_05_1132,59.9576734099,MP-Perception Experiment,xx26m21,
20,vcgpdm_dyn(5)-lvm(15)_final(2).webm,True,left,0,training(3).webm,0,19,19,34,,,,,,,,11:35:23:058,11:35:23:880,11:35:26:883,left,11:35:27:833,,2013_Jan_05_1132,59.9576734099,MP-Perception Experiment,xx26m21,
21,training(20).webm,True,right,0,map_gpdm_final(8).webm,0,20,20,69,,,,,,,,11:35:28:512,11:35:29:334,11:35:32:337,right,11:35:32:837,,2013_Jan_05_1132,59.9576734099,MP-Perception Experiment,xx26m21,
22,training(26).webm,False,right,0,dmp_npsi(40)_final(5).webm,0,21,21,127,,,,,,,,11:35:33:671,11:35:34:338,11:35:37:342,right,11:35:37:907,,2013_Jan_05_1132,59.9576734099,MP-Perception Experiment,xx26m21,
23,training(30).webm,True,right,0,tmp_numprim(6)_final(4).webm,0,22,22,60,,,,,,,,11:35:38:588,11:35:39:408,11:35:42:411,left,11:35:43:112,,2013_Jan_05_1132,59.9576734099,MP-Perception Experiment,xx26m21,
24,training(37).webm,True,right,0,vgpdm_dyn(10)-lvm(10)_final(6).webm,0,23,23,93,,,,,,,,11:35:43:924,11:35:44:613,11:35:47:615,right,11:35:48:968,,2013_Jan_05_1132,59.9576734099,MP-Perception Experiment,xx26m21,
25,training(30).webm,False,right,0,vcgpdm_dyn(20)-lvm(35)_final(2).webm,0,24,24,48,,,,,,,,11:35:49:646,11:35:50:469,11:35:53:473,right,11:35:53:873,,2013_Jan_05_1132,59.9576734099,MP-Perception Experiment,xx26m21,
26,training(31).webm,False,right,0,vcgpdm_dyn(30)-lvm(15)_final(7).webm,0,25,25,140,,,,,,,,11:35:54:559,11:35:55:374,11:35:58:377,right,11:35:59:127,,2013_Jan_05_1132,59.9576734099,MP-Perception Experiment,xx26m21,
27,training(39).webm,True,right,0,vcgpdm_dyn(15)-lvm(5)_final(0).webm,0,26,26,136,,,,,,,,11:35:59:801,11:36:00:628,11:36:03:631,left,11:36:04:482,,2013_Jan_05_1132,59.9576734099,MP-Perception Experiment,xx26m21,
28,dmp_npsi(35)_final(8).webm,False,left,0,training(15).webm,0,27,27,119,,,,,,,,11:36:05:157,11:36:05:983,11:36:08:985,left,11:36:09:436,,2013_Jan_05_1132,59.9576734099,MP-Perception Experiment,xx26m21,
29,vcgpdm_dyn(30)-lvm(30)_final(3).webm,False,left,0,training(31).webm,0,28,28,55,,,,,,,,11:36:10:116,11:36:10:938,11:36:13:940,left,11:36:14:374,,2013_Jan_05_1132,59.9576734099,MP-Perception Experiment,xx26m21,
30,training(18).webm,True,right,0,map_cgpdm_final(2).webm,0,29,29,85,,,,,,,,11:36:15:217,11:36:15:875,11:36:18:878,right,11:36:19:261,,2013_Jan_05_1132,59.9576734099,MP-Perception Experiment,xx26m21,
31,training(36).webm,False,right,0,vcgpdm_dyn(15)-lvm(20)_final(9).webm,0,30,30,3,,,,,,,,11:36:20:105,11:36:20:762,11:36:23:765,right,11:36:24:349,,2013_Jan_05_1132,59.9576734099,MP-Perception Experiment,xx26m21,
32,vcgpdm_dyn(10)-lvm(10)_final(4).webm,True,left,0,training(31).webm,0,31,31,134,,,,,,,,11:36:25:087,11:36:25:850,11:36:28:851,right,11:36:31:287,,2013_Jan_05_1132,59.9576734099,MP-Perception Experiment,xx26m21,
33,vgpdm_dyn(35)-lvm(5)_final(1).webm,False,left,0,training(21).webm,0,32,32,54,,,,,,,,11:36:31:974,11:36:32:788,11:36:35:790,left,11:36:37:041,,2013_Jan_05_1132,59.9576734099,MP-Perception Experiment,xx26m21,
34,vcgpdm_dyn(25)-lvm(20)_final(8).webm,False,left,0,training(29).webm,0,33,33,74,,,,,,,,11:36:37:808,11:36:38:542,11:36:41:545,left,11:36:41:847,,2013_Jan_05_1132,59.9576734099,MP-Perception Experiment,xx26m21,
35,training(3).webm,True,right,0,vgpdm_dyn(15)-lvm(15)_final(0).webm,0,34,34,79,,,,,,,,11:36:42:527,11:36:43:348,11:36:46:352,left,11:36:47:169,,2013_Jan_05_1132,59.9576734099,MP-Perception Experiment,xx26m21,
36,tmp_numprim(2)_final(8).webm,True,left,0,training(17).webm,0,35,35,143,,,,,,,,11:36:47:878,11:36:48:670,11:36:51:672,left,11:36:52:740,,2013_Jan_05_1132,59.9576734099,MP-Perception Experiment,xx26m21,
37,training(7).webm,True,right,0,vgpdm_dyn(20)-lvm(35)_final(1).webm,0,36,36,39,,,,,,,,11:36:53:416,11:36:54:241,11:36:57:244,right,11:36:57:928,,2013_Jan_05_1132,59.9576734099,MP-Perception Experiment,xx26m21,
38,training(13).webm,False,right,0,dmp_npsi(30)_final(3).webm,0,37,37,155,,,,,,,,11:36:58:762,11:36:59:429,11:37:02:432,right,11:37:02:999,,2013_Jan_05_1132,59.9576734099,MP-Perception Experiment,xx26m21,
39,vgpdm_dyn(30)-lvm(10)_final(3).webm,True,left,0,training(32).webm,0,38,38,11,,,,,,,,11:37:03:723,11:37:04:500,11:37:07:503,left,11:37:08:454,,2013_Jan_05_1132,59.9576734099,MP-Perception Experiment,xx26m21,
40,training(41).webm,True,right,0,tmp_numprim(4)_final(7).webm,0,39,39,147,,,,,,,,11:37:09:300,11:37:09:955,11:37:12:957,right,11:37:13:324,,2013_Jan_05_1132,59.9576734099,MP-Perception Experiment,xx26m21,
41,vgpdm_dyn(10)-lvm(15)_final(7).webm,False,left,0,training(5).webm,0,40,40,129,,,,,,,,11:37:14:175,11:37:14:825,11:37:17:826,left,11:37:18:310,,2013_Jan_05_1132,59.9576734099,MP-Perception Experiment,xx26m21,
42,tmp_numprim(5)_final(2).webm,False,left,0,training(2).webm,0,41,41,23,,,,,,,,11:37:19:076,11:37:19:812,11:37:22:815,left,11:37:23:382,,2013_Jan_05_1132,59.9576734099,MP-Perception Experiment,xx26m21,
43,map_gpdm_final(6).webm,True,left,0,training(17).webm,0,42,42,110,,,,,,,,11:37:24:145,11:37:24:883,11:37:27:885,left,11:37:28:769,,2013_Jan_05_1132,59.9576734099,MP-Perception Experiment,xx26m21,
44,vcgpdm_dyn(5)-lvm(5)_final(2).webm,True,left,0,training(38).webm,0,43,43,145,,,,,,,,11:37:29:449,11:37:30:272,11:37:33:275,left,11:37:35:527,,2013_Jan_05_1132,59.9576734099,MP-Perception Experiment,xx26m21,
45,tmp_numprim(3)_final(3).webm,False,left,0,training(38).webm,0,44,44,144,,,,,,,,11:37:36:200,11:37:37:029,11:37:40:031,left,11:37:40:332,,2013_Jan_05_1132,59.9576734099,MP-Perception Experiment,xx26m21,
46,vgpdm_dyn(10)-lvm(35)_final(4).webm,True,left,0,training(1).webm,0,45,45,82,,,,,,,,11:37:41:017,11:37:41:833,11:37:44:835,left,11:37:45:252,,2013_Jan_05_1132,59.9576734099,MP-Perception Experiment,xx26m21,
47,training(25).webm,True,right,0,vcgpdm_dyn(35)-lvm(20)_final(1).webm,0,46,46,125,,,,,,,,11:37:45:925,11:37:46:753,11:37:49:756,right,11:37:50:490,,2013_Jan_05_1132,59.9576734099,MP-Perception Experiment,xx26m21,
48,training(30).webm,True,right,0,vcgpdm_dyn(10)-lvm(35)_final(7).webm,0,47,47,123,,,,,,,,11:37:51:156,11:37:51:991,11:37:54:994,right,11:37:55:428,,2013_Jan_05_1132,59.9576734099,MP-Perception Experiment,xx26m21,
49,training(20).webm,True,right,0,dmp_npsi(25)_final(5).webm,0,48,48,114,,,,,,,,11:37:56:253,11:37:56:929,11:37:59:932,right,11:38:00:215,,2013_Jan_05_1132,59.9576734099,MP-Perception Experiment,xx26m21,
50,vcgpdm_dyn(30)-lvm(15)_final(3).webm,True,left,0,training(36).webm,0,49,49,2,,,,,,,,11:38:00:893,11:38:01:716,11:38:04:719,right,11:38:05:470,,2013_Jan_05_1132,59.9576734099,MP-Perception Experiment,xx26m21,
51,vcgpdm_dyn(20)-lvm(25)_final(7).webm,False,left,0,training(24).webm,0,50,50,95,,,,,,,,11:38:06:232,11:38:06:971,11:38:09:971,left,11:38:10:438,,2013_Jan_05_1132,59.9576734099,MP-Perception Experiment,xx26m21,
52,training(48).webm,True,right,0,vcgpdm_dyn(30)-lvm(30)_final(7).webm,0,51,51,133,,,,,,,,11:38:11:115,11:38:11:941,11:38:14:943,right,11:38:15:293,,2013_Jan_05_1132,59.9576734099,MP-Perception Experiment,xx26m21,
53,training(29).webm,False,right,0,vcgpdm_dyn(35)-lvm(20)_final(8).webm,0,52,52,131,,,,,,,,11:38:16:100,11:38:16:794,11:38:19:797,right,11:38:20:081,,2013_Jan_05_1132,59.9576734099,MP-Perception Experiment,xx26m21,
54,training(29).webm,True,right,0,vcgpdm_dyn(35)-lvm(10)_final(8).webm,0,53,53,102,,,,,,,,11:38:20:754,11:38:21:582,11:38:24:569,right,11:38:24:836,,2013_Jan_05_1132,59.9576734099,MP-Perception Experiment,xx26m21,
55,training(3).webm,False,right,0,vgpdm_dyn(15)-lvm(5)_final(2).webm,0,54,54,4,,,,,,,,11:38:25:681,11:38:26:337,11:38:29:340,right,11:38:29:808,,2013_Jan_05_1132,59.9576734099,MP-Perception Experiment,xx26m21,
56,training(8).webm,True,right,0,vcgpdm_dyn(30)-lvm(15)_final(4).webm,0,55,55,89,,,,,,,,11:38:30:489,11:38:31:309,11:38:34:312,right,11:38:34:778,,2013_Jan_05_1132,59.9576734099,MP-Perception Experiment,xx26m21,
57,training(10).webm,False,right,0,vcgpdm_dyn(30)-lvm(15)_final(3).webm,0,56,56,139,,,,,,,,11:38:35:455,11:38:36:280,11:38:39:282,right,11:38:39:783,,2013_Jan_05_1132,59.9576734099,MP-Perception Experiment,xx26m21,
58,vgpdm_dyn(20)-lvm(5)_final(6).webm,False,left,0,training(17).webm,0,57,57,30,,,,,,,,11:38:40:457,11:38:41:284,11:38:44:303,left,11:38:44:653,,2013_Jan_05_1132,59.9576734099,MP-Perception Experiment,xx26m21,
59,training(8).webm,True,right,0,tmp_numprim(9)_final(0).webm,0,58,58,111,,,,,,,,11:38:45:333,11:38:46:154,11:38:49:158,right,11:38:49:475,,2013_Jan_05_1132,59.9576734099,MP-Perception Experiment,xx26m21,
60,training(29).webm,True,right,0,vcgpdm_dyn(30)-lvm(35)_final(8).webm,0,59,59,113,,,,,,,,11:38:50:300,11:38:50:976,11:38:53:978,right,11:38:54:329,,2013_Jan_05_1132,59.9576734099,MP-Perception Experiment,xx26m21,
61,training(6).webm,True,right,0,vcgpdm_dyn(30)-lvm(15)_final(2).webm,0,60,60,67,,,,,,,,11:38:55:170,11:38:55:830,11:38:58:830,right,11:38:59:231,,2013_Jan_05_1132,59.9576734099,MP-Perception Experiment,xx26m21,
62,vgpdm_dyn(5)-lvm(15)_final(1).webm,True,left,0,training(2).webm,0,61,61,66,,,,,,,,11:38:59:929,11:39:00:732,11:39:03:734,left,11:39:04:101,,2013_Jan_05_1132,59.9576734099,MP-Perception Experiment,xx26m21,
63,training(37).webm,False,right,0,vgpdm_dyn(25)-lvm(35)_final(9).webm,0,62,62,158,,,,,,,,11:39:04:953,11:39:05:620,11:39:08:606,right,11:39:09:592,,2013_Jan_05_1132,59.9576734099,MP-Perception Experiment,xx26m21,
64,vcgpdm_dyn(10)-lvm(10)_final(3).webm,False,left,0,training(16).webm,0,63,63,29,,,,,,,,11:39:10:275,11:39:11:093,11:39:14:096,left,11:39:14:546,,2013_Jan_05_1132,59.9576734099,MP-Perception Experiment,xx26m21,
65,vcgpdm_dyn(25)-lvm(25)_final(1).webm,True,left,0,training(2).webm,0,64,64,5,,,,,,,,11:39:15:352,11:39:16:047,11:39:19:050,left,11:39:19:266,,2013_Jan_05_1132,59.9576734099,MP-Perception Experiment,xx26m21,
66,vcgpdm_dyn(5)-lvm(25)_final(7).webm,False,left,0,training(3).webm,0,65,65,26,,,,,,,,11:39:19:941,11:39:20:767,11:39:23:771,left,11:39:24:155,,2013_Jan_05_1132,59.9576734099,MP-Perception Experiment,xx26m21,
67,vcgpdm_dyn(30)-lvm(5)_final(4).webm,True,left,0,training(19).webm,0,66,66,107,,,,,,,,11:39:25:007,11:39:25:656,11:39:28:658,left,11:39:29:242,,2013_Jan_05_1132,59.9576734099,MP-Perception Experiment,xx26m21,
68,training(3).webm,True,right,0,vgpdm_dyn(5)-lvm(20)_final(3).webm,0,67,67,15,,,,,,,,11:39:29:919,11:39:30:743,11:39:33:746,right,11:39:34:246,,2013_Jan_05_1132,59.9576734099,MP-Perception Experiment,xx26m21,
69,training(30).webm,True,right,0,vcgpdm_dyn(30)-lvm(25)_final(3).webm,0,68,68,35,,,,,,,,11:39:35:052,11:39:35:747,11:39:38:750,right,11:39:39:852,,2013_Jan_05_1132,59.9576734099,MP-Perception Experiment,xx26m21,
70,training(3).webm,False,right,0,vcgpdm_dyn(10)-lvm(5)_final(5).webm,0,69,69,18,,,,,,,,11:39:40:524,11:39:41:353,11:39:44:355,right,11:39:44:822,,2013_Jan_05_1132,59.9576734099,MP-Perception Experiment,xx26m21,
71,vgpdm_dyn(15)-lvm(5)_final(8).webm,False,left,0,training(14).webm,0,70,70,12,,,,,,,,11:39:45:508,11:39:46:340,11:39:49:324,left,11:39:49:691,,2013_Jan_05_1132,59.9576734099,MP-Perception Experiment,xx26m21,
72,training(22).webm,True,right,0,vgpdm_dyn(30)-lvm(5)_final(0).webm,0,71,71,150,,,,,,,,11:39:50:368,11:39:51:192,11:39:54:195,right,11:39:54:662,,2013_Jan_05_1132,59.9576734099,MP-Perception Experiment,xx26m21,
73,training(20).webm,True,right,0,vcgpdm_dyn(30)-lvm(25)_final(0).webm,0,72,72,112,,,,,,,,11:39:55:510,11:39:56:163,11:39:59:166,right,11:39:59:517,,2013_Jan_05_1132,59.9576734099,MP-Perception Experiment,xx26m21,
74,training(19).webm,True,right,0,dmp_npsi(25)_final(0).webm,0,73,73,38,,,,,,,,11:40:00:210,11:40:01:018,11:40:04:005,right,11:40:04:439,,2013_Jan_05_1132,59.9576734099,MP-Perception Experiment,xx26m21,
75,training(36).webm,False,right,0,vcgpdm_dyn(25)-lvm(25)_final(4).webm,0,74,74,16,,,,,,,,11:40:05:115,11:40:05:940,11:40:08:943,right,11:40:09:193,,2013_Jan_05_1132,59.9576734099,MP-Perception Experiment,xx26m21,
76,training(41).webm,True,right,0,vcgpdm_dyn(10)-lvm(25)_final(3).webm,0,75,75,71,,,,,,,,11:40:09:875,11:40:10:711,11:40:13:696,right,11:40:14:465,,2013_Jan_05_1132,59.9576734099,MP-Perception Experiment,xx26m21,
77,training(20).webm,False,right,0,vgpdm_dyn(10)-lvm(20)_final(2).webm,0,76,76,78,,,,,,,,11:40:15:275,11:40:15:966,11:40:18:969,right,11:40:19:586,,2013_Jan_05_1132,59.9576734099,MP-Perception Experiment,xx26m21,
78,training(40).webm,False,right,0,dmp_npsi(20)_final(9).webm,0,77,77,96,,,,,,,,11:40:20:259,11:40:21:087,11:40:24:089,right,11:40:24:423,,2013_Jan_05_1132,59.9576734099,MP-Perception Experiment,xx26m21,
79,vgpdm_dyn(15)-lvm(35)_final(9).webm,True,left,0,training(22).webm,0,78,78,6,,,,,,,,11:40:25:182,11:40:25:924,11:40:28:927,right,11:40:29:194,,2013_Jan_05_1132,59.9576734099,MP-Perception Experiment,xx26m21,
80,vcgpdm_dyn(25)-lvm(5)_final(4).webm,False,left,0,training(6).webm,0,79,79,97,,,,,,,,11:40:29:871,11:40:30:695,11:40:33:698,left,11:40:33:998,,2013_Jan_05_1132,59.9576734099,MP-Perception Experiment,xx26m21,
81,dmp_npsi(30)_final(3).webm,False,left,0,training(8).webm,0,80,80,53,,,,,,,,11:40:34:667,11:40:35:499,11:40:38:500,left,11:40:38:850,,2013_Jan_05_1132,59.9576734099,MP-Perception Experiment,xx26m21,
82,training(7).webm,True,right,0,vgpdm_dyn(15)-lvm(15)_final(7).webm,0,81,81,43,,,,,,,,11:40:39:530,11:40:40:352,11:40:43:354,right,11:40:43:654,,2013_Jan_05_1132,59.9576734099,MP-Perception Experiment,xx26m21,
83,training(24).webm,True,right,0,vcgpdm_dyn(15)-lvm(20)_final(3).webm,0,82,82,19,,,,,,,,11:40:44:330,11:40:45:156,11:40:48:158,right,11:40:49:662,,2013_Jan_05_1132,59.9576734099,MP-Perception Experiment,xx26m21,
84,training(33).webm,False,right,0,vcgpdm_dyn(20)-lvm(20)_final(2).webm,0,83,83,98,,,,,,,,11:40:50:338,11:40:51:163,11:40:54:166,left,11:40:54:799,,2013_Jan_05_1132,59.9576734099,MP-Perception Experiment,xx26m21,
85,training(36).webm,False,right,0,vcgpdm_dyn(5)-lvm(35)_final(9)_bad.webm,0,84,84,157,,,,,,,,11:40:55:476,11:40:56:301,11:40:59:303,right,11:41:00:404,,2013_Jan_05_1132,59.9576734099,MP-Perception Experiment,xx26m21,
86,training(28).webm,False,right,0,vcgpdm_dyn(20)-lvm(25)_final(2).webm,0,85,85,68,,,,,,,,11:41:01:106,11:41:01:905,11:41:04:908,left,11:41:05:208,,2013_Jan_05_1132,59.9576734099,MP-Perception Experiment,xx26m21,
87,vcgpdm_dyn(25)-lvm(35)_final(1).webm,False,left,0,training(29).webm,0,86,86,76,,,,,,,,11:41:05:888,11:41:06:709,11:41:09:713,left,11:41:10:780,,2013_Jan_05_1132,59.9576734099,MP-Perception Experiment,xx26m21,
88,vcgpdm_dyn(30)-lvm(25)_final(9).webm,False,left,0,training(0).webm,0,87,87,138,,,,,,,,11:41:11:462,11:41:12:281,11:41:15:284,right,11:41:15:617,,2013_Jan_05_1132,59.9576734099,MP-Perception Experiment,xx26m21,
89,training(5).webm,False,right,0,vcgpdm_dyn(15)-lvm(10)_final(3).webm,0,88,88,37,,,,,,,,11:41:16:294,11:41:17:118,11:41:20:138,right,11:41:20:555,,2013_Jan_05_1132,59.9576734099,MP-Perception Experiment,xx26m21,
90,vcgpdm_dyn(20)-lvm(30)_final(8).webm,True,left,0,training(24).webm,0,89,89,61,,,,,,,,11:41:21:181,11:41:22:056,11:41:25:059,left,11:41:25:610,,2013_Jan_05_1132,59.9576734099,MP-Perception Experiment,xx26m21,
91,vcgpdm_dyn(30)-lvm(5)_final(1).webm,False,left,0,training(25).webm,0,90,90,108,,,,,,,,11:41:26:281,11:41:27:111,11:41:30:112,left,11:41:30:462,,2013_Jan_05_1132,59.9576734099,MP-Perception Experiment,xx26m21,
92,vgpdm_dyn(25)-lvm(5)_final(1).webm,False,left,0,training(5).webm,0,91,91,56,,,,,,,,11:41:31:146,11:41:31:980,11:41:34:965,left,11:41:35:282,,2013_Jan_05_1132,59.9576734099,MP-Perception Experiment,xx26m21,
93,vcgpdm_dyn(20)-lvm(35)_final(7).webm,True,left,0,training(28).webm,0,92,92,130,,,,,,,,11:41:35:957,11:41:36:784,11:41:39:786,left,11:41:40:103,,2013_Jan_05_1132,59.9576734099,MP-Perception Experiment,xx26m21,
94,vcgpdm_dyn(10)-lvm(15)_final(1).webm,False,left,0,training(4).webm,0,93,93,120,,,,,,,,11:41:40:786,11:41:41:604,11:41:44:593,right,11:41:44:926,,2013_Jan_05_1132,59.9576734099,MP-Perception Experiment,xx26m21,
95,vgpdm_dyn(30)-lvm(15)_final(7).webm,False,left,0,training(21).webm,0,94,94,116,,,,,,,,11:41:45:605,11:41:46:427,11:41:49:430,left,11:41:49:713,,2013_Jan_05_1132,59.9576734099,MP-Perception Experiment,xx26m21,
96,training(8).webm,True,right,0,vcgpdm_dyn(30)-lvm(25)_final(8).webm,0,95,95,25,,,,,,,,11:41:50:395,11:41:51:215,11:41:54:217,left,11:41:54:734,,2013_Jan_05_1132,59.9576734099,MP-Perception Experiment,xx26m21,
97,training(39).webm,True,right,0,vcgpdm_dyn(10)-lvm(5)_final(0).webm,0,96,96,124,,,,,,,,11:41:55:415,11:41:56:235,11:41:59:239,right,11:41:59:756,,2013_Jan_05_1132,59.9576734099,MP-Perception Experiment,xx26m21,
98,vgpdm_dyn(20)-lvm(25)_final(2).webm,True,left,0,training(21).webm,0,97,97,40,,,,,,,,11:42:00:435,11:42:01:257,11:42:04:260,right,11:42:05:127,,2013_Jan_05_1132,59.9576734099,MP-Perception Experiment,xx26m21,
99,vgpdm_dyn(5)-lvm(30)_final(6).webm,True,left,0,training(23).webm,0,98,98,47,,,,,,,,11:42:05:958,11:42:06:628,11:42:09:631,left,11:42:10:698,,2013_Jan_05_1132,59.9576734099,MP-Perception Experiment,xx26m21,
100,training(14).webm,False,right,0,vgpdm_dyn(25)-lvm(30)_final(7).webm,0,99,99,87,,,,,,,,11:42:11:372,11:42:12:199,11:42:15:202,right,11:42:15:585,,2013_Jan_05_1132,59.9576734099,MP-Perception Experiment,xx26m21,
101,training(25).webm,False,right,0,vcgpdm_dyn(20)-lvm(5)_final(4).webm,0,100,100,20,,,,,,,,11:42:16:432,11:42:17:088,11:42:20:088,right,11:42:20:472,,2013_Jan_05_1132,59.9576734099,MP-Perception Experiment,xx26m21,
102,vcgpdm_dyn(25)-lvm(25)_final(1).webm,False,left,0,training(10).webm,0,101,101,24,,,,,,,,11:42:21:142,11:42:21:973,11:42:24:976,right,11:42:25:559,,2013_Jan_05_1132,59.9576734099,MP-Perception Experiment,xx26m21,
103,vcgpdm_dyn(25)-lvm(15)_final(0).webm,False,left,0,training(16).webm,0,102,102,50,,,,,,,,11:42:26:237,11:42:27:060,11:42:30:048,left,11:42:30:382,,2013_Jan_05_1132,59.9576734099,MP-Perception Experiment,xx26m21,
104,training(9).webm,True,right,0,vcgpdm_dyn(25)-lvm(35)_final(4).webm,0,103,103,22,,,,,,,,11:42:31:065,11:42:31:883,11:42:34:886,right,11:42:35:170,,2013_Jan_05_1132,59.9576734099,MP-Perception Experiment,xx26m21,
105,training(9).webm,False,right,0,vcgpdm_dyn(15)-lvm(30)_final(0).webm,0,104,104,100,,,,,,,,11:42:35:981,11:42:36:671,11:42:39:674,left,11:42:39:924,,2013_Jan_05_1132,59.9576734099,MP-Perception Experiment,xx26m21,
106,map_cgpdm_final(8).webm,False,left,0,training(13).webm,0,105,105,152,,,,,,,,11:42:40:600,11:42:41:425,11:42:44:427,left,11:42:44:778,,2013_Jan_05_1132,59.9576734099,MP-Perception Experiment,xx26m21,
107,training(9).webm,True,right,0,vgpdm_dyn(30)-lvm(35)_final(8).webm,0,106,106,49,,,,,,,,11:42:45:467,11:42:46:279,11:42:49:281,left,11:42:49:632,,2013_Jan_05_1132,59.9576734099,MP-Perception Experiment,xx26m21,
108,vgpdm_dyn(5)-lvm(10)_final(0).webm,False,left,0,training(1).webm,0,107,107,75,,,,,,,,11:42:50:310,11:42:51:133,11:42:54:136,left,11:42:54:553,,2013_Jan_05_1132,59.9576734099,MP-Perception Experiment,xx26m21,
109,training(48).webm,True,right,0,vgpdm_dyn(35)-lvm(5)_final(9).webm,0,108,108,28,,,,,,,,11:42:55:398,11:42:56:054,11:42:59:057,left,11:42:59:424,,2013_Jan_05_1132,59.9576734099,MP-Perception Experiment,xx26m21,
110,training(2).webm,True,right,0,vgpdm_dyn(5)-lvm(10)_final(5).webm,0,109,109,57,,,,,,,,11:43:00:104,11:43:00:925,11:43:03:928,right,11:43:04:278,,2013_Jan_05_1132,59.9576734099,MP-Perception Experiment,xx26m21,
111,vgpdm_dyn(25)-lvm(30)_final(3).webm,False,left,0,training(21).webm,0,110,110,121,,,,,,,,11:43:04:967,11:43:05:779,11:43:08:780,left,11:43:09:848,,2013_Jan_05_1132,59.9576734099,MP-Perception Experiment,xx26m21,
112,training(13).webm,False,right,0,vcgpdm_dyn(20)-lvm(25)_final(5).webm,0,111,111,31,,,,,,,,11:43:10:559,11:43:11:349,11:43:14:352,right,11:43:14:986,,2013_Jan_05_1132,59.9576734099,MP-Perception Experiment,xx26m21,
113,training(48).webm,False,right,0,vgpdm_dyn(15)-lvm(25)_final(0).webm,0,112,112,142,,,,,,,,11:43:15:664,11:43:16:487,11:43:19:489,right,11:43:20:073,,2013_Jan_05_1132,59.9576734099,MP-Perception Experiment,xx26m21,
114,training(1).webm,True,right,0,vcgpdm_dyn(5)-lvm(15)_final(1).webm,0,113,113,1,,,,,,,,11:43:20:751,11:43:21:576,11:43:24:562,right,11:43:25:379,,2013_Jan_05_1132,59.9576734099,MP-Perception Experiment,xx26m21,
115,vgpdm_dyn(30)-lvm(25)_final(2).webm,True,left,0,training(5).webm,0,114,114,106,,,,,,,,11:43:26:058,11:43:26:881,11:43:29:884,right,11:43:30:384,,2013_Jan_05_1132,59.9576734099,MP-Perception Experiment,xx26m21,
116,training(3).webm,True,right,0,vgpdm_dyn(35)-lvm(35)_final(7).webm,0,115,115,109,,,,,,,,11:43:31:059,11:43:31:902,11:43:34:888,left,11:43:35:538,,2013_Jan_05_1132,59.9576734099,MP-Perception Experiment,xx26m21,
117,vcgpdm_dyn(15)-lvm(15)_final(1).webm,True,left,0,training(18).webm,0,116,116,105,,,,,,,,11:43:36:217,11:43:37:039,11:43:40:042,left,11:43:41:043,,2013_Jan_05_1132,59.9576734099,MP-Perception Experiment,xx26m21,
118,training(39).webm,True,right,0,vgpdm_dyn(30)-lvm(10)_final(3).webm,0,117,117,21,,,,,,,,11:43:41:714,11:43:42:544,11:43:45:547,right,11:43:46:732,,2013_Jan_05_1132,59.9576734099,MP-Perception Experiment,xx26m21,
119,vcgpdm_dyn(5)-lvm(10)_final(7).webm,False,left,0,training(4).webm,0,118,118,41,,,,,,,,11:43:47:579,11:43:48:233,11:43:51:235,right,11:43:51:652,,2013_Jan_05_1132,59.9576734099,MP-Perception Experiment,xx26m21,
120,tmp_numprim(7)_final(0).webm,True,left,0,training(48).webm,0,119,119,126,,,,,,,,11:43:52:417,11:43:53:153,11:43:56:156,left,11:43:56:606,,2013_Jan_05_1132,59.9576734099,MP-Perception Experiment,xx26m21,
121,training(2).webm,True,right,0,tmp_numprim(4)_final(0).webm,0,120,120,141,,,,,,,,11:43:57:293,11:43:58:122,11:44:01:108,right,11:44:01:375,,2013_Jan_05_1132,59.9576734099,MP-Perception Experiment,xx26m21,
122,vgpdm_dyn(20)-lvm(35)_final(9).webm,False,left,0,training(12).webm,0,121,121,27,,,,,,,,11:44:02:054,11:44:02:877,11:44:05:880,right,11:44:06:380,,2013_Jan_05_1132,59.9576734099,MP-Perception Experiment,xx26m21,
123,vcgpdm_dyn(20)-lvm(5)_final(6).webm,True,left,0,training(38).webm,0,122,122,156,,,,,,,,11:44:07:059,11:44:07:881,11:44:10:869,left,11:44:11:236,,2013_Jan_05_1132,59.9576734099,MP-Perception Experiment,xx26m21,
124,training(11).webm,False,right,0,vgpdm_dyn(30)-lvm(20)_final(2).webm,0,123,123,42,,,,,,,,11:44:11:919,11:44:12:737,11:44:15:739,left,11:44:16:106,,2013_Jan_05_1132,59.9576734099,MP-Perception Experiment,xx26m21,
125,training(13).webm,False,right,0,map_cgpdm_final(3).webm,0,124,124,51,,,,,,,,11:44:16:785,11:44:17:608,11:44:20:611,right,11:44:21:045,,2013_Jan_05_1132,59.9576734099,MP-Perception Experiment,xx26m21,
126,training(34).webm,True,right,0,vgpdm_dyn(30)-lvm(15)_final(7).webm,0,125,125,151,,,,,,,,11:44:21:717,11:44:22:546,11:44:25:548,right,11:44:25:865,,2013_Jan_05_1132,59.9576734099,MP-Perception Experiment,xx26m21,
127,dmp_npsi(5)_final(3)_bad.webm,True,left,0,training(16).webm,0,126,126,59,,,,,,,,11:44:26:540,11:44:27:366,11:44:30:369,left,11:44:31:370,,2013_Jan_05_1132,59.9576734099,MP-Perception Experiment,xx26m21,
128,training(0).webm,False,right,0,vcgpdm_dyn(35)-lvm(5)_final(9).webm,0,127,127,80,,,,,,,,11:44:32:045,11:44:32:871,11:44:35:873,right,11:44:36:324,,2013_Jan_05_1132,59.9576734099,MP-Perception Experiment,xx26m21,
129,training(32).webm,False,right,0,vgpdm_dyn(5)-lvm(15)_final(3).webm,0,128,128,149,,,,,,,,11:44:37:009,11:44:37:826,11:44:40:828,right,11:44:41:312,,2013_Jan_05_1132,59.9576734099,MP-Perception Experiment,xx26m21,
130,training(32).webm,False,right,0,vcgpdm_dyn(5)-lvm(5)_final(0).webm,0,129,129,7,,,,,,,,11:44:42:003,11:44:42:813,11:44:45:816,right,11:44:46:249,,2013_Jan_05_1132,59.9576734099,MP-Perception Experiment,xx26m21,
131,training(18).webm,False,right,0,vgpdm_dyn(10)-lvm(5)_final(7).webm,0,130,130,103,,,,,,,,11:44:47:057,11:44:47:750,11:44:50:751,right,11:44:51:168,,2013_Jan_05_1132,59.9576734099,MP-Perception Experiment,xx26m21,
132,training(22).webm,False,right,0,vcgpdm_dyn(15)-lvm(5)_final(2).webm,0,131,131,33,,,,,,,,11:44:51:998,11:44:52:669,11:44:55:673,right,11:44:56:040,,2013_Jan_05_1132,59.9576734099,MP-Perception Experiment,xx26m21,
133,vgpdm_dyn(25)-lvm(30)_final(0).webm,False,left,0,training(31).webm,0,132,132,117,,,,,,,,11:44:56:882,11:44:57:541,11:45:00:529,right,11:45:01:112,,2013_Jan_05_1132,59.9576734099,MP-Perception Experiment,xx26m21,
134,vgpdm_dyn(15)-lvm(30)_final(5).webm,False,left,0,training(25).webm,0,133,133,90,,,,,,,,11:45:01:786,11:45:02:613,11:45:05:616,left,11:45:06:016,,2013_Jan_05_1132,59.9576734099,MP-Perception Experiment,xx26m21,
135,tmp_numprim(6)_final(0).webm,True,left,0,training(40).webm,0,134,134,73,,,,,,,,11:45:06:697,11:45:07:517,11:45:10:520,left,11:45:10:887,,2013_Jan_05_1132,59.9576734099,MP-Perception Experiment,xx26m21,
136,vcgpdm_dyn(10)-lvm(20)_final(3).webm,False,left,0,training(32).webm,0,135,135,154,,,,,,,,11:45:11:718,11:45:12:389,11:45:15:392,left,11:45:15:658,,2013_Jan_05_1132,59.9576734099,MP-Perception Experiment,xx26m21,
137,vcgpdm_dyn(25)-lvm(20)_final(8).webm,False,left,0,training(35).webm,0,136,136,36,,,,,,,,11:45:16:333,11:45:17:160,11:45:20:162,left,11:45:20:546,,2013_Jan_05_1132,59.9576734099,MP-Perception Experiment,xx26m21,
138,tmp_numprim(9)_final(4).webm,False,left,0,training(32).webm,0,137,137,122,,,,,,,,11:45:21:278,11:45:22:047,11:45:25:049,left,11:45:25:266,,2013_Jan_05_1132,59.9576734099,MP-Perception Experiment,xx26m21,
139,vgpdm_dyn(30)-lvm(25)_final(8).webm,True,left,0,training(9).webm,0,138,138,72,,,,,,,,11:45:26:112,11:45:26:767,11:45:29:771,left,11:45:30:038,,2013_Jan_05_1132,59.9576734099,MP-Perception Experiment,xx26m21,
140,training(32).webm,False,right,0,vgpdm_dyn(35)-lvm(10)_final(3).webm,0,139,139,86,,,,,,,,11:45:30:712,11:45:31:539,11:45:34:541,right,11:45:34:992,,2013_Jan_05_1132,59.9576734099,MP-Perception Experiment,xx26m21,
141,training(34).webm,True,right,0,vgpdm_dyn(30)-lvm(10)_final(8).webm,0,140,140,65,,,,,,,,11:45:35:832,11:45:36:493,11:45:39:494,right,11:45:39:827,,2013_Jan_05_1132,59.9576734099,MP-Perception Experiment,xx26m21,
142,training(14).webm,False,right,0,vcgpdm_dyn(35)-lvm(30)_final(5).webm,0,141,141,135,,,,,,,,11:45:40:509,11:45:41:328,11:45:44:331,right,11:45:44:631,,2013_Jan_05_1132,59.9576734099,MP-Perception Experiment,xx26m21,
143,training(27).webm,False,right,0,tmp_numprim(10)_final(8).webm,0,142,142,118,,,,,,,,11:45:45:315,11:45:46:132,11:45:49:121,right,11:45:49:521,,2013_Jan_05_1132,59.9576734099,MP-Perception Experiment,xx26m21,
144,training(23).webm,False,right,0,vgpdm_dyn(15)-lvm(10)_final(1)_out_of_screen.webm,0,143,143,32,,,,,,,,11:45:50:202,11:45:51:022,11:45:54:025,right,11:45:54:609,,2013_Jan_05_1132,59.9576734099,MP-Perception Experiment,xx26m21,
145,dmp_npsi(45)_final(3).webm,False,left,0,training(2).webm,0,144,144,83,,,,,,,,11:45:55:292,11:45:56:110,11:45:59:112,left,11:46:00:480,,2013_Jan_05_1132,59.9576734099,MP-Perception Experiment,xx26m21,
146,training(18).webm,True,right,0,vgpdm_dyn(15)-lvm(30)_final(7).webm,0,145,145,13,,,,,,,,11:46:01:161,11:46:01:981,11:46:04:985,right,11:46:05:418,,2013_Jan_05_1132,59.9576734099,MP-Perception Experiment,xx26m21,
147,vcgpdm_dyn(10)-lvm(20)_final(5).webm,False,left,0,training(36).webm,0,146,146,146,,,,,,,,11:46:06:279,11:46:06:919,11:46:09:922,left,11:46:10:255,,2013_Jan_05_1132,59.9576734099,MP-Perception Experiment,xx26m21,
148,vgpdm_dyn(35)-lvm(5)_final(5).webm,False,left,0,training(30).webm,0,147,147,14,,,,,,,,11:46:10:933,11:46:11:757,11:46:14:759,left,11:46:15:276,,2013_Jan_05_1132,59.9576734099,MP-Perception Experiment,xx26m21,
149,training(9).webm,False,right,0,vgpdm_dyn(20)-lvm(15)_final(2).webm,0,148,148,44,,,,,,,,11:46:15:959,11:46:16:777,11:46:19:780,right,11:46:20:147,,2013_Jan_05_1132,59.9576734099,MP-Perception Experiment,xx26m21,
150,training(48).webm,False,right,0,dmp_npsi(20)_final(2).webm,0,149,149,132,,,,,,,,11:46:20:828,11:46:21:649,11:46:24:651,right,11:46:25:085,,2013_Jan_05_1132,59.9576734099,MP-Perception Experiment,xx26m21,
151,training(28).webm,False,right,0,map_gpdm_final(0).webm,0,150,150,137,,,,,,,,11:46:25:797,11:46:26:586,11:46:29:587,right,11:46:30:404,,2013_Jan_05_1132,59.9576734099,MP-Perception Experiment,xx26m21,
152,training(39).webm,True,right,0,vgpdm_dyn(30)-lvm(30)_final(8).webm,0,151,151,10,,,,,,,,11:46:31:084,11:46:31:905,11:46:34:908,right,11:46:35:292,,2013_Jan_05_1132,59.9576734099,MP-Perception Experiment,xx26m21,
153,training(39).webm,True,right,0,vgpdm_dyn(30)-lvm(20)_final(1).webm,0,152,152,58,,,,,,,,11:46:36:129,11:46:36:793,11:46:39:796,right,11:46:39:996,,2013_Jan_05_1132,59.9576734099,MP-Perception Experiment,xx26m21,
154,training(40).webm,True,right,0,dmp_npsi(40)_final(0).webm,0,153,153,62,,,,,,,,11:46:40:674,11:46:41:497,11:46:44:485,right,11:46:45:136,,2013_Jan_05_1132,59.9576734099,MP-Perception Experiment,xx26m21,
155,vgpdm_dyn(30)-lvm(25)_final(9).webm,True,left,0,training(20).webm,0,154,154,88,,,,,,,,11:46:45:810,11:46:46:637,11:46:49:639,right,11:46:50:190,,2013_Jan_05_1132,59.9576734099,MP-Perception Experiment,xx26m21,
156,vgpdm_dyn(35)-lvm(30)_final(5).webm,False,left,0,training(12).webm,0,155,155,84,,,,,,,,11:46:50:867,11:46:51:691,11:46:54:693,left,11:46:55:210,,2013_Jan_05_1132,59.9576734099,MP-Perception Experiment,xx26m21,
157,training(31).webm,True,right,0,tmp_numprim(6)_final(5).webm,0,156,156,104,,,,,,,,11:46:55:887,11:46:56:713,11:46:59:715,right,11:47:00:299,,2013_Jan_05_1132,59.9576734099,MP-Perception Experiment,xx26m21,
158,training(12).webm,True,right,0,vcgpdm_dyn(20)-lvm(15)_final(4).webm,0,157,157,63,,,,,,,,11:47:00:978,11:47:01:800,11:47:04:803,left,11:47:05:503,,2013_Jan_05_1132,59.9576734099,MP-Perception Experiment,xx26m21,
159,training(39).webm,True,right,0,vgpdm_dyn(20)-lvm(15)_final(7).webm,0,158,158,99,,,,,,,,11:47:06:177,11:47:07:004,11:47:10:007,left,11:47:10:607,,2013_Jan_05_1132,59.9576734099,MP-Perception Experiment,xx26m21,
160,training(1).webm,False,right,1,vgpdm_dyn(10)-lvm(10)_final(8).webm,0,0,0,71,,,,,,,,11:49:17:164,11:49:17:818,11:49:20:804,right,11:49:21:404,,2013_Jan_05_1132,59.9576734099,MP-Perception Experiment,xx26m21,
161,vcgpdm_dyn(10)-lvm(15)_final(5).webm,True,left,1,training(34).webm,0,1,1,23,,,,,,,,11:49:22:085,11:49:22:905,11:49:25:908,left,11:49:26:441,,2013_Jan_05_1132,59.9576734099,MP-Perception Experiment,xx26m21,
162,training(27).webm,True,right,1,vgpdm_dyn(25)-lvm(35)_final(8).webm,0,2,2,97,,,,,,,,11:49:27:121,11:49:27:943,11:49:30:945,left,11:49:31:629,,2013_Jan_05_1132,59.9576734099,MP-Perception Experiment,xx26m21,
163,vcgpdm_dyn(25)-lvm(30)_final(1).webm,True,left,1,training(38).webm,0,3,3,3,,,,,,,,11:49:32:477,11:49:33:130,11:49:36:134,left,11:49:36:701,,2013_Jan_05_1132,59.9576734099,MP-Perception Experiment,xx26m21,
164,vcgpdm_dyn(20)-lvm(20)_final(0).webm,True,left,1,training(48).webm,0,4,4,39,,,,,,,,11:49:37:426,11:49:38:202,11:49:41:205,left,11:49:42:089,,2013_Jan_05_1132,59.9576734099,MP-Perception Experiment,xx26m21,
165,training(35).webm,False,right,1,vgpdm_dyn(10)-lvm(25)_final(9).webm,0,5,5,57,,,,,,,,11:49:42:893,11:49:43:590,11:49:46:592,left,11:49:49:826,,2013_Jan_05_1132,59.9576734099,MP-Perception Experiment,xx26m21,
166,vgpdm_dyn(35)-lvm(5)_final(2).webm,False,left,1,training(40).webm,0,6,6,124,,,,,,,,11:49:50:505,11:49:51:328,11:49:54:331,right,11:49:55:015,,2013_Jan_05_1132,59.9576734099,MP-Perception Experiment,xx26m21,
167,training(14).webm,True,right,1,tmp_numprim(10)_final(5).webm,0,7,7,1,,,,,,,,11:49:55:694,11:49:56:516,11:49:59:518,right,11:49:59:869,,2013_Jan_05_1132,59.9576734099,MP-Perception Experiment,xx26m21,
168,training(24).webm,False,right,1,vgpdm_dyn(35)-lvm(30)_final(6).webm,0,8,8,33,,,,,,,,11:50:00:550,11:50:01:372,11:50:04:374,right,11:50:05:191,,2013_Jan_05_1132,59.9576734099,MP-Perception Experiment,xx26m21,
169,training(40).webm,True,right,1,vgpdm_dyn(20)-lvm(5)_final(2).webm,0,9,9,24,,,,,,,,11:50:05:866,11:50:06:709,11:50:09:696,right,11:50:10:330,,2013_Jan_05_1132,59.9576734099,MP-Perception Experiment,xx26m21,
170,vgpdm_dyn(5)-lvm(10)_final(0).webm,False,left,1,training(1).webm,0,10,10,72,,,,,,,,11:50:11:000,11:50:11:831,11:50:14:834,left,11:50:15:551,,2013_Jan_05_1132,59.9576734099,MP-Perception Experiment,xx26m21,
171,training(7).webm,True,right,1,vgpdm_dyn(25)-lvm(30)_final(1).webm,0,11,11,28,,,,,,,,11:50:16:230,11:50:17:052,11:50:20:055,right,11:50:20:555,,2013_Jan_05_1132,59.9576734099,MP-Perception Experiment,xx26m21,
172,training(3).webm,False,right,1,vcgpdm_dyn(20)-lvm(15)_final(4).webm,0,12,12,54,,,,,,,,11:50:21:230,11:50:22:056,11:50:25:059,right,11:50:25:876,,2013_Jan_05_1132,59.9576734099,MP-Perception Experiment,xx26m21,
173,vcgpdm_dyn(5)-lvm(10)_final(1).webm,False,left,1,training(17).webm,0,13,13,149,,,,,,,,11:50:26:564,11:50:27:378,11:50:30:381,left,11:50:31:498,,2013_Jan_05_1132,59.9576734099,MP-Perception Experiment,xx26m21,
174,vgpdm_dyn(35)-lvm(10)_final(5).webm,True,left,1,training(17).webm,0,14,14,76,,,,,,,,11:50:32:173,11:50:32:999,11:50:36:002,left,11:50:36:686,,2013_Jan_05_1132,59.9576734099,MP-Perception Experiment,xx26m21,
175,training(32).webm,True,right,1,vcgpdm_dyn(25)-lvm(35)_final(9).webm,0,15,15,86,,,,,,,,11:50:37:363,11:50:38:202,11:50:41:187,right,11:50:42:238,,2013_Jan_05_1132,59.9576734099,MP-Perception Experiment,xx26m21,
176,vgpdm_dyn(15)-lvm(25)_final(2).webm,True,left,1,training(36).webm,0,16,16,121,,,,,,,,11:50:42:918,11:50:43:740,11:50:46:743,left,11:50:47:544,,2013_Jan_05_1132,59.9576734099,MP-Perception Experiment,xx26m21,
177,dmp_npsi(20)_final(7).webm,True,left,1,training(2).webm,0,17,17,93,,,,,,,,11:50:48:218,11:50:49:045,11:50:52:032,left,11:50:52:683,,2013_Jan_05_1132,59.9576734099,MP-Perception Experiment,xx26m21,
178,map_cgpdm_final(0).webm,False,left,1,training(13).webm,0,18,18,92,,,,,,,,11:50:53:361,11:50:54:184,11:50:57:187,left,11:50:57:904,,2013_Jan_05_1132,59.9576734099,MP-Perception Experiment,xx26m21,
179,training(9).webm,False,right,1,vgpdm_dyn(20)-lvm(25)_final(2).webm,0,19,19,114,,,,,,,,11:50:58:583,11:50:59:405,11:51:02:408,left,11:51:03:242,,2013_Jan_05_1132,59.9576734099,MP-Perception Experiment,xx26m21,
180,training(19).webm,True,right,1,vgpdm_dyn(15)-lvm(25)_final(3).webm,0,20,20,78,,,,,,,,11:51:03:923,11:51:04:743,11:51:07:746,right,11:51:08:230,,2013_Jan_05_1132,59.9576734099,MP-Perception Experiment,xx26m21,
181,vgpdm_dyn(5)-lvm(30)_final(9).webm,False,left,1,training(24).webm,0,21,21,9,,,,,,,,11:51:08:911,11:51:09:731,11:51:12:733,left,11:51:13:267,,2013_Jan_05_1132,59.9576734099,MP-Perception Experiment,xx26m21,
182,vgpdm_dyn(5)-lvm(30)_final(5).webm,True,left,1,training(19).webm,0,22,22,144,,,,,,,,11:51:13:945,11:51:14:768,11:51:17:771,left,11:51:18:371,,2013_Jan_05_1132,59.9576734099,MP-Perception Experiment,xx26m21,
183,dmp_npsi(45)_final(5).webm,False,left,1,training(31).webm,0,23,23,109,,,,,,,,11:51:19:048,11:51:19:890,11:51:22:876,left,11:51:23:543,,2013_Jan_05_1132,59.9576734099,MP-Perception Experiment,xx26m21,
184,vcgpdm_dyn(15)-lvm(10)_final(3).webm,True,left,1,training(33).webm,0,24,24,26,,,,,,,,11:51:24:213,11:51:25:044,11:51:28:045,left,11:51:28:679,,2013_Jan_05_1132,59.9576734099,MP-Perception Experiment,xx26m21,
185,training(17).webm,False,right,1,vcgpdm_dyn(10)-lvm(25)_final(6).webm,0,25,25,131,,,,,,,,11:51:29:386,11:51:30:180,11:51:33:182,right,11:51:33:516,,2013_Jan_05_1132,59.9576734099,MP-Perception Experiment,xx26m21,
186,training(20).webm,True,right,1,vcgpdm_dyn(30)-lvm(25)_final(1).webm,0,26,26,85,,,,,,,,11:51:34:201,11:51:35:017,11:51:38:021,right,11:51:39:071,,2013_Jan_05_1132,59.9576734099,MP-Perception Experiment,xx26m21,
187,vcgpdm_dyn(20)-lvm(30)_final(6).webm,True,left,1,training(21).webm,0,27,27,62,,,,,,,,11:51:39:761,11:51:40:573,11:51:43:560,left,11:51:44:711,,2013_Jan_05_1132,59.9576734099,MP-Perception Experiment,xx26m21,
188,training(29).webm,False,right,1,vcgpdm_dyn(30)-lvm(20)_final(2).webm,0,28,28,120,,,,,,,,11:51:45:398,11:51:46:212,11:51:49:215,right,11:51:49:982,,2013_Jan_05_1132,59.9576734099,MP-Perception Experiment,xx26m21,
189,training(36).webm,False,right,1,vcgpdm_dyn(10)-lvm(25)_final(7).webm,0,29,29,152,,,,,,,,11:51:50:691,11:51:51:483,11:51:54:487,right,11:51:55:237,,2013_Jan_05_1132,59.9576734099,MP-Perception Experiment,xx26m21,
190,training(9).webm,False,right,1,vcgpdm_dyn(20)-lvm(5)_final(0).webm,0,30,30,4,,,,,,,,11:51:55:959,11:51:56:738,11:51:59:741,left,11:52:02:360,,2013_Jan_05_1132,59.9576734099,MP-Perception Experiment,xx26m21,
191,vcgpdm_dyn(25)-lvm(15)_final(5).webm,False,left,1,training(33).webm,0,31,31,18,,,,,,,,11:52:03:079,11:52:03:861,11:52:06:863,right,11:52:07:614,,2013_Jan_05_1132,59.9576734099,MP-Perception Experiment,xx26m21,
192,training(27).webm,False,right,1,vcgpdm_dyn(30)-lvm(30)_final(2).webm,0,32,32,103,,,,,,,,11:52:08:482,11:52:09:115,11:52:12:119,right,11:52:12:686,,2013_Jan_05_1132,59.9576734099,MP-Perception Experiment,xx26m21,
193,training(25).webm,True,right,1,vgpdm_dyn(20)-lvm(5)_final(7).webm,0,33,33,82,,,,,,,,11:52:13:369,11:52:14:187,11:52:17:189,left,11:52:17:890,,2013_Jan_05_1132,59.9576734099,MP-Perception Experiment,xx26m21,
194,training(4).webm,False,right,1,dmp_npsi(35)_final(1).webm,0,34,34,104,,,,,,,,11:52:18:712,11:52:19:406,11:52:22:408,right,11:52:22:742,,2013_Jan_05_1132,59.9576734099,MP-Perception Experiment,xx26m21,
195,vcgpdm_dyn(5)-lvm(10)_final(5).webm,False,left,1,training(29).webm,0,35,35,157,,,,,,,,11:52:23:565,11:52:24:243,11:52:27:246,left,11:52:27:563,,2013_Jan_05_1132,59.9576734099,MP-Perception Experiment,xx26m21,
196,dmp_npsi(20)_final(5).webm,True,left,1,training(37).webm,0,36,36,30,,,,,,,,11:52:28:327,11:52:29:065,11:52:32:052,left,11:52:32:670,,2013_Jan_05_1132,59.9576734099,MP-Perception Experiment,xx26m21,
197,tmp_numprim(3)_final(0).webm,False,left,1,training(19).webm,0,37,37,128,,,,,,,,11:52:33:373,11:52:34:171,11:52:37:173,left,11:52:37:724,,2013_Jan_05_1132,59.9576734099,MP-Perception Experiment,xx26m21,
198,vcgpdm_dyn(10)-lvm(35)_final(3).webm,False,left,1,training(11).webm,0,38,38,156,,,,,,,,11:52:38:466,11:52:39:225,11:52:42:244,left,11:52:43:011,,2013_Jan_05_1132,59.9576734099,MP-Perception Experiment,xx26m21,
199,vcgpdm_dyn(35)-lvm(5)_final(3).webm,False,left,1,training(33).webm,0,39,39,46,,,,,,,,11:52:43:688,11:52:44:512,11:52:47:516,left,11:52:48:633,,2013_Jan_05_1132,59.9576734099,MP-Perception Experiment,xx26m21,
200,training(5).webm,True,right,1,vcgpdm_dyn(25)-lvm(10)_final(5).webm,0,40,40,70,,,,,,,,11:52:49:309,11:52:50:135,11:52:53:137,right,11:52:53:721,,2013_Jan_05_1132,59.9576734099,MP-Perception Experiment,xx26m21,
201,training(18).webm,True,right,1,dmp_npsi(50)_final(3).webm,0,41,41,5,,,,,,,,11:52:54:538,11:52:55:222,11:52:58:225,left,11:52:58:958,,2013_Jan_05_1132,59.9576734099,MP-Perception Experiment,xx26m21,
202,training(22).webm,False,right,1,vcgpdm_dyn(15)-lvm(25)_final(2).webm,0,42,42,142,,,,,,,,11:52:59:636,11:53:00:460,11:53:03:462,right,11:53:04:214,,2013_Jan_05_1132,59.9576734099,MP-Perception Experiment,xx26m21,
203,vcgpdm_dyn(5)-lvm(15)_final(3).webm,False,left,1,training(6).webm,0,43,43,43,,,,,,,,11:53:04:937,11:53:05:715,11:53:08:716,left,11:53:09:416,,2013_Jan_05_1132,59.9576734099,MP-Perception Experiment,xx26m21,
204,training(8).webm,False,right,1,tmp_numprim(4)_final(9).webm,0,44,44,115,,,,,,,,11:53:10:261,11:53:10:917,11:53:13:920,right,11:53:14:637,,2013_Jan_05_1132,59.9576734099,MP-Perception Experiment,xx26m21,
205,vgpdm_dyn(25)-lvm(25)_final(1)_bad.webm,False,left,1,training(27).webm,0,45,45,132,,,,,,,,11:53:15:488,11:53:16:138,11:53:19:141,left,11:53:19:908,,2013_Jan_05_1132,59.9576734099,MP-Perception Experiment,xx26m21,
206,training(1).webm,False,right,1,vgpdm_dyn(35)-lvm(25)_final(9).webm,0,46,46,137,,,,,,,,11:53:20:731,11:53:21:412,11:53:24:414,right,11:53:25:048,,2013_Jan_05_1132,59.9576734099,MP-Perception Experiment,xx26m21,
207,training(21).webm,True,right,1,vgpdm_dyn(20)-lvm(5)_final(1).webm,0,47,47,12,,,,,,,,11:53:25:876,11:53:26:549,11:53:29:552,right,11:53:30:669,,2013_Jan_05_1132,59.9576734099,MP-Perception Experiment,xx26m21,
208,training(16).webm,True,right,1,vgpdm_dyn(20)-lvm(35)_final(3).webm,0,48,48,65,,,,,,,,11:53:31:344,11:53:32:170,11:53:35:173,right,11:53:35:957,,2013_Jan_05_1132,59.9576734099,MP-Perception Experiment,xx26m21,
209,training(36).webm,False,right,1,vcgpdm_dyn(25)-lvm(30)_final(4).webm,0,49,49,67,,,,,,,,11:53:36:819,11:53:37:458,11:53:40:462,right,11:53:41:045,,2013_Jan_05_1132,59.9576734099,MP-Perception Experiment,xx26m21,
210,training(12).webm,False,right,1,tmp_numprim(5)_final(3).webm,0,50,50,89,,,,,,,,11:53:41:725,11:53:42:546,11:53:45:549,right,11:53:45:983,,2013_Jan_05_1132,59.9576734099,MP-Perception Experiment,xx26m21,
211,training(20).webm,True,right,1,vgpdm_dyn(10)-lvm(10)_final(8).webm,0,51,51,116,,,,,,,,11:53:46:654,11:53:47:484,11:53:50:486,right,11:53:51:454,,2013_Jan_05_1132,59.9576734099,MP-Perception Experiment,xx26m21,
212,training(30).webm,True,right,1,vgpdm_dyn(30)-lvm(30)_final(5).webm,0,52,52,126,,,,,,,,11:53:52:264,11:53:52:955,11:53:55:957,right,11:53:56:576,,2013_Jan_05_1132,59.9576734099,MP-Perception Experiment,xx26m21,
213,vgpdm_dyn(25)-lvm(10)_final(7)_out_of_screen.webm,True,left,1,training(16).webm,0,53,53,64,,,,,,,,11:53:57:407,11:53:58:092,11:54:01:077,left,11:54:01:828,,2013_Jan_05_1132,59.9576734099,MP-Perception Experiment,xx26m21,
214,training(35).webm,True,right,1,map_cgpdm_final(9).webm,0,54,54,20,,,,,,,,11:54:02:642,11:54:03:329,11:54:06:332,right,11:54:07:016,,2013_Jan_05_1132,59.9576734099,MP-Perception Experiment,xx26m21,
215,vcgpdm_dyn(15)-lvm(5)_final(0).webm,False,left,1,training(48).webm,0,55,55,56,,,,,,,,11:54:07:701,11:54:08:517,11:54:11:504,right,11:54:12:422,,2013_Jan_05_1132,59.9576734099,MP-Perception Experiment,xx26m21,
216,training(21).webm,False,right,1,vcgpdm_dyn(5)-lvm(10)_final(9).webm,0,56,56,2,,,,,,,,11:54:13:105,11:54:13:924,11:54:16:926,right,11:54:17:527,,2013_Jan_05_1132,59.9576734099,MP-Perception Experiment,xx26m21,
217,map_cgpdm_final(7).webm,True,left,1,training(22).webm,0,57,57,75,,,,,,,,11:54:18:227,11:54:19:028,11:54:22:031,left,11:54:22:648,,2013_Jan_05_1132,59.9576734099,MP-Perception Experiment,xx26m21,
218,training(1).webm,False,right,1,vgpdm_dyn(20)-lvm(30)_final(3).webm,0,58,58,151,,,,,,,,11:54:23:370,11:54:24:149,11:54:27:151,right,11:54:28:352,,2013_Jan_05_1132,59.9576734099,MP-Perception Experiment,xx26m21,
219,training(19).webm,True,right,1,vgpdm_dyn(10)-lvm(5)_final(0).webm,0,59,59,60,,,,,,,,11:54:29:060,11:54:29:853,11:54:32:857,right,11:54:33:357,,2013_Jan_05_1132,59.9576734099,MP-Perception Experiment,xx26m21,
220,vcgpdm_dyn(10)-lvm(20)_final(3).webm,False,left,1,training(18).webm,0,60,60,69,,,,,,,,11:54:34:044,11:54:34:858,11:54:37:861,left,11:54:38:495,,2013_Jan_05_1132,59.9576734099,MP-Perception Experiment,xx26m21,
221,vcgpdm_dyn(5)-lvm(15)_final(3).webm,True,left,1,training(30).webm,0,61,61,106,,,,,,,,11:54:39:171,11:54:39:996,11:54:42:998,left,11:54:43:515,,2013_Jan_05_1132,59.9576734099,MP-Perception Experiment,xx26m21,
222,training(35).webm,False,right,1,vcgpdm_dyn(35)-lvm(35)_final(6)_bad.webm,0,62,62,38,,,,,,,,11:54:44:220,11:54:45:017,11:54:48:017,right,11:54:49:086,,2013_Jan_05_1132,59.9576734099,MP-Perception Experiment,xx26m21,
223,dmp_npsi(35)_final(6).webm,False,left,1,training(36).webm,0,63,63,17,,,,,,,,11:54:49:762,11:54:50:587,11:54:53:590,right,11:54:54:924,,2013_Jan_05_1132,59.9576734099,MP-Perception Experiment,xx26m21,
224,training(11).webm,False,right,1,vgpdm_dyn(30)-lvm(25)_final(9).webm,0,64,64,21,,,,,,,,11:54:55:598,11:54:56:425,11:54:59:428,left,11:55:00:197,,2013_Jan_05_1132,59.9576734099,MP-Perception Experiment,xx26m21,
225,training(37).webm,False,right,1,map_gpdm_final(5).webm,0,65,65,107,,,,,,,,11:55:00:881,11:55:01:698,11:55:04:700,right,11:55:05:818,,2013_Jan_05_1132,59.9576734099,MP-Perception Experiment,xx26m21,
226,tmp_numprim(10)_final(6).webm,False,left,1,training(26).webm,0,66,66,45,,,,,,,,11:55:06:502,11:55:07:320,11:55:10:323,left,11:55:11:056,,2013_Jan_05_1132,59.9576734099,MP-Perception Experiment,xx26m21,
227,training(40).webm,False,right,1,vgpdm_dyn(30)-lvm(35)_final(3).webm,0,67,67,127,,,,,,,,11:55:11:739,11:55:12:557,11:55:15:560,right,11:55:16:144,,2013_Jan_05_1132,59.9576734099,MP-Perception Experiment,xx26m21,
228,training(17).webm,False,right,1,vcgpdm_dyn(15)-lvm(5)_final(7).webm,0,68,68,110,,,,,,,,11:55:16:830,11:55:17:645,11:55:20:648,right,11:55:21:098,,2013_Jan_05_1132,59.9576734099,MP-Perception Experiment,xx26m21,
229,vcgpdm_dyn(15)-lvm(15)_final(1).webm,False,left,1,training(37).webm,0,69,69,119,,,,,,,,11:55:21:775,11:55:22:599,11:55:25:603,left,11:55:26:103,,2013_Jan_05_1132,59.9576734099,MP-Perception Experiment,xx26m21,
230,training(24).webm,True,right,1,vgpdm_dyn(10)-lvm(35)_final(9).webm,0,70,70,118,,,,,,,,11:55:26:788,11:55:27:604,11:55:30:607,right,11:55:31:007,,2013_Jan_05_1132,59.9576734099,MP-Perception Experiment,xx26m21,
231,vcgpdm_dyn(20)-lvm(20)_final(4).webm,True,left,1,training(39).webm,0,71,71,73,,,,,,,,11:55:31:689,11:55:32:508,11:55:35:511,left,11:55:37:896,,2013_Jan_05_1132,59.9576734099,MP-Perception Experiment,xx26m21,
232,vcgpdm_dyn(20)-lvm(35)_final(5).webm,False,left,1,training(31).webm,0,72,72,48,,,,,,,,11:55:38:657,11:55:39:412,11:55:42:415,left,11:55:43:116,,2013_Jan_05_1132,59.9576734099,MP-Perception Experiment,xx26m21,
233,vgpdm_dyn(5)-lvm(15)_final(1).webm,True,left,1,training(32).webm,0,73,73,16,,,,,,,,11:55:43:788,11:55:44:617,11:55:47:619,left,11:55:48:987,,2013_Jan_05_1132,59.9576734099,MP-Perception Experiment,xx26m21,
234,tmp_numprim(7)_final(6).webm,True,left,1,training(36).webm,0,74,74,98,,,,,,,,11:55:49:838,11:55:50:490,11:55:53:476,left,11:55:54:377,,2013_Jan_05_1132,59.9576734099,MP-Perception Experiment,xx26m21,
235,vcgpdm_dyn(25)-lvm(15)_final(9).webm,False,left,1,training(8).webm,0,75,75,35,,,,,,,,11:55:55:147,11:55:55:878,11:55:58:881,right,11:55:59:949,,2013_Jan_05_1132,59.9576734099,MP-Perception Experiment,xx26m21,
236,vcgpdm_dyn(15)-lvm(10)_final(7).webm,False,left,1,training(30).webm,0,76,76,138,,,,,,,,11:56:00:716,11:56:01:450,11:56:04:453,right,11:56:06:187,,2013_Jan_05_1132,59.9576734099,MP-Perception Experiment,xx26m21,
237,training(35).webm,False,right,1,vcgpdm_dyn(30)-lvm(5)_final(2).webm,0,77,77,96,,,,,,,,11:56:06:864,11:56:07:688,11:56:10:691,left,11:56:11:959,,2013_Jan_05_1132,59.9576734099,MP-Perception Experiment,xx26m21,
238,vgpdm_dyn(20)-lvm(35)_final(0).webm,False,left,1,training(29).webm,0,78,78,41,,,,,,,,11:56:12:638,11:56:13:460,11:56:16:463,right,11:56:17:447,,2013_Jan_05_1132,59.9576734099,MP-Perception Experiment,xx26m21,
239,training(22).webm,True,right,1,vgpdm_dyn(5)-lvm(20)_final(6).webm,0,79,79,53,,,,,,,,11:56:18:125,11:56:18:948,11:56:21:951,right,11:56:23:486,,2013_Jan_05_1132,59.9576734099,MP-Perception Experiment,xx26m21,
240,vcgpdm_dyn(35)-lvm(30)_final(0).webm,False,left,1,training(24).webm,0,80,80,49,,,,,,,,11:56:24:165,11:56:24:987,11:56:27:987,left,11:56:28:921,,2013_Jan_05_1132,59.9576734099,MP-Perception Experiment,xx26m21,
241,training(31).webm,False,right,1,vgpdm_dyn(20)-lvm(20)_final(7).webm,0,81,81,50,,,,,,,,11:56:29:764,11:56:30:423,11:56:33:426,left,11:56:34:110,,2013_Jan_05_1132,59.9576734099,MP-Perception Experiment,xx26m21,
242,training(8).webm,False,right,1,vgpdm_dyn(20)-lvm(30)_final(9).webm,0,82,82,25,,,,,,,,11:56:34:788,11:56:35:611,11:56:38:614,left,11:56:39:197,,2013_Jan_05_1132,59.9576734099,MP-Perception Experiment,xx26m21,
243,vcgpdm_dyn(10)-lvm(15)_final(9).webm,True,left,1,training(38).webm,0,83,83,111,,,,,,,,11:56:40:043,11:56:40:700,11:56:43:686,left,11:56:44:203,,2013_Jan_05_1132,59.9576734099,MP-Perception Experiment,xx26m21,
244,vcgpdm_dyn(10)-lvm(15)_final(4).webm,True,left,1,training(8).webm,0,84,84,10,,,,,,,,11:56:44:885,11:56:45:704,11:56:48:707,left,11:56:49:674,,2013_Jan_05_1132,59.9576734099,MP-Perception Experiment,xx26m21,
245,tmp_numprim(9)_final(4).webm,False,left,1,training(22).webm,0,85,85,7,,,,,,,,11:56:50:352,11:56:51:176,11:56:54:179,left,11:56:54:980,,2013_Jan_05_1132,59.9576734099,MP-Perception Experiment,xx26m21,
246,training(38).webm,True,right,1,vgpdm_dyn(25)-lvm(20)_final(9).webm,0,86,86,84,,,,,,,,11:56:55:836,11:56:56:481,11:56:59:483,right,11:57:00:434,,2013_Jan_05_1132,59.9576734099,MP-Perception Experiment,xx26m21,
247,vcgpdm_dyn(10)-lvm(30)_final(3).webm,False,left,1,training(16).webm,0,87,87,141,,,,,,,,11:57:01:282,11:57:01:935,11:57:04:938,left,11:57:05:888,,2013_Jan_05_1132,59.9576734099,MP-Perception Experiment,xx26m21,
248,training(8).webm,False,right,1,vcgpdm_dyn(15)-lvm(20)_final(7).webm,0,88,88,77,,,,,,,,11:57:06:714,11:57:07:390,11:57:10:393,right,11:57:10:793,,2013_Jan_05_1132,59.9576734099,MP-Perception Experiment,xx26m21,
249,vcgpdm_dyn(15)-lvm(20)_final(2).webm,False,left,1,training(19).webm,0,89,89,102,,,,,,,,11:57:11:519,11:57:12:295,11:57:15:297,right,11:57:16:415,,2013_Jan_05_1132,59.9576734099,MP-Perception Experiment,xx26m21,
250,vgpdm_dyn(10)-lvm(30)_final(2).webm,False,left,1,training(23).webm,0,90,90,129,,,,,,,,11:57:17:164,11:57:17:916,11:57:20:916,left,11:57:22:001,,2013_Jan_05_1132,59.9576734099,MP-Perception Experiment,xx26m21,
251,vgpdm_dyn(10)-lvm(25)_final(8).webm,False,left,1,training(23).webm,0,91,91,81,,,,,,,,11:57:22:677,11:57:23:502,11:57:26:505,left,11:57:27:439,,2013_Jan_05_1132,59.9576734099,MP-Perception Experiment,xx26m21,
252,training(35).webm,True,right,1,dmp_npsi(10)_final(0)_bad.webm,0,92,92,158,,,,,,,,11:57:28:287,11:57:28:940,11:57:31:928,right,11:57:32:579,,2013_Jan_05_1132,59.9576734099,MP-Perception Experiment,xx26m21,
253,vcgpdm_dyn(15)-lvm(35)_final(8).webm,True,left,1,training(5).webm,0,93,93,40,,,,,,,,11:57:33:264,11:57:34:080,11:57:37:082,left,11:57:37:833,,2013_Jan_05_1132,59.9576734099,MP-Perception Experiment,xx26m21,
254,vgpdm_dyn(5)-lvm(15)_final(6).webm,False,left,1,training(0).webm,0,94,94,34,,,,,,,,11:57:38:657,11:57:39:334,11:57:42:337,left,11:57:43:121,,2013_Jan_05_1132,59.9576734099,MP-Perception Experiment,xx26m21,
255,training(20).webm,True,right,1,tmp_numprim(3)_final(2).webm,0,95,95,0,,,,,,,,11:57:43:808,11:57:44:623,11:57:47:625,right,11:57:48:059,,2013_Jan_05_1132,59.9576734099,MP-Perception Experiment,xx26m21,
256,dmp_npsi(15)_final(0).webm,True,left,1,training(26).webm,0,96,96,83,,,,,,,,11:57:48:900,11:57:49:560,11:57:52:563,left,11:57:53:213,,2013_Jan_05_1132,59.9576734099,MP-Perception Experiment,xx26m21,
257,vgpdm_dyn(10)-lvm(25)_final(4).webm,False,left,1,training(26).webm,0,97,97,80,,,,,,,,11:57:53:977,11:57:54:714,11:57:57:717,right,11:57:58:868,,2013_Jan_05_1132,59.9576734099,MP-Perception Experiment,xx26m21,
258,vgpdm_dyn(25)-lvm(35)_final(8).webm,True,left,1,training(32).webm,0,98,98,153,,,,,,,,11:57:59:547,11:58:00:369,11:58:03:372,left,11:58:04:073,,2013_Jan_05_1132,59.9576734099,MP-Perception Experiment,xx26m21,
259,training(38).webm,True,right,1,tmp_numprim(3)_final(2).webm,0,99,99,6,,,,,,,,11:58:04:747,11:58:05:574,11:58:08:575,right,11:58:09:058,,2013_Jan_05_1132,59.9576734099,MP-Perception Experiment,xx26m21,
260,tmp_numprim(2)_final(1).webm,False,left,1,training(38).webm,0,100,100,27,,,,,,,,11:58:09:761,11:58:10:576,11:58:13:562,left,11:58:14:162,,2013_Jan_05_1132,59.9576734099,MP-Perception Experiment,xx26m21,
261,training(23).webm,True,right,1,vcgpdm_dyn(25)-lvm(20)_final(6).webm,0,101,101,51,,,,,,,,11:58:14:995,11:58:15:664,11:58:18:667,right,11:58:19:468,,2013_Jan_05_1132,59.9576734099,MP-Perception Experiment,xx26m21,
262,vgpdm_dyn(10)-lvm(35)_final(9).webm,False,left,1,training(7).webm,0,102,102,147,,,,,,,,11:58:20:141,11:58:20:971,11:58:23:956,left,11:58:24:807,,2013_Jan_05_1132,59.9576734099,MP-Perception Experiment,xx26m21,
263,training(30).webm,False,right,1,vcgpdm_dyn(15)-lvm(15)_final(0).webm,0,103,103,31,,,,,,,,11:58:25:496,11:58:26:308,11:58:29:311,right,11:58:29:911,,2013_Jan_05_1132,59.9576734099,MP-Perception Experiment,xx26m21,
264,vgpdm_dyn(30)-lvm(30)_final(0).webm,False,left,1,training(33).webm,0,104,104,37,,,,,,,,11:58:30:639,11:58:31:412,11:58:34:415,left,11:58:35:934,,2013_Jan_05_1132,59.9576734099,MP-Perception Experiment,xx26m21,
265,training(8).webm,False,right,1,map_gpdm_final(1).webm,0,105,105,117,,,,,,,,11:58:36:615,11:58:37:435,11:58:40:438,right,11:58:41:021,,2013_Jan_05_1132,59.9576734099,MP-Perception Experiment,xx26m21,
266,dmp_npsi(45)_final(3).webm,True,left,1,training(9).webm,0,106,106,8,,,,,,,,11:58:41:692,11:58:42:522,11:58:45:525,right,11:58:46:342,,2013_Jan_05_1132,59.9576734099,MP-Perception Experiment,xx26m21,
267,training(35).webm,True,right,1,map_cgpdm_final(6).webm,0,107,107,74,,,,,,,,11:58:47:025,11:58:47:843,11:58:50:846,right,11:58:51:546,,2013_Jan_05_1132,59.9576734099,MP-Perception Experiment,xx26m21,
268,vgpdm_dyn(25)-lvm(20)_final(1).webm,True,left,1,training(36).webm,0,108,108,42,,,,,,,,11:58:52:227,11:58:53:048,11:58:56:051,left,11:58:57:135,,2013_Jan_05_1132,59.9576734099,MP-Perception Experiment,xx26m21,
269,vcgpdm_dyn(10)-lvm(10)_final(7).webm,False,left,1,training(26).webm,0,109,109,101,,,,,,,,11:58:57:823,11:58:58:651,11:59:01:637,left,11:59:02:454,,2013_Jan_05_1132,59.9576734099,MP-Perception Experiment,xx26m21,
270,vgpdm_dyn(30)-lvm(35)_final(0).webm,False,left,1,training(11).webm,0,110,110,99,,,,,,,,11:59:03:135,11:59:03:956,11:59:06:958,left,11:59:08:176,,2013_Jan_05_1132,59.9576734099,MP-Perception Experiment,xx26m21,
271,dmp_npsi(15)_final(1).webm,False,left,1,training(17).webm,0,111,111,15,,,,,,,,11:59:08:861,11:59:09:677,11:59:12:665,left,11:59:13:283,,2013_Jan_05_1132,59.9576734099,MP-Perception Experiment,xx26m21,
272,training(5).webm,True,right,1,vcgpdm_dyn(10)-lvm(35)_final(4).webm,0,112,112,133,,,,,,,,11:59:13:988,11:59:14:784,11:59:17:786,left,11:59:18:921,,2013_Jan_05_1132,59.9576734099,MP-Perception Experiment,xx26m21,
273,vcgpdm_dyn(30)-lvm(25)_final(0).webm,True,left,1,training(25).webm,0,113,113,125,,,,,,,,11:59:19:595,11:59:20:422,11:59:23:424,left,11:59:24:041,,2013_Jan_05_1132,59.9576734099,MP-Perception Experiment,xx26m21,
274,vcgpdm_dyn(10)-lvm(20)_final(7).webm,True,left,1,training(25).webm,0,114,114,123,,,,,,,,11:59:24:766,11:59:25:542,11:59:28:546,left,11:59:28:813,,2013_Jan_05_1132,59.9576734099,MP-Perception Experiment,xx26m21,
275,vcgpdm_dyn(35)-lvm(30)_final(4).webm,False,left,1,training(27).webm,0,115,115,108,,,,,,,,11:59:29:495,11:59:30:314,11:59:33:316,left,11:59:34:901,,2013_Jan_05_1132,59.9576734099,MP-Perception Experiment,xx26m21,
276,vgpdm_dyn(30)-lvm(5)_final(3).webm,True,left,1,training(31).webm,0,116,116,95,,,,,,,,11:59:35:672,11:59:36:402,11:59:39:405,left,11:59:40:389,,2013_Jan_05_1132,59.9576734099,MP-Perception Experiment,xx26m21,
277,training(12).webm,False,right,1,vcgpdm_dyn(35)-lvm(30)_final(1).webm,0,117,117,79,,,,,,,,11:59:41:239,11:59:41:890,11:59:44:893,right,11:59:45:693,,2013_Jan_05_1132,59.9576734099,MP-Perception Experiment,xx26m21,
278,training(12).webm,False,right,1,vgpdm_dyn(10)-lvm(15)_final(3).webm,0,118,118,136,,,,,,,,11:59:46:543,11:59:47:195,11:59:50:196,right,11:59:50:780,,2013_Jan_05_1132,59.9576734099,MP-Perception Experiment,xx26m21,
279,vcgpdm_dyn(5)-lvm(30)_final(1)_bad.webm,False,left,1,training(27).webm,0,119,119,112,,,,,,,,11:59:51:460,11:59:52:281,11:59:55:283,left,11:59:56:001,,2013_Jan_05_1132,59.9576734099,MP-Perception Experiment,xx26m21,
280,training(12).webm,True,right,1,vcgpdm_dyn(35)-lvm(20)_final(9).webm,0,120,120,44,,,,,,,,11:59:56:853,11:59:57:502,12:00:00:489,left,12:00:01:590,,2013_Jan_05_1132,59.9576734099,MP-Perception Experiment,xx26m21,
281,training(35).webm,True,right,1,vgpdm_dyn(15)-lvm(35)_final(4).webm,0,121,121,154,,,,,,,,12:00:02:261,12:00:03:091,12:00:06:095,right,12:00:07:446,,2013_Jan_05_1132,59.9576734099,MP-Perception Experiment,xx26m21,
282,vcgpdm_dyn(35)-lvm(25)_final(5).webm,False,left,1,training(16).webm,0,122,122,29,,,,,,,,12:00:08:293,12:00:08:947,12:00:11:950,left,12:00:12:700,,2013_Jan_05_1132,59.9576734099,MP-Perception Experiment,xx26m21,
283,training(30).webm,False,right,1,dmp_npsi(15)_final(6).webm,0,123,123,148,,,,,,,,12:00:13:568,12:00:14:201,12:00:17:204,right,12:00:18:472,,2013_Jan_05_1132,59.9576734099,MP-Perception Experiment,xx26m21,
284,training(18).webm,True,right,1,vgpdm_dyn(10)-lvm(5)_final(2).webm,0,124,124,139,,,,,,,,12:00:19:180,12:00:19:973,12:00:22:976,right,12:00:24:477,,2013_Jan_05_1132,59.9576734099,MP-Perception Experiment,xx26m21,
285,training(34).webm,False,right,1,vgpdm_dyn(25)-lvm(20)_final(0).webm,0,125,125,61,,,,,,,,12:00:25:154,12:00:25:979,12:00:28:981,left,12:00:31:149,,2013_Jan_05_1132,59.9576734099,MP-Perception Experiment,xx26m21,
286,vgpdm_dyn(35)-lvm(30)_final(6).webm,False,left,1,training(0).webm,0,126,126,105,,,,,,,,12:00:31:832,12:00:32:651,12:00:35:653,left,12:00:36:354,,2013_Jan_05_1132,59.9576734099,MP-Perception Experiment,xx26m21,
287,vgpdm_dyn(15)-lvm(15)_final(1).webm,False,left,1,training(40).webm,0,127,127,58,,,,,,,,12:00:37:181,12:00:37:855,12:00:40:857,left,12:00:41:574,,2013_Jan_05_1132,59.9576734099,MP-Perception Experiment,xx26m21,
288,vcgpdm_dyn(10)-lvm(20)_final(3).webm,True,left,1,training(21).webm,0,128,128,146,,,,,,,,12:00:42:250,12:00:43:075,12:00:46:077,left,12:00:46:745,,2013_Jan_05_1132,59.9576734099,MP-Perception Experiment,xx26m21,
289,training(10).webm,True,right,1,vcgpdm_dyn(20)-lvm(15)_final(2).webm,0,129,129,140,,,,,,,,12:00:47:569,12:00:48:246,12:00:51:248,left,12:00:52:282,,2013_Jan_05_1132,59.9576734099,MP-Perception Experiment,xx26m21,
290,training(9).webm,True,right,1,vcgpdm_dyn(5)-lvm(20)_final(5).webm,0,130,130,55,,,,,,,,12:00:52:965,12:00:53:785,12:00:56:789,left,12:00:57:456,,2013_Jan_05_1132,59.9576734099,MP-Perception Experiment,xx26m21,
291,vgpdm_dyn(20)-lvm(20)_final(3).webm,False,left,1,training(17).webm,0,131,131,155,,,,,,,,12:00:58:135,12:00:58:957,12:01:01:960,right,12:01:02:560,,2013_Jan_05_1132,59.9576734099,MP-Perception Experiment,xx26m21,
292,training(36).webm,False,right,1,vcgpdm_dyn(25)-lvm(5)_final(4).webm,0,132,132,143,,,,,,,,12:01:03:238,12:01:04:061,12:01:07:064,right,12:01:07:698,,2013_Jan_05_1132,59.9576734099,MP-Perception Experiment,xx26m21,
293,map_gpdm_final(4).webm,False,left,1,training(13).webm,0,133,133,13,,,,,,,,12:01:08:377,12:01:09:199,12:01:12:201,left,12:01:12:735,,2013_Jan_05_1132,59.9576734099,MP-Perception Experiment,xx26m21,
294,dmp_npsi(50)_final(1).webm,False,left,1,training(6).webm,0,134,134,94,,,,,,,,12:01:13:411,12:01:14:237,12:01:17:240,left,12:01:17:940,,2013_Jan_05_1132,59.9576734099,MP-Perception Experiment,xx26m21,
295,training(18).webm,True,right,1,vgpdm_dyn(15)-lvm(30)_final(2).webm,0,135,135,19,,,,,,,,12:01:18:629,12:01:19:441,12:01:22:444,right,12:01:23:028,,2013_Jan_05_1132,59.9576734099,MP-Perception Experiment,xx26m21,
296,training(19).webm,True,right,1,vcgpdm_dyn(35)-lvm(30)_final(3).webm,0,136,136,87,,,,,,,,12:01:23:768,12:01:24:529,12:01:27:531,right,12:01:28:215,,2013_Jan_05_1132,59.9576734099,MP-Perception Experiment,xx26m21,
297,training(17).webm,False,right,1,vgpdm_dyn(20)-lvm(20)_final(3).webm,0,137,137,134,,,,,,,,12:01:28:912,12:01:29:748,12:01:32:735,right,12:01:33:035,,2013_Jan_05_1132,59.9576734099,MP-Perception Experiment,xx26m21,
298,training(19).webm,False,right,1,vgpdm_dyn(10)-lvm(20)_final(0).webm,0,138,138,59,,,,,,,,12:01:33:885,12:01:34:536,12:01:37:539,right,12:01:38:039,,2013_Jan_05_1132,59.9576734099,MP-Perception Experiment,xx26m21,
299,dmp_npsi(35)_final(9).webm,False,left,1,training(22).webm,0,139,139,145,,,,,,,,12:01:38:889,12:01:39:540,12:01:42:528,right,12:01:43:095,,2013_Jan_05_1132,59.9576734099,MP-Perception Experiment,xx26m21,
300,vcgpdm_dyn(35)-lvm(20)_final(5).webm,False,left,1,training(37).webm,0,140,140,91,,,,,,,,12:01:43:862,12:01:44:596,12:01:47:599,left,12:01:49:935,,2013_Jan_05_1132,59.9576734099,MP-Perception Experiment,xx26m21,
301,vgpdm_dyn(10)-lvm(15)_final(0).webm,False,left,1,training(13).webm,0,141,141,135,,,,,,,,12:01:50:624,12:01:51:436,12:01:54:439,right,12:01:56:106,,2013_Jan_05_1132,59.9576734099,MP-Perception Experiment,xx26m21,
302,tmp_numprim(2)_final(7).webm,True,left,1,training(4).webm,0,142,142,22,,,,,,,,12:01:56:884,12:01:57:608,12:02:00:610,left,12:02:01:794,,2013_Jan_05_1132,59.9576734099,MP-Perception Experiment,xx26m21,
303,vcgpdm_dyn(20)-lvm(10)_final(9).webm,False,left,1,training(19).webm,0,143,143,66,,,,,,,,12:02:02:480,12:02:03:296,12:02:06:299,left,12:02:07:216,,2013_Jan_05_1132,59.9576734099,MP-Perception Experiment,xx26m21,
304,vcgpdm_dyn(35)-lvm(10)_final(3).webm,False,left,1,training(19).webm,0,144,144,90,,,,,,,,12:02:07:995,12:02:08:718,12:02:11:720,left,12:02:12:220,,2013_Jan_05_1132,59.9576734099,MP-Perception Experiment,xx26m21,
305,training(31).webm,True,right,1,tmp_numprim(10)_final(1).webm,0,145,145,52,,,,,,,,12:02:12:909,12:02:13:722,12:02:16:724,left,12:02:17:291,,2013_Jan_05_1132,59.9576734099,MP-Perception Experiment,xx26m21,
306,tmp_numprim(8)_final(8).webm,False,left,1,training(34).webm,0,146,146,122,,,,,,,,12:02:18:119,12:02:18:807,12:02:21:793,left,12:02:22:394,,2013_Jan_05_1132,59.9576734099,MP-Perception Experiment,xx26m21,
307,training(23).webm,False,right,1,vcgpdm_dyn(5)-lvm(20)_final(4).webm,0,147,147,68,,,,,,,,12:02:23:076,12:02:23:896,12:02:26:898,right,12:02:27:582,,2013_Jan_05_1132,59.9576734099,MP-Perception Experiment,xx26m21,
308,training(6).webm,False,right,1,vcgpdm_dyn(25)-lvm(30)_final(7).webm,0,148,148,32,,,,,,,,12:02:28:421,12:02:29:083,12:02:32:071,right,12:02:33:088,,2013_Jan_05_1132,59.9576734099,MP-Perception Experiment,xx26m21,
309,vgpdm_dyn(30)-lvm(30)_final(4).webm,False,left,1,training(17).webm,0,149,149,47,,,,,,,,12:02:33:771,12:02:34:589,12:02:37:592,left,12:02:38:343,,2013_Jan_05_1132,59.9576734099,MP-Perception Experiment,xx26m21,
310,vgpdm_dyn(10)-lvm(5)_final(2).webm,False,left,1,training(13).webm,0,150,150,100,,,,,,,,12:02:39:020,12:02:39:844,12:02:42:847,left,12:02:43:664,,2013_Jan_05_1132,59.9576734099,MP-Perception Experiment,xx26m21,
311,map_gpdm_final(9).webm,True,left,1,training(12).webm,0,151,151,11,,,,,,,,12:02:44:347,12:02:45:166,12:02:48:168,left,12:02:48:819,,2013_Jan_05_1132,59.9576734099,MP-Perception Experiment,xx26m21,
312,tmp_numprim(2)_final(6).webm,True,left,1,training(18).webm,0,152,152,130,,,,,,,,12:02:49:498,12:02:50:320,12:02:53:322,left,12:02:54:073,,2013_Jan_05_1132,59.9576734099,MP-Perception Experiment,xx26m21,
313,tmp_numprim(10)_final(7).webm,False,left,1,training(10).webm,0,153,153,113,,,,,,,,12:02:54:753,12:02:55:574,12:02:58:578,left,12:02:59:211,,2013_Jan_05_1132,59.9576734099,MP-Perception Experiment,xx26m21,
314,vgpdm_dyn(30)-lvm(5)_final(4).webm,True,left,1,training(37).webm,0,154,154,150,,,,,,,,12:02:59:910,12:03:00:712,12:03:03:715,left,12:03:04:432,,2013_Jan_05_1132,59.9576734099,MP-Perception Experiment,xx26m21,
315,vcgpdm_dyn(10)-lvm(5)_final(1).webm,True,left,1,training(38).webm,0,155,155,14,,,,,,,,12:03:05:159,12:03:05:933,12:03:08:934,left,12:03:09:801,,2013_Jan_05_1132,59.9576734099,MP-Perception Experiment,xx26m21,
316,vcgpdm_dyn(5)-lvm(15)_final(8).webm,False,left,1,training(18).webm,0,156,156,88,,,,,,,,12:03:10:486,12:03:11:303,12:03:14:305,left,12:03:15:473,,2013_Jan_05_1132,59.9576734099,MP-Perception Experiment,xx26m21,
317,training(21).webm,False,right,1,dmp_npsi(45)_final(1).webm,0,157,157,36,,,,,,,,12:03:16:153,12:03:16:975,12:03:19:977,left,12:03:20:678,,2013_Jan_05_1132,59.9576734099,MP-Perception Experiment,xx26m21,
318,tmp_numprim(6)_final(7).webm,True,left,1,training(25).webm,0,158,158,63,,,,,,,,12:03:21:360,12:03:22:179,12:03:25:167,left,12:03:26:451,,2013_Jan_05_1132,59.9576734099,MP-Perception Experiment,xx26m21,
319,training(24).webm,True,right,2,tmp_numprim(4)_final(0).webm,0,0,0,134,,,,,,,,12:05:57:761,12:05:58:599,12:06:01:585,right,12:06:02:102,,2013_Jan_05_1132,59.9576734099,MP-Perception Experiment,xx26m21,
320,training(4).webm,False,right,2,vgpdm_dyn(10)-lvm(20)_final(0).webm,0,1,1,18,,,,,,,,12:06:02:779,12:06:03:603,12:06:06:606,right,12:06:07:290,,2013_Jan_05_1132,59.9576734099,MP-Perception Experiment,xx26m21,
321,training(8).webm,True,right,2,tmp_numprim(7)_final(6).webm,0,2,2,133,,,,,,,,12:06:07:966,12:06:08:791,12:06:11:795,right,12:06:12:345,,2013_Jan_05_1132,59.9576734099,MP-Perception Experiment,xx26m21,
322,training(1).webm,True,right,2,map_cgpdm_final(4).webm,0,3,3,52,,,,,,,,12:06:13:208,12:06:13:846,12:06:16:849,right,12:06:17:649,,2013_Jan_05_1132,59.9576734099,MP-Perception Experiment,xx26m21,
323,vcgpdm_dyn(10)-lvm(30)_final(5).webm,True,left,2,training(34).webm,0,4,4,41,,,,,,,,12:06:18:419,12:06:19:150,12:06:22:153,left,12:06:24:505,,2013_Jan_05_1132,59.9576734099,MP-Perception Experiment,xx26m21,
324,training(1).webm,True,right,2,vgpdm_dyn(10)-lvm(35)_final(6).webm,0,5,5,157,,,,,,,,12:06:25:187,12:06:26:006,12:06:29:008,right,12:06:29:491,,2013_Jan_05_1132,59.9576734099,MP-Perception Experiment,xx26m21,
325,vcgpdm_dyn(25)-lvm(35)_final(2).webm,True,left,2,training(12).webm,0,6,6,118,,,,,,,,12:06:30:325,12:06:30:992,12:06:33:995,left,12:06:34:479,,2013_Jan_05_1132,59.9576734099,MP-Perception Experiment,xx26m21,
326,training(41).webm,False,right,2,vgpdm_dyn(10)-lvm(5)_final(8).webm,0,7,7,83,,,,,,,,12:06:35:165,12:06:35:980,12:06:38:982,right,12:06:40:017,,2013_Jan_05_1132,59.9576734099,MP-Perception Experiment,xx26m21,
327,tmp_numprim(8)_final(1).webm,False,left,2,training(34).webm,0,8,8,42,,,,,,,,12:06:40:786,12:06:41:518,12:06:44:505,left,12:06:44:956,,2013_Jan_05_1132,59.9576734099,MP-Perception Experiment,xx26m21,
328,vcgpdm_dyn(30)-lvm(20)_final(3).webm,True,left,2,training(15).webm,0,9,9,107,,,,,,,,12:06:45:649,12:06:46:458,12:06:49:460,left,12:06:51:445,,2013_Jan_05_1132,59.9576734099,MP-Perception Experiment,xx26m21,
329,vcgpdm_dyn(5)-lvm(5)_final(7).webm,True,left,2,training(4).webm,0,10,10,110,,,,,,,,12:06:52:128,12:06:52:946,12:06:55:949,left,12:06:56:966,,2013_Jan_05_1132,59.9576734099,MP-Perception Experiment,xx26m21,
330,vcgpdm_dyn(35)-lvm(20)_final(7).webm,False,left,2,training(38).webm,0,11,11,141,,,,,,,,12:06:57:651,12:06:58:467,12:07:01:470,right,12:07:02:404,,2013_Jan_05_1132,59.9576734099,MP-Perception Experiment,xx26m21,
331,vgpdm_dyn(20)-lvm(15)_final(7).webm,True,left,2,training(6).webm,0,12,12,29,,,,,,,,12:07:03:081,12:07:03:906,12:07:06:909,left,12:07:07:643,,2013_Jan_05_1132,59.9576734099,MP-Perception Experiment,xx26m21,
332,training(30).webm,False,right,2,vcgpdm_dyn(20)-lvm(20)_final(9).webm,0,13,13,152,,,,,,,,12:07:08:323,12:07:09:144,12:07:12:146,right,12:07:12:897,,2013_Jan_05_1132,59.9576734099,MP-Perception Experiment,xx26m21,
333,training(37).webm,False,right,2,vcgpdm_dyn(20)-lvm(35)_final(9).webm,0,14,14,109,,,,,,,,12:07:13:596,12:07:14:398,12:07:17:400,right,12:07:18:101,,2013_Jan_05_1132,59.9576734099,MP-Perception Experiment,xx26m21,
334,vcgpdm_dyn(15)-lvm(15)_final(9).webm,False,left,2,training(4).webm,0,15,15,156,,,,,,,,12:07:18:782,12:07:19:617,12:07:22:604,right,12:07:23:204,,2013_Jan_05_1132,59.9576734099,MP-Perception Experiment,xx26m21,
335,training(11).webm,True,right,2,vgpdm_dyn(25)-lvm(35)_final(3).webm,0,16,16,89,,,,,,,,12:07:23:887,12:07:24:706,12:07:27:708,right,12:07:28:575,,2013_Jan_05_1132,59.9576734099,MP-Perception Experiment,xx26m21,
336,vgpdm_dyn(15)-lvm(20)_final(1)_out_of_screen.webm,True,left,2,training(20).webm,0,17,17,123,,,,,,,,12:07:29:259,12:07:30:078,12:07:33:064,left,12:07:33:448,,2013_Jan_05_1132,59.9576734099,MP-Perception Experiment,xx26m21,
337,training(29).webm,False,right,2,vcgpdm_dyn(20)-lvm(30)_final(5).webm,0,18,18,114,,,,,,,,12:07:34:128,12:07:34:949,12:07:37:952,right,12:07:38:369,,2013_Jan_05_1132,59.9576734099,MP-Perception Experiment,xx26m21,
338,vcgpdm_dyn(10)-lvm(15)_final(7).webm,True,left,2,training(29).webm,0,19,19,13,,,,,,,,12:07:39:055,12:07:39:870,12:07:42:873,left,12:07:43:524,,2013_Jan_05_1132,59.9576734099,MP-Perception Experiment,xx26m21,
339,training(9).webm,False,right,2,vcgpdm_dyn(15)-lvm(5)_final(0).webm,0,20,20,142,,,,,,,,12:07:44:200,12:07:45:025,12:07:48:027,right,12:07:48:511,,2013_Jan_05_1132,59.9576734099,MP-Perception Experiment,xx26m21,
340,training(7).webm,True,right,2,vgpdm_dyn(25)-lvm(20)_final(5).webm,0,21,21,138,,,,,,,,12:07:49:189,12:07:50:012,12:07:53:014,left,12:07:53:832,,2013_Jan_05_1132,59.9576734099,MP-Perception Experiment,xx26m21,
341,vgpdm_dyn(15)-lvm(5)_final(4).webm,False,left,2,training(28).webm,0,22,22,101,,,,,,,,12:07:54:511,12:07:55:334,12:07:58:337,left,12:07:59:087,,2013_Jan_05_1132,59.9576734099,MP-Perception Experiment,xx26m21,
342,vgpdm_dyn(20)-lvm(15)_final(0).webm,True,left,2,training(18).webm,0,23,23,84,,,,,,,,12:07:59:766,12:08:00:588,12:08:03:608,left,12:08:05:559,,2013_Jan_05_1132,59.9576734099,MP-Perception Experiment,xx26m21,
343,vgpdm_dyn(10)-lvm(30)_final(0).webm,True,left,2,training(27).webm,0,24,24,37,,,,,,,,12:08:06:242,12:08:07:060,12:08:10:061,left,12:08:11:012,,2013_Jan_05_1132,59.9576734099,MP-Perception Experiment,xx26m21,
344,vcgpdm_dyn(5)-lvm(5)_final(5).webm,True,left,2,training(1).webm,0,25,25,16,,,,,,,,12:08:11:692,12:08:12:513,12:08:15:516,left,12:08:16:784,,2013_Jan_05_1132,59.9576734099,MP-Perception Experiment,xx26m21,
345,vcgpdm_dyn(15)-lvm(15)_final(1).webm,False,left,2,training(15).webm,0,26,26,45,,,,,,,,12:08:17:456,12:08:18:285,12:08:21:273,left,12:08:22:140,,2013_Jan_05_1132,59.9576734099,MP-Perception Experiment,xx26m21,
346,vcgpdm_dyn(20)-lvm(20)_final(3).webm,False,left,2,training(2).webm,0,27,27,116,,,,,,,,12:08:22:821,12:08:23:641,12:08:26:644,right,12:08:27:628,,2013_Jan_05_1132,59.9576734099,MP-Perception Experiment,xx26m21,
347,vgpdm_dyn(15)-lvm(30)_final(2).webm,True,left,2,training(29).webm,0,28,28,6,,,,,,,,12:08:28:302,12:08:29:129,12:08:32:133,left,12:08:32:866,,2013_Jan_05_1132,59.9576734099,MP-Perception Experiment,xx26m21,
348,dmp_npsi(25)_final(2).webm,True,left,2,training(21).webm,0,29,29,24,,,,,,,,12:08:33:542,12:08:34:367,12:08:37:370,left,12:08:38:287,,2013_Jan_05_1132,59.9576734099,MP-Perception Experiment,xx26m21,
349,training(1).webm,False,right,2,vgpdm_dyn(25)-lvm(20)_final(9).webm,0,30,30,97,,,,,,,,12:08:38:964,12:08:39:789,12:08:42:791,left,12:08:46:611,,2013_Jan_05_1132,59.9576734099,MP-Perception Experiment,xx26m21,
350,training(17).webm,True,right,2,vgpdm_dyn(25)-lvm(5)_final(5).webm,0,31,31,14,,,,,,,,12:08:47:290,12:08:48:113,12:08:51:115,left,12:08:52:000,,2013_Jan_05_1132,59.9576734099,MP-Perception Experiment,xx26m21,
351,training(36).webm,False,right,2,vcgpdm_dyn(30)-lvm(30)_final(8).webm,0,32,32,58,,,,,,,,12:08:52:681,12:08:53:501,12:08:56:503,right,12:08:56:903,,2013_Jan_05_1132,59.9576734099,MP-Perception Experiment,xx26m21,
352,training(17).webm,False,right,2,vcgpdm_dyn(25)-lvm(25)_final(0).webm,0,33,33,139,,,,,,,,12:08:57:741,12:08:58:405,12:09:01:405,right,12:09:01:989,,2013_Jan_05_1132,59.9576734099,MP-Perception Experiment,xx26m21,
353,training(28).webm,False,right,2,vgpdm_dyn(35)-lvm(25)_final(6).webm,0,34,34,148,,,,,,,,12:09:02:674,12:09:03:490,12:09:06:494,right,12:09:07:578,,2013_Jan_05_1132,59.9576734099,MP-Perception Experiment,xx26m21,
354,vgpdm_dyn(5)-lvm(10)_final(7).webm,False,left,2,training(12).webm,0,35,35,73,,,,,,,,12:09:08:257,12:09:09:079,12:09:12:082,left,12:09:12:665,,2013_Jan_05_1132,59.9576734099,MP-Perception Experiment,xx26m21,
355,training(3).webm,True,right,2,vcgpdm_dyn(20)-lvm(15)_final(8).webm,0,36,36,43,,,,,,,,12:09:13:350,12:09:14:168,12:09:17:171,right,12:09:19:139,,2013_Jan_05_1132,59.9576734099,MP-Perception Experiment,xx26m21,
356,vgpdm_dyn(25)-lvm(15)_final(4)_out_of_screen.webm,False,left,2,training(26).webm,0,37,37,51,,,,,,,,12:09:19:846,12:09:20:640,12:09:23:644,left,12:09:24:628,,2013_Jan_05_1132,59.9576734099,MP-Perception Experiment,xx26m21,
357,training(2).webm,False,right,2,vcgpdm_dyn(10)-lvm(10)_final(2).webm,0,38,38,106,,,,,,,,12:09:25:311,12:09:26:129,12:09:29:132,left,12:09:30:749,,2013_Jan_05_1132,59.9576734099,MP-Perception Experiment,xx26m21,
358,map_gpdm_final(7).webm,False,left,2,training(6).webm,0,39,39,50,,,,,,,,12:09:31:596,12:09:32:251,12:09:35:253,left,12:09:37:438,,2013_Jan_05_1132,59.9576734099,MP-Perception Experiment,xx26m21,
359,tmp_numprim(8)_final(5).webm,True,left,2,training(4).webm,0,40,40,9,,,,,,,,12:09:38:179,12:09:38:939,12:09:41:943,left,12:09:43:844,,2013_Jan_05_1132,59.9576734099,MP-Perception Experiment,xx26m21,
360,vcgpdm_dyn(5)-lvm(10)_final(8).webm,False,left,2,training(6).webm,0,41,41,32,,,,,,,,12:09:44:525,12:09:45:345,12:09:48:348,left,12:09:49:681,,2013_Jan_05_1132,59.9576734099,MP-Perception Experiment,xx26m21,
361,training(26).webm,True,right,2,vcgpdm_dyn(30)-lvm(35)_final(0).webm,0,42,42,121,,,,,,,,12:09:50:362,12:09:51:182,12:09:54:184,left,12:09:55:002,,2013_Jan_05_1132,59.9576734099,MP-Perception Experiment,xx26m21,
362,vgpdm_dyn(5)-lvm(15)_final(3).webm,False,left,2,training(33).webm,0,43,43,132,,,,,,,,12:09:55:677,12:09:56:503,12:09:59:506,left,12:10:00:425,,2013_Jan_05_1132,59.9576734099,MP-Perception Experiment,xx26m21,
363,training(20).webm,False,right,2,vgpdm_dyn(35)-lvm(30)_final(5).webm,0,44,44,127,,,,,,,,12:10:01:100,12:10:01:927,12:10:04:929,right,12:10:05:730,,2013_Jan_05_1132,59.9576734099,MP-Perception Experiment,xx26m21,
364,training(37).webm,True,right,2,dmp_npsi(50)_final(5).webm,0,45,45,126,,,,,,,,12:10:06:415,12:10:07:231,12:10:10:233,right,12:10:10:734,,2013_Jan_05_1132,59.9576734099,MP-Perception Experiment,xx26m21,
365,vcgpdm_dyn(35)-lvm(10)_final(8).webm,False,left,2,training(48).webm,0,46,46,79,,,,,,,,12:10:11:413,12:10:12:235,12:10:15:238,right,12:10:15:889,,2013_Jan_05_1132,59.9576734099,MP-Perception Experiment,xx26m21,
366,training(7).webm,True,right,2,vcgpdm_dyn(10)-lvm(35)_final(0).webm,0,47,47,21,,,,,,,,12:10:16:569,12:10:17:390,12:10:20:393,right,12:10:22:628,,2013_Jan_05_1132,59.9576734099,MP-Perception Experiment,xx26m21,
367,vgpdm_dyn(5)-lvm(5)_final(4)_out_of_screen.webm,True,left,2,training(5).webm,0,48,48,131,,,,,,,,12:10:23:331,12:10:24:129,12:10:27:131,left,12:10:27:782,,2013_Jan_05_1132,59.9576734099,MP-Perception Experiment,xx26m21,
368,vgpdm_dyn(35)-lvm(35)_final(7).webm,True,left,2,training(29).webm,0,49,49,15,,,,,,,,12:10:28:462,12:10:29:283,12:10:32:286,left,12:10:33:371,,2013_Jan_05_1132,59.9576734099,MP-Perception Experiment,xx26m21,
369,training(14).webm,False,right,2,vcgpdm_dyn(10)-lvm(30)_final(8).webm,0,50,50,11,,,,,,,,12:10:34:051,12:10:34:872,12:10:37:874,right,12:10:38:408,,2013_Jan_05_1132,59.9576734099,MP-Perception Experiment,xx26m21,
370,vcgpdm_dyn(15)-lvm(30)_final(0).webm,False,left,2,training(37).webm,0,51,51,128,,,,,,,,12:10:39:100,12:10:39:924,12:10:42:927,left,12:10:43:677,,2013_Jan_05_1132,59.9576734099,MP-Perception Experiment,xx26m21,
371,vcgpdm_dyn(20)-lvm(30)_final(8).webm,False,left,2,training(0).webm,0,52,52,60,,,,,,,,12:10:44:352,12:10:45:178,12:10:48:181,left,12:10:48:915,,2013_Jan_05_1132,59.9576734099,MP-Perception Experiment,xx26m21,
372,vgpdm_dyn(30)-lvm(20)_final(4).webm,True,left,2,training(13).webm,0,53,53,80,,,,,,,,12:10:49:600,12:10:50:419,12:10:53:405,left,12:10:54:205,,2013_Jan_05_1132,59.9576734099,MP-Perception Experiment,xx26m21,
373,dmp_npsi(25)_final(3).webm,True,left,2,training(39).webm,0,54,54,61,,,,,,,,12:10:54:891,12:10:55:706,12:10:58:709,left,12:11:01:177,,2013_Jan_05_1132,59.9576734099,MP-Perception Experiment,xx26m21,
374,training(27).webm,False,right,2,vgpdm_dyn(10)-lvm(20)_final(2).webm,0,55,55,150,,,,,,,,12:11:01:853,12:11:02:679,12:11:05:681,left,12:11:06:565,,2013_Jan_05_1132,59.9576734099,MP-Perception Experiment,xx26m21,
375,dmp_npsi(15)_final(8).webm,False,left,2,training(32).webm,0,56,56,74,,,,,,,,12:11:07:253,12:11:08:067,12:11:11:070,left,12:11:11:704,,2013_Jan_05_1132,59.9576734099,MP-Perception Experiment,xx26m21,
376,training(28).webm,False,right,2,vgpdm_dyn(30)-lvm(25)_final(2).webm,0,57,57,30,,,,,,,,12:11:12:382,12:11:13:205,12:11:16:207,right,12:11:17:408,,2013_Jan_05_1132,59.9576734099,MP-Perception Experiment,xx26m21,
377,vgpdm_dyn(15)-lvm(15)_final(5).webm,True,left,2,training(13).webm,0,58,58,2,,,,,,,,12:11:18:095,12:11:18:909,12:11:21:912,left,12:11:24:264,,2013_Jan_05_1132,59.9576734099,MP-Perception Experiment,xx26m21,
378,training(1).webm,False,right,2,vcgpdm_dyn(15)-lvm(25)_final(4).webm,0,59,59,125,,,,,,,,12:11:24:968,12:11:25:766,12:11:28:768,right,12:11:29:968,,2013_Jan_05_1132,59.9576734099,MP-Perception Experiment,xx26m21,
379,training(29).webm,False,right,2,vcgpdm_dyn(10)-lvm(30)_final(2).webm,0,60,60,63,,,,,,,,12:11:30:817,12:11:31:469,12:11:34:471,right,12:11:35:639,,2013_Jan_05_1132,59.9576734099,MP-Perception Experiment,xx26m21,
380,vcgpdm_dyn(15)-lvm(10)_final(5).webm,True,left,2,training(18).webm,0,61,61,135,,,,,,,,12:11:36:319,12:11:37:140,12:11:40:142,left,12:11:41:861,,2013_Jan_05_1132,59.9576734099,MP-Perception Experiment,xx26m21,
381,training(11).webm,False,right,2,vgpdm_dyn(5)-lvm(30)_final(9).webm,0,62,62,4,,,,,,,,12:11:42:538,12:11:43:364,12:11:46:350,right,12:11:46:984,,2013_Jan_05_1132,59.9576734099,MP-Perception Experiment,xx26m21,
382,vcgpdm_dyn(25)-lvm(20)_final(0).webm,False,left,2,training(36).webm,0,63,63,158,,,,,,,,12:11:47:673,12:11:48:485,12:11:51:488,left,12:11:52:772,,2013_Jan_05_1132,59.9576734099,MP-Perception Experiment,xx26m21,
383,training(14).webm,True,right,2,tmp_numprim(6)_final(0).webm,0,64,64,12,,,,,,,,12:11:53:452,12:11:54:290,12:11:57:276,right,12:11:57:860,,2013_Jan_05_1132,59.9576734099,MP-Perception Experiment,xx26m21,
384,vgpdm_dyn(35)-lvm(35)_final(2).webm,False,left,2,training(48).webm,0,65,65,91,,,,,,,,12:11:58:539,12:11:59:361,12:12:02:364,left,12:12:02:931,,2013_Jan_05_1132,59.9576734099,MP-Perception Experiment,xx26m21,
385,vcgpdm_dyn(25)-lvm(5)_final(8).webm,True,left,2,training(25).webm,0,66,66,76,,,,,,,,12:12:03:615,12:12:04:449,12:12:07:435,left,12:12:07:885,,2013_Jan_05_1132,59.9576734099,MP-Perception Experiment,xx26m21,
386,training(16).webm,False,right,2,vcgpdm_dyn(35)-lvm(10)_final(2).webm,0,67,67,39,,,,,,,,12:12:08:573,12:12:09:386,12:12:12:389,right,12:12:12:756,,2013_Jan_05_1132,59.9576734099,MP-Perception Experiment,xx26m21,
387,training(36).webm,False,right,2,vcgpdm_dyn(30)-lvm(35)_final(1).webm,0,68,68,95,,,,,,,,12:12:13:443,12:12:14:257,12:12:17:260,right,12:12:17:694,,2013_Jan_05_1132,59.9576734099,MP-Perception Experiment,xx26m21,
388,vcgpdm_dyn(10)-lvm(25)_final(4).webm,False,left,2,training(32).webm,0,69,69,140,,,,,,,,12:12:18:374,12:12:19:210,12:12:22:196,left,12:12:22:713,,2013_Jan_05_1132,59.9576734099,MP-Perception Experiment,xx26m21,
389,training(4).webm,True,right,2,vgpdm_dyn(35)-lvm(20)_final(8)_out_of_screen.webm,0,70,70,144,,,,,,,,12:12:23:394,12:12:24:214,12:12:27:217,right,12:12:27:834,,2013_Jan_05_1132,59.9576734099,MP-Perception Experiment,xx26m21,
390,training(11).webm,True,right,2,vcgpdm_dyn(15)-lvm(25)_final(2).webm,0,71,71,27,,,,,,,,12:12:28:511,12:12:29:335,12:12:32:323,right,12:12:32:389,,2013_Jan_05_1132,59.9576734099,MP-Perception Experiment,xx26m21,
391,vcgpdm_dyn(10)-lvm(5)_final(1).webm,False,left,2,training(48).webm,0,72,72,105,,,,,,,,12:12:33:067,12:12:33:891,12:12:36:894,left,12:12:37:695,,2013_Jan_05_1132,59.9576734099,MP-Perception Experiment,xx26m21,
392,vcgpdm_dyn(30)-lvm(15)_final(8).webm,False,left,2,training(27).webm,0,73,73,66,,,,,,,,12:12:38:400,12:12:39:196,12:12:42:198,left,12:12:42:832,,2013_Jan_05_1132,59.9576734099,MP-Perception Experiment,xx26m21,
393,training(20).webm,False,right,2,vgpdm_dyn(10)-lvm(15)_final(1).webm,0,74,74,64,,,,,,,,12:12:43:512,12:12:44:333,12:12:47:336,right,12:12:48:103,,2013_Jan_05_1132,59.9576734099,MP-Perception Experiment,xx26m21,
394,tmp_numprim(9)_final(2).webm,True,left,2,training(25).webm,0,75,75,10,,,,,,,,12:12:48:785,12:12:49:604,12:12:52:608,left,12:12:53:208,,2013_Jan_05_1132,59.9576734099,MP-Perception Experiment,xx26m21,
395,training(5).webm,False,right,2,vcgpdm_dyn(5)-lvm(25)_final(7).webm,0,76,76,33,,,,,,,,12:12:53:888,12:12:54:709,12:12:57:712,right,12:12:58:179,,2013_Jan_05_1132,59.9576734099,MP-Perception Experiment,xx26m21,
396,training(22).webm,False,right,2,vcgpdm_dyn(10)-lvm(30)_final(6).webm,0,77,77,20,,,,,,,,12:12:59:009,12:12:59:680,12:13:02:682,right,12:13:03:266,,2013_Jan_05_1132,59.9576734099,MP-Perception Experiment,xx26m21,
397,training(11).webm,False,right,2,vcgpdm_dyn(10)-lvm(5)_final(1).webm,0,78,78,78,,,,,,,,12:13:03:943,12:13:04:767,12:13:07:770,right,12:13:08:521,,2013_Jan_05_1132,59.9576734099,MP-Perception Experiment,xx26m21,
398,training(7).webm,True,right,2,vcgpdm_dyn(15)-lvm(25)_final(7).webm,0,79,79,104,,,,,,,,12:13:09:295,12:13:10:038,12:13:13:040,right,12:13:13:424,,2013_Jan_05_1132,59.9576734099,MP-Perception Experiment,xx26m21,
399,vgpdm_dyn(35)-lvm(30)_final(2).webm,True,left,2,training(19).webm,0,80,80,153,,,,,,,,12:13:14:110,12:13:14:925,12:13:17:927,right,12:13:18:895,,2013_Jan_05_1132,59.9576734099,MP-Perception Experiment,xx26m21,
400,training(33).webm,True,right,2,vgpdm_dyn(15)-lvm(15)_final(1).webm,0,81,81,149,,,,,,,,12:13:19:575,12:13:20:398,12:13:23:384,right,12:13:24:001,,2013_Jan_05_1132,59.9576734099,MP-Perception Experiment,xx26m21,
401,dmp_npsi(45)_final(1).webm,True,left,2,training(20).webm,0,82,82,115,,,,,,,,12:13:24:676,12:13:25:502,12:13:28:505,left,12:13:29:139,,2013_Jan_05_1132,59.9576734099,MP-Perception Experiment,xx26m21,
402,vcgpdm_dyn(20)-lvm(35)_final(4).webm,True,left,2,training(35).webm,0,83,83,17,,,,,,,,12:13:29:821,12:13:30:640,12:13:33:643,right,12:13:34:710,,2013_Jan_05_1132,59.9576734099,MP-Perception Experiment,xx26m21,
403,training(21).webm,False,right,2,vcgpdm_dyn(20)-lvm(10)_final(2).webm,0,84,84,136,,,,,,,,12:13:35:399,12:13:36:212,12:13:39:214,right,12:13:41:016,,2013_Jan_05_1132,59.9576734099,MP-Perception Experiment,xx26m21,
404,training(5).webm,True,right,2,vgpdm_dyn(20)-lvm(25)_final(0).webm,0,85,85,1,,,,,,,,12:13:41:865,12:13:42:517,12:13:45:520,right,12:13:46:237,,2013_Jan_05_1132,59.9576734099,MP-Perception Experiment,xx26m21,
405,tmp_numprim(7)_final(1).webm,False,left,2,training(33).webm,0,86,86,155,,,,,,,,12:13:46:978,12:13:47:738,12:13:50:741,left,12:13:50:908,,2013_Jan_05_1132,59.9576734099,MP-Perception Experiment,xx26m21,
406,dmp_npsi(40)_final(1).webm,True,left,2,training(32).webm,0,87,87,49,,,,,,,,12:13:51:757,12:13:52:409,12:13:55:412,left,12:13:56:429,,2013_Jan_05_1132,59.9576734099,MP-Perception Experiment,xx26m21,
407,vcgpdm_dyn(20)-lvm(10)_final(6).webm,True,left,2,training(29).webm,0,88,88,146,,,,,,,,12:13:57:172,12:13:57:930,12:14:00:931,left,12:14:01:798,,2013_Jan_05_1132,59.9576734099,MP-Perception Experiment,xx26m21,
408,vcgpdm_dyn(15)-lvm(25)_final(8).webm,True,left,2,training(41).webm,0,89,89,67,,,,,,,,12:14:02:650,12:14:03:300,12:14:06:303,left,12:14:07:621,,2013_Jan_05_1132,59.9576734099,MP-Perception Experiment,xx26m21,
409,training(35).webm,False,right,2,vcgpdm_dyn(10)-lvm(30)_final(8).webm,0,90,90,92,,,,,,,,12:14:08:298,12:14:09:122,12:14:12:124,right,12:14:12:558,,2013_Jan_05_1132,59.9576734099,MP-Perception Experiment,xx26m21,
410,vcgpdm_dyn(30)-lvm(10)_final(4).webm,False,left,2,training(4).webm,0,91,91,31,,,,,,,,12:14:13:286,12:14:14:061,12:14:17:063,left,12:14:17:680,,2013_Jan_05_1132,59.9576734099,MP-Perception Experiment,xx26m21,
411,training(33).webm,True,right,2,vcgpdm_dyn(15)-lvm(30)_final(8).webm,0,92,92,100,,,,,,,,12:14:18:528,12:14:19:182,12:14:22:185,left,12:14:22:936,,2013_Jan_05_1132,59.9576734099,MP-Perception Experiment,xx26m21,
412,vcgpdm_dyn(25)-lvm(5)_final(8).webm,False,left,2,training(12).webm,0,93,93,94,,,,,,,,12:14:23:613,12:14:24:437,12:14:27:439,right,12:14:29:608,,2013_Jan_05_1132,59.9576734099,MP-Perception Experiment,xx26m21,
413,training(2).webm,False,right,2,dmp_npsi(25)_final(2).webm,0,94,94,57,,,,,,,,12:14:30:283,12:14:31:109,12:14:34:111,right,12:14:34:578,,2013_Jan_05_1132,59.9576734099,MP-Perception Experiment,xx26m21,
414,vcgpdm_dyn(20)-lvm(25)_final(5).webm,False,left,2,training(34).webm,0,95,95,34,,,,,,,,12:14:35:254,12:14:36:080,12:14:39:083,right,12:14:39:834,,2013_Jan_05_1132,59.9576734099,MP-Perception Experiment,xx26m21,
415,training(40).webm,False,right,2,vgpdm_dyn(10)-lvm(20)_final(7).webm,0,96,96,99,,,,,,,,12:14:40:682,12:14:41:335,12:14:44:337,right,12:14:44:954,,2013_Jan_05_1132,59.9576734099,MP-Perception Experiment,xx26m21,
416,vcgpdm_dyn(10)-lvm(10)_final(4).webm,False,left,2,training(7).webm,0,97,97,117,,,,,,,,12:14:45:632,12:14:46:456,12:14:49:456,right,12:14:50:073,,2013_Jan_05_1132,59.9576734099,MP-Perception Experiment,xx26m21,
417,dmp_npsi(50)_final(6).webm,False,left,2,training(32).webm,0,98,98,62,,,,,,,,12:14:50:825,12:14:51:575,12:14:54:577,right,12:14:55:462,,2013_Jan_05_1132,59.9576734099,MP-Perception Experiment,xx26m21,
418,vcgpdm_dyn(20)-lvm(10)_final(0).webm,False,left,2,training(37).webm,0,99,99,55,,,,,,,,12:14:56:145,12:14:56:963,12:14:59:966,left,12:15:00:418,,2013_Jan_05_1132,59.9576734099,MP-Perception Experiment,xx26m21,
419,vcgpdm_dyn(25)-lvm(35)_final(4).webm,True,left,2,training(15).webm,0,100,100,19,,,,,,,,12:15:01:096,12:15:01:919,12:15:04:922,left,12:15:05:455,,2013_Jan_05_1132,59.9576734099,MP-Perception Experiment,xx26m21,
420,training(19).webm,False,right,2,tmp_numprim(5)_final(4).webm,0,101,101,59,,,,,,,,12:15:06:136,12:15:06:956,12:15:09:959,right,12:15:10:443,,2013_Jan_05_1132,59.9576734099,MP-Perception Experiment,xx26m21,
421,vcgpdm_dyn(15)-lvm(10)_final(9).webm,False,left,2,training(36).webm,0,102,102,75,,,,,,,,12:15:11:124,12:15:11:944,12:15:14:947,left,12:15:15:531,,2013_Jan_05_1132,59.9576734099,MP-Perception Experiment,xx26m21,
422,training(26).webm,True,right,2,vgpdm_dyn(30)-lvm(5)_final(4).webm,0,103,103,124,,,,,,,,12:15:16:210,12:15:17:032,12:15:20:035,right,12:15:20:619,,2013_Jan_05_1132,59.9576734099,MP-Perception Experiment,xx26m21,
423,training(31).webm,True,right,2,vgpdm_dyn(30)-lvm(15)_final(7).webm,0,104,104,98,,,,,,,,12:15:21:291,12:15:22:120,12:15:25:122,right,12:15:25:773,,2013_Jan_05_1132,59.9576734099,MP-Perception Experiment,xx26m21,
424,vcgpdm_dyn(30)-lvm(5)_final(6).webm,False,left,2,training(14).webm,0,105,105,119,,,,,,,,12:15:26:452,12:15:27:274,12:15:30:277,left,12:15:31:211,,2013_Jan_05_1132,59.9576734099,MP-Perception Experiment,xx26m21,
425,training(6).webm,True,right,2,vgpdm_dyn(5)-lvm(20)_final(5).webm,0,106,106,113,,,,,,,,12:15:32:045,12:15:32:713,12:15:35:715,left,12:15:36:382,,2013_Jan_05_1132,59.9576734099,MP-Perception Experiment,xx26m21,
426,training(7).webm,True,right,2,vgpdm_dyn(15)-lvm(25)_final(8).webm,0,107,107,90,,,,,,,,12:15:37:065,12:15:37:883,12:15:40:884,right,12:15:43:670,,2013_Jan_05_1132,59.9576734099,MP-Perception Experiment,xx26m21,
427,training(21).webm,True,right,2,vcgpdm_dyn(20)-lvm(10)_final(2).webm,0,108,108,36,,,,,,,,12:15:44:348,12:15:45:171,12:15:48:174,right,12:15:48:691,,2013_Jan_05_1132,59.9576734099,MP-Perception Experiment,xx26m21,
428,vgpdm_dyn(10)-lvm(15)_final(0).webm,True,left,2,training(24).webm,0,109,109,151,,,,,,,,12:15:49:366,12:15:50:193,12:15:53:180,left,12:15:54:014,,2013_Jan_05_1132,59.9576734099,MP-Perception Experiment,xx26m21,
429,vgpdm_dyn(10)-lvm(35)_final(5).webm,True,left,2,training(33).webm,0,110,110,112,,,,,,,,12:15:54:718,12:15:55:515,12:15:58:518,left,12:15:59:385,,2013_Jan_05_1132,59.9576734099,MP-Perception Experiment,xx26m21,
430,vcgpdm_dyn(15)-lvm(30)_final(9).webm,False,left,2,training(13).webm,0,111,111,5,,,,,,,,12:16:00:155,12:16:00:886,12:16:03:889,left,12:16:04:523,,2013_Jan_05_1132,59.9576734099,MP-Perception Experiment,xx26m21,
431,training(0).webm,False,right,2,vgpdm_dyn(35)-lvm(35)_final(2).webm,0,112,112,47,,,,,,,,12:16:05:202,12:16:06:025,12:16:09:027,right,12:16:09:661,,2013_Jan_05_1132,59.9576734099,MP-Perception Experiment,xx26m21,
432,training(27).webm,True,right,2,vcgpdm_dyn(20)-lvm(15)_final(0).webm,0,113,113,85,,,,,,,,12:16:10:351,12:16:11:162,12:16:14:165,right,12:16:16:283,,2013_Jan_05_1132,59.9576734099,MP-Perception Experiment,xx26m21,
433,training(20).webm,True,right,2,vcgpdm_dyn(10)-lvm(20)_final(5).webm,0,114,114,65,,,,,,,,12:16:16:963,12:16:17:784,12:16:20:787,right,12:16:21:471,,2013_Jan_05_1132,59.9576734099,MP-Perception Experiment,xx26m21,
434,training(32).webm,True,right,2,dmp_npsi(20)_final(5).webm,0,115,115,129,,,,,,,,12:16:22:148,12:16:22:973,12:16:25:975,right,12:16:26:826,,2013_Jan_05_1132,59.9576734099,MP-Perception Experiment,xx26m21,
435,training(22).webm,True,right,2,vcgpdm_dyn(20)-lvm(5)_final(4).webm,0,116,116,48,,,,,,,,12:16:27:504,12:16:28:327,12:16:31:328,right,12:16:32:596,,2013_Jan_05_1132,59.9576734099,MP-Perception Experiment,xx26m21,
436,training(7).webm,True,right,2,vgpdm_dyn(30)-lvm(25)_final(2).webm,0,117,117,93,,,,,,,,12:16:33:273,12:16:34:097,12:16:37:099,right,12:16:37:917,,2013_Jan_05_1132,59.9576734099,MP-Perception Experiment,xx26m21,
437,vcgpdm_dyn(5)-lvm(5)_final(4).webm,False,left,2,training(33).webm,0,118,118,8,,,,,,,,12:16:38:602,12:16:39:418,12:16:42:421,left,12:16:43:407,,2013_Jan_05_1132,59.9576734099,MP-Perception Experiment,xx26m21,
438,vcgpdm_dyn(30)-lvm(30)_final(6).webm,True,left,2,training(24).webm,0,119,119,71,,,,,,,,12:16:44:133,12:16:44:908,12:16:47:911,left,12:16:49:279,,2013_Jan_05_1132,59.9576734099,MP-Perception Experiment,xx26m21,
439,vgpdm_dyn(30)-lvm(10)_final(5).webm,False,left,2,training(40).webm,0,120,120,35,,,,,,,,12:16:49:963,12:16:50:780,12:16:53:782,right,12:16:54:366,,2013_Jan_05_1132,59.9576734099,MP-Perception Experiment,xx26m21,
440,vgpdm_dyn(5)-lvm(20)_final(2).webm,True,left,2,training(16).webm,0,121,121,26,,,,,,,,12:16:55:071,12:16:55:867,12:16:58:871,left,12:16:59:771,,2013_Jan_05_1132,59.9576734099,MP-Perception Experiment,xx26m21,
441,training(3).webm,False,right,2,vcgpdm_dyn(20)-lvm(35)_final(1).webm,0,122,122,86,,,,,,,,12:17:00:458,12:17:01:272,12:17:04:275,right,12:17:04:775,,2013_Jan_05_1132,59.9576734099,MP-Perception Experiment,xx26m21,
442,vcgpdm_dyn(15)-lvm(15)_final(5).webm,True,left,2,training(21).webm,0,123,123,40,,,,,,,,12:17:05:460,12:17:06:276,12:17:09:279,left,12:17:09:946,,2013_Jan_05_1132,59.9576734099,MP-Perception Experiment,xx26m21,
443,training(7).webm,True,right,2,dmp_npsi(40)_final(5).webm,0,124,124,23,,,,,,,,12:17:10:624,12:17:11:447,12:17:14:450,right,12:17:15:919,,2013_Jan_05_1132,59.9576734099,MP-Perception Experiment,xx26m21,
444,vcgpdm_dyn(15)-lvm(35)_final(8).webm,True,left,2,training(30).webm,0,125,125,145,,,,,,,,12:17:16:595,12:17:17:420,12:17:20:421,left,12:17:21:054,,2013_Jan_05_1132,59.9576734099,MP-Perception Experiment,xx26m21,
445,map_cgpdm_final(1).webm,False,left,2,training(39).webm,0,126,126,147,,,,,,,,12:17:21:738,12:17:22:555,12:17:25:558,left,12:17:26:058,,2013_Jan_05_1132,59.9576734099,MP-Perception Experiment,xx26m21,
446,training(28).webm,True,right,2,vgpdm_dyn(35)-lvm(5)_final(6).webm,0,127,127,122,,,,,,,,12:17:26:744,12:17:27:560,12:17:30:562,right,12:17:31:246,,2013_Jan_05_1132,59.9576734099,MP-Perception Experiment,xx26m21,
447,vcgpdm_dyn(25)-lvm(25)_final(3).webm,True,left,2,training(10).webm,0,128,128,25,,,,,,,,12:17:31:922,12:17:32:750,12:17:35:736,left,12:17:36:303,,2013_Jan_05_1132,59.9576734099,MP-Perception Experiment,xx26m21,
448,training(19).webm,True,right,2,vgpdm_dyn(25)-lvm(5)_final(8).webm,0,129,129,44,,,,,,,,12:17:36:991,12:17:37:804,12:17:40:807,right,12:17:41:657,,2013_Jan_05_1132,59.9576734099,MP-Perception Experiment,xx26m21,
449,vcgpdm_dyn(10)-lvm(15)_final(6).webm,True,left,2,training(20).webm,0,130,130,3,,,,,,,,12:17:42:343,12:17:43:158,12:17:46:161,left,12:17:47:312,,2013_Jan_05_1132,59.9576734099,MP-Perception Experiment,xx26m21,
450,map_gpdm_final(2).webm,True,left,2,training(12).webm,0,131,131,68,,,,,,,,12:17:47:992,12:17:48:813,12:17:51:816,left,12:17:52:550,,2013_Jan_05_1132,59.9576734099,MP-Perception Experiment,xx26m21,
451,training(27).webm,True,right,2,vcgpdm_dyn(15)-lvm(10)_final(6).webm,0,132,132,143,,,,,,,,12:17:53:397,12:17:54:051,12:17:57:054,right,12:17:57:704,,2013_Jan_05_1132,59.9576734099,MP-Perception Experiment,xx26m21,
452,training(36).webm,True,right,2,dmp_npsi(30)_final(1).webm,0,133,133,130,,,,,,,,12:17:58:588,12:17:59:206,12:18:02:208,right,12:18:02:658,,2013_Jan_05_1132,59.9576734099,MP-Perception Experiment,xx26m21,
453,vcgpdm_dyn(20)-lvm(20)_final(1).webm,False,left,2,training(21).webm,0,134,134,7,,,,,,,,12:18:03:339,12:18:04:160,12:18:07:163,right,12:18:07:580,,2013_Jan_05_1132,59.9576734099,MP-Perception Experiment,xx26m21,
454,training(7).webm,True,right,2,dmp_npsi(30)_final(5).webm,0,135,135,70,,,,,,,,12:18:08:268,12:18:09:096,12:18:12:082,right,12:18:12:782,,2013_Jan_05_1132,59.9576734099,MP-Perception Experiment,xx26m21,
455,training(23).webm,True,right,2,vcgpdm_dyn(30)-lvm(20)_final(9).webm,0,136,136,69,,,,,,,,12:18:13:465,12:18:14:284,12:18:17:286,right,12:18:18:187,,2013_Jan_05_1132,59.9576734099,MP-Perception Experiment,xx26m21,
456,training(25).webm,True,right,2,tmp_numprim(9)_final(2).webm,0,137,137,137,,,,,,,,12:18:18:862,12:18:19:688,12:18:22:676,right,12:18:23:326,,2013_Jan_05_1132,59.9576734099,MP-Perception Experiment,xx26m21,
457,vgpdm_dyn(20)-lvm(15)_final(7).webm,False,left,2,training(14).webm,0,138,138,54,,,,,,,,12:18:24:004,12:18:24:828,12:18:27:831,left,12:18:28:448,,2013_Jan_05_1132,59.9576734099,MP-Perception Experiment,xx26m21,
458,training(30).webm,False,right,2,vcgpdm_dyn(25)-lvm(10)_final(8).webm,0,139,139,53,,,,,,,,12:18:29:296,12:18:29:949,12:18:32:952,right,12:18:33:402,,2013_Jan_05_1132,59.9576734099,MP-Perception Experiment,xx26m21,
459,tmp_numprim(4)_final(3).webm,True,left,2,training(30).webm,0,140,140,103,,,,,,,,12:18:34:084,12:18:34:903,12:18:37:906,left,12:18:38:539,,2013_Jan_05_1132,59.9576734099,MP-Perception Experiment,xx26m21,
460,vgpdm_dyn(30)-lvm(20)_final(1).webm,False,left,2,training(9).webm,0,141,141,82,,,,,,,,12:18:39:218,12:18:40:040,12:18:43:044,right,12:18:43:895,,2013_Jan_05_1132,59.9576734099,MP-Perception Experiment,xx26m21,
461,training(26).webm,True,right,2,vcgpdm_dyn(25)-lvm(30)_final(6).webm,0,142,142,22,,,,,,,,12:18:44:575,12:18:45:396,12:18:48:398,right,12:18:49:099,,2013_Jan_05_1132,59.9576734099,MP-Perception Experiment,xx26m21,
462,training(41).webm,True,right,2,vcgpdm_dyn(25)-lvm(25)_final(9).webm,0,143,143,38,,,,,,,,12:18:49:945,12:18:50:600,12:18:53:603,right,12:18:54:220,,2013_Jan_05_1132,59.9576734099,MP-Perception Experiment,xx26m21,
463,training(29).webm,True,right,2,dmp_npsi(40)_final(4).webm,0,144,144,56,,,,,,,,12:18:54:902,12:18:55:721,12:18:58:723,right,12:18:59:657,,2013_Jan_05_1132,59.9576734099,MP-Perception Experiment,xx26m21,
464,training(41).webm,True,right,2,vcgpdm_dyn(20)-lvm(25)_final(7).webm,0,145,145,28,,,,,,,,12:19:00:336,12:19:01:158,12:19:04:160,right,12:19:04:661,,2013_Jan_05_1132,59.9576734099,MP-Perception Experiment,xx26m21,
465,vcgpdm_dyn(35)-lvm(10)_final(8).webm,False,left,2,training(33).webm,0,146,146,81,,,,,,,,12:19:05:337,12:19:06:162,12:19:09:164,right,12:19:10:217,,2013_Jan_05_1132,59.9576734099,MP-Perception Experiment,xx26m21,
466,training(24).webm,True,right,2,tmp_numprim(3)_final(5).webm,0,147,147,0,,,,,,,,12:19:11:073,12:19:11:718,12:19:14:720,right,12:19:15:521,,2013_Jan_05_1132,59.9576734099,MP-Perception Experiment,xx26m21,
467,vgpdm_dyn(5)-lvm(15)_final(3).webm,True,left,2,training(11).webm,0,148,148,87,,,,,,,,12:19:16:195,12:19:17:022,12:19:20:026,left,12:19:20:643,,2013_Jan_05_1132,59.9576734099,MP-Perception Experiment,xx26m21,
468,training(22).webm,False,right,2,vcgpdm_dyn(25)-lvm(10)_final(9).webm,0,149,149,46,,,,,,,,12:19:21:460,12:19:22:144,12:19:25:147,left,12:19:26:314,,2013_Jan_05_1132,59.9576734099,MP-Perception Experiment,xx26m21,
469,training(28).webm,True,right,2,vgpdm_dyn(35)-lvm(35)_final(2).webm,0,150,150,102,,,,,,,,12:19:26:992,12:19:27:815,12:19:30:818,left,12:19:31:368,,2013_Jan_05_1132,59.9576734099,MP-Perception Experiment,xx26m21,
