trial_number,right,flipped,correct,block,left,trials.thisRepN,trials.thisTrialN,trials.thisN,trials.thisIndex,flipwelcome.keys,flipwelcome.corr,flipwelcome.rt,flippreparations.keys,flippreparations.rt,flipInstructions.keys,flipInstructions.rt,time_at_fixation_cross_onset,time_at_videoonset,time_at_videoend,participant_key_response,time_at_key_response,key_resp_4.keys,date,frameRate,expName,participant,
,,,,,,,,,,space,0,100.584546996,,,,,,,,,,,2013_Jan_05_1508,59.9667693086,MP-Perception Experiment,xx27w24,
,,,,,,,,,,,,,space,17.9834576661,,,,,,,,,2013_Jan_05_1508,59.9667693086,MP-Perception Experiment,xx27w24,
,,,,,,,,,,,,,,,space,9.40805778839,,,,,,,2013_Jan_05_1508,59.9667693086,MP-Perception Experiment,xx27w24,
1,tmp_numprim(5)_final(4).webm,False,left,0,training(17).webm,0,0,0,46,,,,,,,,15:10:51:741,15:10:52:468,15:10:55:453,left,15:10:56:237,,2013_Jan_05_1508,59.9667693086,MP-Perception Experiment,xx27w24,
2,training(13).webm,False,right,0,vgpdm_dyn(10)-lvm(35)_final(9).webm,0,1,1,5,,,,,,,,15:10:56:993,15:10:57:738,15:11:00:741,right,15:11:01:358,,2013_Jan_05_1508,59.9667693086,MP-Perception Experiment,xx27w24,
3,training(12).webm,True,right,0,vcgpdm_dyn(25)-lvm(15)_final(0).webm,0,2,2,113,,,,,,,,15:11:02:210,15:11:02:859,15:11:05:863,left,15:11:06:463,,2013_Jan_05_1508,59.9667693086,MP-Perception Experiment,xx27w24,
4,training(31).webm,False,right,0,vcgpdm_dyn(25)-lvm(20)_final(8).webm,0,3,3,18,,,,,,,,15:11:07:275,15:11:07:964,15:11:10:967,right,15:11:11:551,,2013_Jan_05_1508,59.9667693086,MP-Perception Experiment,xx27w24,
5,training(4).webm,True,right,0,vcgpdm_dyn(15)-lvm(25)_final(3).webm,0,4,4,10,,,,,,,,15:11:12:406,15:11:13:067,15:11:16:053,left,15:11:16:770,,2013_Jan_05_1508,59.9667693086,MP-Perception Experiment,xx27w24,
6,training(32).webm,False,right,0,tmp_numprim(4)_final(6).webm,0,5,5,134,,,,,,,,15:11:17:597,15:11:18:271,15:11:21:273,right,15:11:21:674,,2013_Jan_05_1508,59.9667693086,MP-Perception Experiment,xx27w24,
7,vgpdm_dyn(30)-lvm(20)_final(7).webm,True,left,0,training(3).webm,0,6,6,85,,,,,,,,15:11:22:496,15:11:23:176,15:11:26:163,left,15:11:26:897,,2013_Jan_05_1508,59.9667693086,MP-Perception Experiment,xx27w24,
8,training(6).webm,False,right,0,vcgpdm_dyn(35)-lvm(25)_final(1).webm,0,7,7,38,,,,,,,,15:11:27:741,15:11:28:398,15:11:31:401,right,15:11:32:052,,2013_Jan_05_1508,59.9667693086,MP-Perception Experiment,xx27w24,
9,training(5).webm,False,right,0,vcgpdm_dyn(15)-lvm(5)_final(8).webm,0,8,8,26,,,,,,,,15:11:32:742,15:11:33:553,15:11:36:555,right,15:11:37:106,,2013_Jan_05_1508,59.9667693086,MP-Perception Experiment,xx27w24,
10,vgpdm_dyn(25)-lvm(5)_final(0).webm,False,left,0,training(10).webm,0,9,9,65,,,,,,,,15:11:37:949,15:11:38:607,15:11:41:610,right,15:11:42:111,,2013_Jan_05_1508,59.9667693086,MP-Perception Experiment,xx27w24,
11,vgpdm_dyn(20)-lvm(20)_final(4).webm,False,left,0,training(8).webm,0,10,10,117,,,,,,,,15:11:42:794,15:11:43:612,15:11:46:614,right,15:11:46:831,,2013_Jan_05_1508,59.9667693086,MP-Perception Experiment,xx27w24,
12,training(32).webm,True,right,0,dmp_npsi(25)_final(9).webm,0,11,11,109,,,,,,,,15:11:47:514,15:11:48:332,15:11:51:335,right,15:11:51:818,,2013_Jan_05_1508,59.9667693086,MP-Perception Experiment,xx27w24,
13,training(27).webm,False,right,0,vcgpdm_dyn(25)-lvm(25)_final(7).webm,0,12,12,133,,,,,,,,15:11:52:527,15:11:53:320,15:11:56:322,right,15:11:56:856,,2013_Jan_05_1508,59.9667693086,MP-Perception Experiment,xx27w24,
14,training(8).webm,False,right,0,vcgpdm_dyn(30)-lvm(25)_final(0).webm,0,13,13,3,,,,,,,,15:11:57:685,15:11:58:358,15:12:01:361,right,15:12:01:761,,2013_Jan_05_1508,59.9667693086,MP-Perception Experiment,xx27w24,
15,vgpdm_dyn(5)-lvm(10)_final(2).webm,True,left,0,training(17).webm,0,14,14,135,,,,,,,,15:12:02:436,15:12:03:277,15:12:06:263,left,15:12:06:796,,2013_Jan_05_1508,59.9667693086,MP-Perception Experiment,xx27w24,
16,training(13).webm,False,right,0,map_cgpdm_final(2).webm,0,15,15,107,,,,,,,,15:12:07:641,15:12:08:298,15:12:11:300,right,15:12:11:734,,2013_Jan_05_1508,59.9667693086,MP-Perception Experiment,xx27w24,
17,training(19).webm,True,right,0,vgpdm_dyn(10)-lvm(10)_final(4).webm,0,16,16,123,,,,,,,,15:12:12:496,15:12:13:235,15:12:16:223,left,15:12:16:707,,2013_Jan_05_1508,59.9667693086,MP-Perception Experiment,xx27w24,
18,training(11).webm,True,right,0,vgpdm_dyn(20)-lvm(20)_final(0).webm,0,17,17,87,,,,,,,,15:12:17:558,15:12:18:208,15:12:21:211,left,15:12:22:112,,2013_Jan_05_1508,59.9667693086,MP-Perception Experiment,xx27w24,
19,training(40).webm,True,right,0,vcgpdm_dyn(30)-lvm(15)_final(6).webm,0,18,18,101,,,,,,,,15:12:22:802,15:12:23:613,15:12:26:615,right,15:12:27:232,,2013_Jan_05_1508,59.9667693086,MP-Perception Experiment,xx27w24,
20,training(28).webm,True,right,0,vgpdm_dyn(5)-lvm(10)_final(2).webm,0,19,19,118,,,,,,,,15:12:27:972,15:12:28:734,15:12:31:736,right,15:12:32:171,,2013_Jan_05_1508,59.9667693086,MP-Perception Experiment,xx27w24,
21,vcgpdm_dyn(25)-lvm(30)_final(2).webm,False,left,0,training(48).webm,0,20,20,120,,,,,,,,15:12:32:854,15:12:33:672,15:12:36:674,left,15:12:37:058,,2013_Jan_05_1508,59.9667693086,MP-Perception Experiment,xx27w24,
22,vgpdm_dyn(5)-lvm(10)_final(1).webm,True,left,0,training(35).webm,0,21,21,119,,,,,,,,15:12:37:906,15:12:38:559,15:12:41:562,left,15:12:41:762,,2013_Jan_05_1508,59.9667693086,MP-Perception Experiment,xx27w24,
23,training(21).webm,True,right,0,vgpdm_dyn(10)-lvm(10)_final(6).webm,0,22,22,100,,,,,,,,15:12:42:493,15:12:43:263,15:12:46:266,left,15:12:47:133,,2013_Jan_05_1508,59.9667693086,MP-Perception Experiment,xx27w24,
24,vgpdm_dyn(20)-lvm(15)_final(7).webm,False,left,0,training(35).webm,0,23,23,139,,,,,,,,15:12:47:817,15:12:48:634,15:12:51:638,right,15:12:52:171,,2013_Jan_05_1508,59.9667693086,MP-Perception Experiment,xx27w24,
25,training(7).webm,False,right,0,vgpdm_dyn(15)-lvm(35)_final(1).webm,0,24,24,149,,,,,,,,15:12:52:898,15:12:53:687,15:12:56:690,right,15:12:57:073,,2013_Jan_05_1508,59.9667693086,MP-Perception Experiment,xx27w24,
26,training(25).webm,True,right,0,vcgpdm_dyn(35)-lvm(20)_final(6).webm,0,25,25,77,,,,,,,,15:12:57:926,15:12:58:574,15:13:01:577,right,15:13:02:077,,2013_Jan_05_1508,59.9667693086,MP-Perception Experiment,xx27w24,
27,vcgpdm_dyn(30)-lvm(20)_final(1).webm,True,left,0,training(40).webm,0,26,26,19,,,,,,,,15:13:02:751,15:13:03:579,15:13:06:566,left,15:13:06:983,,2013_Jan_05_1508,59.9667693086,MP-Perception Experiment,xx27w24,
28,vgpdm_dyn(5)-lvm(20)_final(4).webm,False,left,0,training(25).webm,0,27,27,13,,,,,,,,15:13:07:664,15:13:08:485,15:13:11:488,left,15:13:12:005,,2013_Jan_05_1508,59.9667693086,MP-Perception Experiment,xx27w24,
29,training(48).webm,False,right,0,vcgpdm_dyn(25)-lvm(35)_final(9).webm,0,28,28,35,,,,,,,,15:13:12:680,15:13:13:506,15:13:16:509,right,15:13:16:825,,2013_Jan_05_1508,59.9667693086,MP-Perception Experiment,xx27w24,
30,vgpdm_dyn(35)-lvm(25)_final(2).webm,False,left,0,training(12).webm,0,29,29,52,,,,,,,,15:13:17:506,15:13:18:327,15:13:21:329,right,15:13:21:729,,2013_Jan_05_1508,59.9667693086,MP-Perception Experiment,xx27w24,
31,training(39).webm,False,right,0,vcgpdm_dyn(15)-lvm(30)_final(5).webm,0,30,30,115,,,,,,,,15:13:22:408,15:13:23:231,15:13:26:234,right,15:13:26:551,,2013_Jan_05_1508,59.9667693086,MP-Perception Experiment,xx27w24,
32,vgpdm_dyn(20)-lvm(30)_final(6).webm,False,left,0,training(18).webm,0,31,31,47,,,,,,,,15:13:27:232,15:13:28:052,15:13:31:055,right,15:13:31:655,,2013_Jan_05_1508,59.9667693086,MP-Perception Experiment,xx27w24,
33,training(1).webm,True,right,0,tmp_numprim(2)_final(2).webm,0,32,32,33,,,,,,,,15:13:32:331,15:13:33:156,15:13:36:159,right,15:13:36:859,,2013_Jan_05_1508,59.9667693086,MP-Perception Experiment,xx27w24,
34,training(28).webm,True,right,0,vcgpdm_dyn(5)-lvm(25)_final(8).webm,0,33,33,60,,,,,,,,15:13:37:538,15:13:38:360,15:13:41:363,right,15:13:41:947,,2013_Jan_05_1508,59.9667693086,MP-Perception Experiment,xx27w24,
35,training(3).webm,True,right,0,vcgpdm_dyn(35)-lvm(10)_final(6).webm,0,34,34,112,,,,,,,,15:13:42:629,15:13:43:464,15:13:46:450,right,15:13:47:334,,2013_Jan_05_1508,59.9667693086,MP-Perception Experiment,xx27w24,
36,training(41).webm,False,right,0,vcgpdm_dyn(30)-lvm(25)_final(9).webm,0,35,35,69,,,,,,,,15:13:48:017,15:13:48:835,15:13:51:837,right,15:13:51:854,,2013_Jan_05_1508,59.9667693086,MP-Perception Experiment,xx27w24,
37,training(29).webm,True,right,0,vcgpdm_dyn(15)-lvm(20)_final(5).webm,0,36,36,57,,,,,,,,15:13:52:533,15:13:53:355,15:13:56:343,left,15:13:56:743,,2013_Jan_05_1508,59.9667693086,MP-Perception Experiment,xx27w24,
38,training(20).webm,False,right,0,vcgpdm_dyn(35)-lvm(30)_final(1).webm,0,37,37,32,,,,,,,,15:13:57:445,15:13:58:244,15:14:01:248,right,15:14:01:915,,2013_Jan_05_1508,59.9667693086,MP-Perception Experiment,xx27w24,
39,training(11).webm,False,right,0,vgpdm_dyn(30)-lvm(30)_final(6).webm,0,38,38,30,,,,,,,,15:14:02:593,15:14:03:416,15:14:06:419,right,15:14:06:769,,2013_Jan_05_1508,59.9667693086,MP-Perception Experiment,xx27w24,
40,vcgpdm_dyn(10)-lvm(25)_final(1).webm,True,left,0,training(7).webm,0,39,39,59,,,,,,,,15:14:07:447,15:14:08:270,15:14:11:272,left,15:14:11:923,,2013_Jan_05_1508,59.9667693086,MP-Perception Experiment,xx27w24,
41,vgpdm_dyn(20)-lvm(35)_final(5).webm,False,left,0,training(39).webm,0,40,40,20,,,,,,,,15:14:12:599,15:14:13:424,15:14:16:427,left,15:14:17:078,,2013_Jan_05_1508,59.9667693086,MP-Perception Experiment,xx27w24,
42,training(32).webm,True,right,0,vgpdm_dyn(10)-lvm(20)_final(7).webm,0,41,41,148,,,,,,,,15:14:17:752,15:14:18:579,15:14:21:582,left,15:14:22:165,,2013_Jan_05_1508,59.9667693086,MP-Perception Experiment,xx27w24,
43,tmp_numprim(5)_final(5).webm,True,left,0,training(16).webm,0,42,42,78,,,,,,,,15:14:22:848,15:14:23:667,15:14:26:669,left,15:14:27:120,,2013_Jan_05_1508,59.9667693086,MP-Perception Experiment,xx27w24,
44,training(5).webm,True,right,0,vgpdm_dyn(15)-lvm(5)_final(5).webm,0,43,43,142,,,,,,,,15:14:27:747,15:14:28:621,15:14:31:623,left,15:14:32:474,,2013_Jan_05_1508,59.9667693086,MP-Perception Experiment,xx27w24,
45,training(5).webm,True,right,0,vcgpdm_dyn(30)-lvm(5)_final(7).webm,0,44,44,48,,,,,,,,15:14:33:159,15:14:33:990,15:14:36:993,left,15:14:37:527,,2013_Jan_05_1508,59.9667693086,MP-Perception Experiment,xx27w24,
46,training(34).webm,True,right,0,vcgpdm_dyn(10)-lvm(10)_final(1).webm,0,45,45,105,,,,,,,,15:14:38:206,15:14:39:028,15:14:42:031,left,15:14:42:464,,2013_Jan_05_1508,59.9667693086,MP-Perception Experiment,xx27w24,
47,training(33).webm,True,right,0,dmp_npsi(15)_final(9).webm,0,46,46,146,,,,,,,,15:14:43:149,15:14:43:966,15:14:46:953,right,15:14:47:687,,2013_Jan_05_1508,59.9667693086,MP-Perception Experiment,xx27w24,
48,training(14).webm,True,right,0,tmp_numprim(9)_final(1).webm,0,47,47,42,,,,,,,,15:14:48:369,15:14:49:188,15:14:52:192,right,15:14:52:775,,2013_Jan_05_1508,59.9667693086,MP-Perception Experiment,xx27w24,
49,training(5).webm,False,right,0,tmp_numprim(6)_final(0).webm,0,48,48,98,,,,,,,,15:14:53:452,15:14:54:277,15:14:57:279,right,15:14:57:746,,2013_Jan_05_1508,59.9667693086,MP-Perception Experiment,xx27w24,
50,vgpdm_dyn(5)-lvm(20)_final(6).webm,True,left,0,training(7).webm,0,49,49,130,,,,,,,,15:14:58:518,15:14:59:247,15:15:02:250,left,15:15:02:700,,2013_Jan_05_1508,59.9667693086,MP-Perception Experiment,xx27w24,
51,vgpdm_dyn(5)-lvm(10)_final(0).webm,False,left,0,training(3).webm,0,50,50,83,,,,,,,,15:15:03:381,15:15:04:201,15:15:07:204,left,15:15:07:788,,2013_Jan_05_1508,59.9667693086,MP-Perception Experiment,xx27w24,
52,training(5).webm,False,right,0,vgpdm_dyn(10)-lvm(10)_final(2).webm,0,51,51,34,,,,,,,,15:15:08:592,15:15:09:289,15:15:12:292,right,15:15:12:759,,2013_Jan_05_1508,59.9667693086,MP-Perception Experiment,xx27w24,
53,training(19).webm,False,right,0,vcgpdm_dyn(35)-lvm(5)_final(8).webm,0,52,52,131,,,,,,,,15:15:13:438,15:15:14:260,15:15:17:263,right,15:15:17:863,,2013_Jan_05_1508,59.9667693086,MP-Perception Experiment,xx27w24,
54,training(34).webm,False,right,0,vcgpdm_dyn(30)-lvm(20)_final(7).webm,0,53,53,51,,,,,,,,15:15:18:540,15:15:19:365,15:15:22:367,right,15:15:23:249,,2013_Jan_05_1508,59.9667693086,MP-Perception Experiment,xx27w24,
55,vcgpdm_dyn(30)-lvm(35)_final(3).webm,True,left,0,training(33).webm,0,54,54,151,,,,,,,,15:15:23:932,15:15:24:750,15:15:27:754,left,15:15:28:705,,2013_Jan_05_1508,59.9667693086,MP-Perception Experiment,xx27w24,
56,dmp_npsi(45)_final(1).webm,True,left,0,training(10).webm,0,55,55,80,,,,,,,,15:15:29:445,15:15:30:206,15:15:33:208,left,15:15:33:709,,2013_Jan_05_1508,59.9667693086,MP-Perception Experiment,xx27w24,
57,vcgpdm_dyn(20)-lvm(5)_final(1).webm,True,left,0,training(3).webm,0,56,56,1,,,,,,,,15:15:34:501,15:15:35:212,15:15:38:214,left,15:15:38:781,,2013_Jan_05_1508,59.9667693086,MP-Perception Experiment,xx27w24,
58,vgpdm_dyn(30)-lvm(25)_final(0).webm,True,left,0,training(20).webm,0,57,57,56,,,,,,,,15:15:39:550,15:15:40:282,15:15:43:285,left,15:15:43:802,,2013_Jan_05_1508,59.9667693086,MP-Perception Experiment,xx27w24,
59,training(24).webm,False,right,0,dmp_npsi(15)_final(0).webm,0,58,58,157,,,,,,,,15:15:44:653,15:15:45:304,15:15:48:307,right,15:15:48:840,,2013_Jan_05_1508,59.9667693086,MP-Perception Experiment,xx27w24,
60,training(16).webm,True,right,0,vgpdm_dyn(20)-lvm(15)_final(0).webm,0,59,59,86,,,,,,,,15:15:49:683,15:15:50:342,15:15:53:344,left,15:15:53:911,,2013_Jan_05_1508,59.9667693086,MP-Perception Experiment,xx27w24,
61,vgpdm_dyn(15)-lvm(15)_final(5).webm,False,left,0,training(36).webm,0,60,60,108,,,,,,,,15:15:54:761,15:15:55:412,15:15:58:415,right,15:15:58:865,,2013_Jan_05_1508,59.9667693086,MP-Perception Experiment,xx27w24,
62,vcgpdm_dyn(30)-lvm(10)_final(8).webm,False,left,0,training(20).webm,0,61,61,62,,,,,,,,15:15:59:709,15:16:00:366,15:16:03:370,left,15:16:04:120,,2013_Jan_05_1508,59.9667693086,MP-Perception Experiment,xx27w24,
63,vcgpdm_dyn(25)-lvm(15)_final(0).webm,True,left,0,training(31).webm,0,62,62,53,,,,,,,,15:16:04:789,15:16:05:622,15:16:08:624,left,15:16:09:108,,2013_Jan_05_1508,59.9667693086,MP-Perception Experiment,xx27w24,
64,vcgpdm_dyn(10)-lvm(10)_final(1).webm,False,left,0,training(33).webm,0,63,63,79,,,,,,,,15:16:09:777,15:16:10:609,15:16:13:610,right,15:16:14:794,,2013_Jan_05_1508,59.9667693086,MP-Perception Experiment,xx27w24,
65,vcgpdm_dyn(5)-lvm(5)_final(1).webm,False,left,0,training(27).webm,0,64,64,75,,,,,,,,15:16:15:537,15:16:16:295,15:16:19:298,right,15:16:19:916,,2013_Jan_05_1508,59.9667693086,MP-Perception Experiment,xx27w24,
66,training(28).webm,False,right,0,vcgpdm_dyn(25)-lvm(20)_final(4).webm,0,65,65,76,,,,,,,,15:16:20:758,15:16:21:417,15:16:24:419,right,15:16:24:753,,2013_Jan_05_1508,59.9667693086,MP-Perception Experiment,xx27w24,
67,vcgpdm_dyn(20)-lvm(5)_final(3).webm,True,left,0,training(18).webm,0,66,66,128,,,,,,,,15:16:25:532,15:16:26:254,15:16:29:242,left,15:16:29:842,,2013_Jan_05_1508,59.9667693086,MP-Perception Experiment,xx27w24,
68,vcgpdm_dyn(10)-lvm(35)_final(0).webm,False,left,0,training(16).webm,0,67,67,89,,,,,,,,15:16:30:563,15:16:31:343,15:16:34:346,left,15:16:34:880,,2013_Jan_05_1508,59.9667693086,MP-Perception Experiment,xx27w24,
69,tmp_numprim(7)_final(0).webm,False,left,0,training(40).webm,0,68,68,88,,,,,,,,15:16:35:559,15:16:36:381,15:16:39:384,right,15:16:39:818,,2013_Jan_05_1508,59.9667693086,MP-Perception Experiment,xx27w24,
70,training(41).webm,False,right,0,vgpdm_dyn(15)-lvm(30)_final(8).webm,0,69,69,154,,,,,,,,15:16:40:665,15:16:41:319,15:16:44:322,right,15:16:45:289,,2013_Jan_05_1508,59.9667693086,MP-Perception Experiment,xx27w24,
71,vcgpdm_dyn(15)-lvm(15)_final(1).webm,False,left,0,training(37).webm,0,70,70,102,,,,,,,,15:16:46:130,15:16:46:790,15:16:49:793,left,15:16:50:276,,2013_Jan_05_1508,59.9667693086,MP-Perception Experiment,xx27w24,
72,training(27).webm,False,right,0,vgpdm_dyn(30)-lvm(15)_final(2).webm,0,71,71,147,,,,,,,,15:16:50:959,15:16:51:777,15:16:54:781,right,15:16:55:365,,2013_Jan_05_1508,59.9667693086,MP-Perception Experiment,xx27w24,
73,training(27).webm,True,right,0,vgpdm_dyn(5)-lvm(30)_final(9).webm,0,72,72,24,,,,,,,,15:16:56:195,15:16:56:866,15:16:59:868,right,15:17:00:335,,2013_Jan_05_1508,59.9667693086,MP-Perception Experiment,xx27w24,
74,training(20).webm,True,right,0,dmp_npsi(25)_final(7).webm,0,73,73,73,,,,,,,,15:17:01:166,15:17:01:837,15:17:04:837,right,15:17:05:221,,2013_Jan_05_1508,59.9667693086,MP-Perception Experiment,xx27w24,
75,training(0).webm,True,right,0,vcgpdm_dyn(20)-lvm(30)_final(0).webm,0,74,74,72,,,,,,,,15:17:06:071,15:17:06:722,15:17:09:725,right,15:17:10:142,,2013_Jan_05_1508,59.9667693086,MP-Perception Experiment,xx27w24,
76,training(16).webm,True,right,0,vcgpdm_dyn(30)-lvm(30)_final(2).webm,0,75,75,140,,,,,,,,15:17:10:959,15:17:11:643,15:17:14:631,right,15:17:15:148,,2013_Jan_05_1508,59.9667693086,MP-Perception Experiment,xx27w24,
77,training(37).webm,True,right,0,vgpdm_dyn(15)-lvm(5)_final(9).webm,0,76,76,23,,,,,,,,15:17:15:998,15:17:16:650,15:17:19:652,left,15:17:20:036,,2013_Jan_05_1508,59.9667693086,MP-Perception Experiment,xx27w24,
78,training(2).webm,False,right,0,dmp_npsi(20)_final(8).webm,0,77,77,103,,,,,,,,15:17:20:886,15:17:21:537,15:17:24:539,right,15:17:24:873,,2013_Jan_05_1508,59.9667693086,MP-Perception Experiment,xx27w24,
79,training(13).webm,False,right,0,vcgpdm_dyn(5)-lvm(15)_final(2).webm,0,78,78,90,,,,,,,,15:17:25:715,15:17:26:374,15:17:29:378,right,15:17:29:778,,2013_Jan_05_1508,59.9667693086,MP-Perception Experiment,xx27w24,
80,training(48).webm,True,right,0,vcgpdm_dyn(25)-lvm(15)_final(7).webm,0,79,79,81,,,,,,,,15:17:30:599,15:17:31:279,15:17:34:282,left,15:17:34:749,,2013_Jan_05_1508,59.9667693086,MP-Perception Experiment,xx27w24,
81,vcgpdm_dyn(20)-lvm(30)_final(0).webm,True,left,0,training(22).webm,0,80,80,74,,,,,,,,15:17:35:417,15:17:36:250,15:17:39:252,left,15:17:39:686,,2013_Jan_05_1508,59.9667693086,MP-Perception Experiment,xx27w24,
82,training(31).webm,True,right,0,vcgpdm_dyn(30)-lvm(15)_final(8).webm,0,81,81,95,,,,,,,,15:17:40:526,15:17:41:187,15:17:44:190,left,15:17:44:657,,2013_Jan_05_1508,59.9667693086,MP-Perception Experiment,xx27w24,
83,training(19).webm,True,right,0,vcgpdm_dyn(35)-lvm(30)_final(5).webm,0,82,82,158,,,,,,,,15:17:45:505,15:17:46:158,15:17:49:161,left,15:17:49:328,,2013_Jan_05_1508,59.9667693086,MP-Perception Experiment,xx27w24,
84,vgpdm_dyn(35)-lvm(5)_final(9).webm,True,left,0,training(41).webm,0,83,83,67,,,,,,,,15:17:50:003,15:17:50:829,15:17:53:830,left,15:17:54:347,,2013_Jan_05_1508,59.9667693086,MP-Perception Experiment,xx27w24,
85,vgpdm_dyn(20)-lvm(5)_final(5).webm,True,left,0,training(28).webm,0,84,84,84,,,,,,,,15:17:54:980,15:17:55:848,15:17:58:851,left,15:17:59:601,,2013_Jan_05_1508,59.9667693086,MP-Perception Experiment,xx27w24,
86,training(5).webm,False,right,0,vgpdm_dyn(15)-lvm(30)_final(1).webm,0,85,85,155,,,,,,,,15:18:00:412,15:18:01:102,15:18:04:105,right,15:18:04:556,,2013_Jan_05_1508,59.9667693086,MP-Perception Experiment,xx27w24,
87,vgpdm_dyn(30)-lvm(30)_final(9).webm,False,left,0,training(28).webm,0,86,86,7,,,,,,,,15:18:05:211,15:18:06:057,15:18:09:045,right,15:18:09:295,,2013_Jan_05_1508,59.9667693086,MP-Perception Experiment,xx27w24,
88,training(15).webm,False,right,0,map_cgpdm_final(6).webm,0,87,87,21,,,,,,,,15:18:09:981,15:18:10:796,15:18:13:799,right,15:18:14:199,,2013_Jan_05_1508,59.9667693086,MP-Perception Experiment,xx27w24,
89,training(14).webm,False,right,0,vgpdm_dyn(25)-lvm(35)_final(1).webm,0,88,88,36,,,,,,,,15:18:14:878,15:18:15:700,15:18:18:703,right,15:18:19:186,,2013_Jan_05_1508,59.9667693086,MP-Perception Experiment,xx27w24,
90,training(24).webm,True,right,0,vcgpdm_dyn(20)-lvm(25)_final(9).webm,0,89,89,94,,,,,,,,15:18:19:870,15:18:20:688,15:18:23:691,left,15:18:24:292,,2013_Jan_05_1508,59.9667693086,MP-Perception Experiment,xx27w24,
91,vcgpdm_dyn(15)-lvm(5)_final(3).webm,True,left,0,training(4).webm,0,90,90,91,,,,,,,,15:18:24:967,15:18:25:793,15:18:28:795,left,15:18:29:262,,2013_Jan_05_1508,59.9667693086,MP-Perception Experiment,xx27w24,
92,training(14).webm,True,right,0,vcgpdm_dyn(15)-lvm(5)_final(0).webm,0,91,91,96,,,,,,,,15:18:29:945,15:18:30:763,15:18:33:766,left,15:18:34:183,,2013_Jan_05_1508,59.9667693086,MP-Perception Experiment,xx27w24,
93,training(7).webm,True,right,0,tmp_numprim(5)_final(5).webm,0,92,92,43,,,,,,,,15:18:34:854,15:18:35:684,15:18:38:687,right,15:18:39:238,,2013_Jan_05_1508,59.9667693086,MP-Perception Experiment,xx27w24,
94,training(32).webm,False,right,0,vcgpdm_dyn(30)-lvm(10)_final(5).webm,0,93,93,92,,,,,,,,15:18:39:912,15:18:40:739,15:18:43:740,right,15:18:44:207,,2013_Jan_05_1508,59.9667693086,MP-Perception Experiment,xx27w24,
95,tmp_numprim(2)_final(8).webm,True,left,0,training(8).webm,0,94,94,63,,,,,,,,15:18:44:887,15:18:45:708,15:18:48:710,left,15:18:49:361,,2013_Jan_05_1508,59.9667693086,MP-Perception Experiment,xx27w24,
96,vcgpdm_dyn(15)-lvm(25)_final(3).webm,False,left,0,training(3).webm,0,95,95,0,,,,,,,,15:18:50:035,15:18:50:862,15:18:53:865,left,15:18:54:283,,2013_Jan_05_1508,59.9667693086,MP-Perception Experiment,xx27w24,
97,vgpdm_dyn(15)-lvm(30)_final(6).webm,True,left,0,training(14).webm,0,96,96,44,,,,,,,,15:18:54:961,15:18:55:785,15:18:58:788,left,15:18:59:238,,2013_Jan_05_1508,59.9667693086,MP-Perception Experiment,xx27w24,
98,training(30).webm,False,right,0,vcgpdm_dyn(10)-lvm(15)_final(4).webm,0,97,97,99,,,,,,,,15:18:59:994,15:19:00:740,15:19:03:742,right,15:19:04:209,,2013_Jan_05_1508,59.9667693086,MP-Perception Experiment,xx27w24,
99,training(24).webm,False,right,0,vcgpdm_dyn(25)-lvm(20)_final(5).webm,0,98,98,39,,,,,,,,15:19:04:888,15:19:05:710,15:19:08:713,right,15:19:09:213,,2013_Jan_05_1508,59.9667693086,MP-Perception Experiment,xx27w24,
100,training(41).webm,True,right,0,vgpdm_dyn(20)-lvm(5)_final(3).webm,0,99,99,31,,,,,,,,15:19:10:083,15:19:10:731,15:19:13:717,right,15:19:14:202,,2013_Jan_05_1508,59.9667693086,MP-Perception Experiment,xx27w24,
101,training(5).webm,False,right,0,vgpdm_dyn(20)-lvm(20)_final(0).webm,0,100,100,122,,,,,,,,15:19:14:874,15:19:15:703,15:19:18:705,right,15:19:19:406,,2013_Jan_05_1508,59.9667693086,MP-Perception Experiment,xx27w24,
102,vcgpdm_dyn(15)-lvm(15)_final(9).webm,True,left,0,training(31).webm,0,101,101,11,,,,,,,,15:19:20:248,15:19:20:907,15:19:23:909,left,15:19:24:443,,2013_Jan_05_1508,59.9667693086,MP-Perception Experiment,xx27w24,
103,dmp_npsi(50)_final(1).webm,True,left,0,training(34).webm,0,102,102,40,,,,,,,,15:19:25:124,15:19:25:944,15:19:28:947,left,15:19:29:397,,2013_Jan_05_1508,59.9667693086,MP-Perception Experiment,xx27w24,
104,vgpdm_dyn(35)-lvm(30)_final(8).webm,True,left,0,training(31).webm,0,103,103,50,,,,,,,,15:19:30:161,15:19:30:898,15:19:33:900,left,15:19:34:267,,2013_Jan_05_1508,59.9667693086,MP-Perception Experiment,xx27w24,
105,vcgpdm_dyn(5)-lvm(10)_final(8).webm,True,left,0,training(0).webm,0,104,104,71,,,,,,,,15:19:34:944,15:19:35:768,15:19:38:771,left,15:19:39:271,,2013_Jan_05_1508,59.9667693086,MP-Perception Experiment,xx27w24,
106,vgpdm_dyn(10)-lvm(20)_final(7).webm,True,left,0,training(19).webm,0,105,105,66,,,,,,,,15:19:39:944,15:19:40:772,15:19:43:775,left,15:19:44:175,,2013_Jan_05_1508,59.9667693086,MP-Perception Experiment,xx27w24,
107,vcgpdm_dyn(5)-lvm(35)_final(0)_bad.webm,False,left,0,training(17).webm,0,106,106,124,,,,,,,,15:19:44:852,15:19:45:676,15:19:48:664,left,15:19:49:182,,2013_Jan_05_1508,59.9667693086,MP-Perception Experiment,xx27w24,
108,map_cgpdm_final(4).webm,True,left,0,training(7).webm,0,107,107,64,,,,,,,,15:19:49:913,15:19:50:683,15:19:53:686,left,15:19:54:403,,2013_Jan_05_1508,59.9667693086,MP-Perception Experiment,xx27w24,
109,training(29).webm,False,right,0,vcgpdm_dyn(35)-lvm(25)_final(2).webm,0,108,108,28,,,,,,,,15:19:55:078,15:19:55:904,15:19:58:906,right,15:19:59:407,,2013_Jan_05_1508,59.9667693086,MP-Perception Experiment,xx27w24,
110,training(7).webm,True,right,0,tmp_numprim(10)_final(8).webm,0,109,109,61,,,,,,,,15:20:00:252,15:20:00:908,15:20:03:910,right,15:20:04:894,,2013_Jan_05_1508,59.9667693086,MP-Perception Experiment,xx27w24,
111,training(9).webm,True,right,0,vgpdm_dyn(5)-lvm(20)_final(7).webm,0,110,110,4,,,,,,,,15:20:05:580,15:20:06:396,15:20:09:399,right,15:20:09:866,,2013_Jan_05_1508,59.9667693086,MP-Perception Experiment,xx27w24,
112,training(6).webm,True,right,0,dmp_npsi(30)_final(7).webm,0,111,111,110,,,,,,,,15:20:10:712,15:20:11:367,15:20:14:370,right,15:20:14:753,,2013_Jan_05_1508,59.9667693086,MP-Perception Experiment,xx27w24,
113,vcgpdm_dyn(25)-lvm(25)_final(1).webm,False,left,0,training(25).webm,0,112,112,125,,,,,,,,15:20:15:431,15:20:16:255,15:20:19:257,right,15:20:19:724,,2013_Jan_05_1508,59.9667693086,MP-Perception Experiment,xx27w24,
114,tmp_numprim(4)_final(4).webm,True,left,0,training(30).webm,0,113,113,15,,,,,,,,15:20:20:531,15:20:21:225,15:20:24:227,left,15:20:24:611,,2013_Jan_05_1508,59.9667693086,MP-Perception Experiment,xx27w24,
115,vcgpdm_dyn(10)-lvm(20)_final(9).webm,False,left,0,training(6).webm,0,114,114,14,,,,,,,,15:20:25:293,15:20:26:112,15:20:29:114,left,15:20:30:065,,2013_Jan_05_1508,59.9667693086,MP-Perception Experiment,xx27w24,
116,training(41).webm,False,right,0,vcgpdm_dyn(30)-lvm(25)_final(6).webm,0,115,115,82,,,,,,,,15:20:30:892,15:20:31:566,15:20:34:554,right,15:20:35:188,,2013_Jan_05_1508,59.9667693086,MP-Perception Experiment,xx27w24,
117,training(20).webm,False,right,0,dmp_npsi(15)_final(1).webm,0,116,116,145,,,,,,,,15:20:35:866,15:20:36:689,15:20:39:691,right,15:20:40:092,,2013_Jan_05_1508,59.9667693086,MP-Perception Experiment,xx27w24,
118,training(7).webm,False,right,0,vgpdm_dyn(30)-lvm(25)_final(8).webm,0,117,117,97,,,,,,,,15:20:40:933,15:20:41:594,15:20:44:596,right,15:20:45:864,,2013_Jan_05_1508,59.9667693086,MP-Perception Experiment,xx27w24,
119,training(33).webm,True,right,0,vgpdm_dyn(35)-lvm(10)_final(3).webm,0,118,118,141,,,,,,,,15:20:46:708,15:20:47:365,15:20:50:368,left,15:20:50:868,,2013_Jan_05_1508,59.9667693086,MP-Perception Experiment,xx27w24,
120,training(23).webm,False,right,0,vgpdm_dyn(10)-lvm(30)_final(6).webm,0,119,119,29,,,,,,,,15:20:51:546,15:20:52:369,15:20:55:371,right,15:20:55:905,,2013_Jan_05_1508,59.9667693086,MP-Perception Experiment,xx27w24,
121,training(9).webm,False,right,0,vgpdm_dyn(10)-lvm(5)_final(4).webm,0,120,120,127,,,,,,,,15:20:56:748,15:20:57:406,15:21:00:410,right,15:21:00:927,,2013_Jan_05_1508,59.9667693086,MP-Perception Experiment,xx27w24,
122,vcgpdm_dyn(25)-lvm(20)_final(9).webm,False,left,0,training(1).webm,0,121,121,58,,,,,,,,15:21:01:741,15:21:02:428,15:21:05:431,left,15:21:05:848,,2013_Jan_05_1508,59.9667693086,MP-Perception Experiment,xx27w24,
123,vgpdm_dyn(20)-lvm(5)_final(0).webm,True,left,0,training(7).webm,0,122,122,132,,,,,,,,15:21:06:523,15:21:07:349,15:21:10:351,left,15:21:10:752,,2013_Jan_05_1508,59.9667693086,MP-Perception Experiment,xx27w24,
124,training(21).webm,False,right,0,tmp_numprim(8)_final(8).webm,0,123,123,8,,,,,,,,15:21:11:607,15:21:12:253,15:21:15:253,right,15:21:15:604,,2013_Jan_05_1508,59.9667693086,MP-Perception Experiment,xx27w24,
125,training(24).webm,True,right,0,tmp_numprim(3)_final(5).webm,0,124,124,136,,,,,,,,15:21:16:285,15:21:17:106,15:21:20:108,right,15:21:20:675,,2013_Jan_05_1508,59.9667693086,MP-Perception Experiment,xx27w24,
126,training(6).webm,False,right,0,vcgpdm_dyn(15)-lvm(30)_final(4).webm,0,125,125,12,,,,,,,,15:21:21:351,15:21:22:177,15:21:25:179,left,15:21:26:247,,2013_Jan_05_1508,59.9667693086,MP-Perception Experiment,xx27w24,
127,training(26).webm,False,right,0,vcgpdm_dyn(25)-lvm(25)_final(2).webm,0,126,126,22,,,,,,,,15:21:27:096,15:21:27:750,15:21:30:752,right,15:21:31:119,,2013_Jan_05_1508,59.9667693086,MP-Perception Experiment,xx27w24,
128,vcgpdm_dyn(15)-lvm(10)_final(6).webm,True,left,0,training(5).webm,0,127,127,152,,,,,,,,15:21:31:940,15:21:32:620,15:21:35:624,left,15:21:35:957,,2013_Jan_05_1508,59.9667693086,MP-Perception Experiment,xx27w24,
129,vcgpdm_dyn(10)-lvm(25)_final(3).webm,True,left,0,training(12).webm,0,128,128,41,,,,,,,,15:21:36:634,15:21:37:458,15:21:40:461,left,15:21:41:111,,2013_Jan_05_1508,59.9667693086,MP-Perception Experiment,xx27w24,
130,training(26).webm,False,right,0,vcgpdm_dyn(30)-lvm(20)_final(5).webm,0,129,129,49,,,,,,,,15:21:41:952,15:21:42:613,15:21:45:615,right,15:21:45:999,,2013_Jan_05_1508,59.9667693086,MP-Perception Experiment,xx27w24,
131,tmp_numprim(4)_final(4).webm,True,left,0,training(0).webm,0,130,130,114,,,,,,,,15:21:46:669,15:21:47:500,15:21:50:502,left,15:21:51:036,,2013_Jan_05_1508,59.9667693086,MP-Perception Experiment,xx27w24,
132,training(15).webm,False,right,0,vgpdm_dyn(10)-lvm(30)_final(8).webm,0,131,131,27,,,,,,,,15:21:51:719,15:21:52:538,15:21:55:541,right,15:21:56:041,,2013_Jan_05_1508,59.9667693086,MP-Perception Experiment,xx27w24,
133,training(11).webm,False,right,0,vcgpdm_dyn(35)-lvm(30)_final(3).webm,0,132,132,70,,,,,,,,15:21:56:886,15:21:57:542,15:22:00:545,right,15:22:01:012,,2013_Jan_05_1508,59.9667693086,MP-Perception Experiment,xx27w24,
134,training(26).webm,True,right,0,vcgpdm_dyn(15)-lvm(10)_final(4).webm,0,133,133,126,,,,,,,,15:22:01:690,15:22:02:513,15:22:05:514,left,15:22:06:047,,2013_Jan_05_1508,59.9667693086,MP-Perception Experiment,xx27w24,
135,vcgpdm_dyn(10)-lvm(20)_final(3).webm,True,left,0,training(8).webm,0,134,134,9,,,,,,,,15:22:06:729,15:22:07:549,15:22:10:552,left,15:22:10:969,,2013_Jan_05_1508,59.9667693086,MP-Perception Experiment,xx27w24,
136,training(41).webm,False,right,0,vcgpdm_dyn(15)-lvm(35)_final(7).webm,0,135,135,17,,,,,,,,15:22:11:681,15:22:12:470,15:22:15:458,right,15:22:15:858,,2013_Jan_05_1508,59.9667693086,MP-Perception Experiment,xx27w24,
137,vcgpdm_dyn(20)-lvm(5)_final(2).webm,True,left,0,training(20).webm,0,136,136,93,,,,,,,,15:22:16:534,15:22:17:359,15:22:20:362,right,15:22:20:779,,2013_Jan_05_1508,59.9667693086,MP-Perception Experiment,xx27w24,
138,vgpdm_dyn(15)-lvm(15)_final(2).webm,False,left,0,training(28).webm,0,137,137,68,,,,,,,,15:22:21:456,15:22:22:280,15:22:25:283,right,15:22:25:766,,2013_Jan_05_1508,59.9667693086,MP-Perception Experiment,xx27w24,
139,vgpdm_dyn(25)-lvm(5)_final(7).webm,False,left,0,training(17).webm,0,138,138,138,,,,,,,,15:22:26:446,15:22:27:268,15:22:30:271,right,15:22:30:821,,2013_Jan_05_1508,59.9667693086,MP-Perception Experiment,xx27w24,
140,training(40).webm,True,right,0,vgpdm_dyn(35)-lvm(10)_final(2).webm,0,139,139,54,,,,,,,,15:22:31:495,15:22:32:322,15:22:35:325,left,15:22:35:342,,2013_Jan_05_1508,59.9667693086,MP-Perception Experiment,xx27w24,
141,training(9).webm,False,right,0,vcgpdm_dyn(35)-lvm(25)_final(1).webm,0,140,140,156,,,,,,,,15:22:36:009,15:22:36:843,15:22:39:845,right,15:22:40:346,,2013_Jan_05_1508,59.9667693086,MP-Perception Experiment,xx27w24,
142,training(15).webm,True,right,0,vgpdm_dyn(15)-lvm(15)_final(7).webm,0,141,141,6,,,,,,,,15:22:41:023,15:22:41:847,15:22:44:850,right,15:22:45:367,,2013_Jan_05_1508,59.9667693086,MP-Perception Experiment,xx27w24,
143,vgpdm_dyn(10)-lvm(15)_final(6).webm,False,left,0,training(16).webm,0,142,142,2,,,,,,,,15:22:46:043,15:22:46:868,15:22:49:871,left,15:22:50:438,,2013_Jan_05_1508,59.9667693086,MP-Perception Experiment,xx27w24,
144,training(24).webm,True,right,0,vgpdm_dyn(30)-lvm(5)_final(7).webm,0,143,143,116,,,,,,,,15:22:51:115,15:22:51:939,15:22:54:940,right,15:22:55:857,,2013_Jan_05_1508,59.9667693086,MP-Perception Experiment,xx27w24,
145,training(32).webm,True,right,0,tmp_numprim(6)_final(2).webm,0,144,144,16,,,,,,,,15:22:56:532,15:22:57:358,15:23:00:361,right,15:23:01:395,,2013_Jan_05_1508,59.9667693086,MP-Perception Experiment,xx27w24,
146,dmp_npsi(5)_final(7)_bad.webm,True,left,0,training(29).webm,0,145,145,45,,,,,,,,15:23:02:071,15:23:02:897,15:23:05:900,left,15:23:06:550,,2013_Jan_05_1508,59.9667693086,MP-Perception Experiment,xx27w24,
147,training(7).webm,False,right,0,vgpdm_dyn(25)-lvm(20)_final(7).webm,0,146,146,37,,,,,,,,15:23:07:230,15:23:08:053,15:23:11:056,right,15:23:11:573,,2013_Jan_05_1508,59.9667693086,MP-Perception Experiment,xx27w24,
148,vgpdm_dyn(15)-lvm(15)_final(8).webm,False,left,0,training(22).webm,0,147,147,106,,,,,,,,15:23:12:274,15:23:13:074,15:23:16:077,left,15:23:16:694,,2013_Jan_05_1508,59.9667693086,MP-Perception Experiment,xx27w24,
149,vgpdm_dyn(15)-lvm(35)_final(6).webm,False,left,0,training(3).webm,0,148,148,55,,,,,,,,15:23:17:371,15:23:18:195,15:23:21:198,right,15:23:21:799,,2013_Jan_05_1508,59.9667693086,MP-Perception Experiment,xx27w24,
150,vgpdm_dyn(35)-lvm(30)_final(5).webm,False,left,0,training(39).webm,0,149,149,143,,,,,,,,15:23:22:577,15:23:23:300,15:23:26:302,right,15:23:26:786,,2013_Jan_05_1508,59.9667693086,MP-Perception Experiment,xx27w24,
151,vcgpdm_dyn(10)-lvm(15)_final(9).webm,True,left,0,training(4).webm,0,150,150,144,,,,,,,,15:23:27:622,15:23:28:287,15:23:31:290,left,15:23:31:790,,2013_Jan_05_1508,59.9667693086,MP-Perception Experiment,xx27w24,
152,vcgpdm_dyn(20)-lvm(35)_final(9).webm,True,left,0,training(20).webm,0,151,151,111,,,,,,,,15:23:32:518,15:23:33:291,15:23:36:294,left,15:23:36:862,,2013_Jan_05_1508,59.9667693086,MP-Perception Experiment,xx27w24,
153,vgpdm_dyn(35)-lvm(5)_final(6).webm,True,left,0,training(0).webm,0,152,152,129,,,,,,,,15:23:37:684,15:23:38:363,15:23:41:366,left,15:23:41:833,,2013_Jan_05_1508,59.9667693086,MP-Perception Experiment,xx27w24,
154,vcgpdm_dyn(15)-lvm(5)_final(3).webm,False,left,0,training(29).webm,0,153,153,121,,,,,,,,15:23:42:508,15:23:43:349,15:23:46:334,left,15:23:46:868,,2013_Jan_05_1508,59.9667693086,MP-Perception Experiment,xx27w24,
155,vcgpdm_dyn(35)-lvm(15)_final(9)_out_of_screen.webm,False,left,0,training(25).webm,0,154,154,153,,,,,,,,15:23:47:713,15:23:48:369,15:23:51:372,left,15:23:51:839,,2013_Jan_05_1508,59.9667693086,MP-Perception Experiment,xx27w24,
156,training(36).webm,False,right,0,vgpdm_dyn(30)-lvm(35)_final(1).webm,0,155,155,25,,,,,,,,15:23:52:651,15:23:53:340,15:23:56:329,right,15:23:56:879,,2013_Jan_05_1508,59.9667693086,MP-Perception Experiment,xx27w24,
157,training(39).webm,True,right,0,vgpdm_dyn(15)-lvm(35)_final(8).webm,0,156,156,137,,,,,,,,15:23:57:720,15:23:58:380,15:24:01:383,right,15:24:01:983,,2013_Jan_05_1508,59.9667693086,MP-Perception Experiment,xx27w24,
158,training(38).webm,False,right,0,vgpdm_dyn(20)-lvm(15)_final(0).webm,0,157,157,150,,,,,,,,15:24:02:754,15:24:03:484,15:24:06:487,right,15:24:06:837,,2013_Jan_05_1508,59.9667693086,MP-Perception Experiment,xx27w24,
159,vcgpdm_dyn(30)-lvm(15)_final(8).webm,False,left,0,training(35).webm,0,158,158,104,,,,,,,,15:24:07:506,15:24:08:338,15:24:11:341,right,15:24:11:675,,2013_Jan_05_1508,59.9667693086,MP-Perception Experiment,xx27w24,
160,vcgpdm_dyn(10)-lvm(35)_final(9).webm,True,left,1,training(2).webm,0,0,0,33,,,,,,,,15:27:07:222,15:27:07:992,15:27:10:978,left,15:27:11:245,,2013_Jan_05_1508,59.9667693086,MP-Perception Experiment,xx27w24,
161,vgpdm_dyn(35)-lvm(5)_final(9).webm,False,left,1,training(4).webm,0,1,1,108,,,,,,,,15:27:11:921,15:27:12:746,15:27:15:734,right,15:27:16:084,,2013_Jan_05_1508,59.9667693086,MP-Perception Experiment,xx27w24,
162,vgpdm_dyn(20)-lvm(5)_final(8).webm,True,left,1,training(40).webm,0,2,2,52,,,,,,,,15:27:16:762,15:27:17:585,15:27:20:588,left,15:27:20:921,,2013_Jan_05_1508,59.9667693086,MP-Perception Experiment,xx27w24,
163,training(24).webm,False,right,1,vgpdm_dyn(35)-lvm(30)_final(9).webm,0,3,3,130,,,,,,,,15:27:21:760,15:27:22:423,15:27:25:426,right,15:27:25:910,,2013_Jan_05_1508,59.9667693086,MP-Perception Experiment,xx27w24,
164,training(29).webm,False,right,1,vgpdm_dyn(35)-lvm(20)_final(9)_out_of_screen.webm,0,4,4,124,,,,,,,,15:27:26:752,15:27:27:411,15:27:30:414,right,15:27:31:097,,2013_Jan_05_1508,59.9667693086,MP-Perception Experiment,xx27w24,
165,vcgpdm_dyn(35)-lvm(5)_final(7).webm,True,left,1,training(3).webm,0,5,5,27,,,,,,,,15:27:31:912,15:27:32:598,15:27:35:601,left,15:27:35:935,,2013_Jan_05_1508,59.9667693086,MP-Perception Experiment,xx27w24,
166,vcgpdm_dyn(15)-lvm(15)_final(1).webm,True,left,1,training(34).webm,0,6,6,34,,,,,,,,15:27:36:605,15:27:37:436,15:27:40:438,left,15:27:40:939,,2013_Jan_05_1508,59.9667693086,MP-Perception Experiment,xx27w24,
167,vcgpdm_dyn(10)-lvm(15)_final(2).webm,True,left,1,training(27).webm,0,7,7,120,,,,,,,,15:27:41:781,15:27:42:441,15:27:45:443,left,15:27:45:927,,2013_Jan_05_1508,59.9667693086,MP-Perception Experiment,xx27w24,
168,training(24).webm,True,right,1,vcgpdm_dyn(5)-lvm(20)_final(1).webm,0,8,8,133,,,,,,,,15:27:46:755,15:27:47:428,15:27:50:431,left,15:27:50:948,,2013_Jan_05_1508,59.9667693086,MP-Perception Experiment,xx27w24,
169,tmp_numprim(5)_final(9).webm,False,left,1,training(40).webm,0,9,9,9,,,,,,,,15:27:51:627,15:27:52:449,15:27:55:450,left,15:27:55:983,,2013_Jan_05_1508,59.9667693086,MP-Perception Experiment,xx27w24,
170,dmp_npsi(35)_final(5).webm,True,left,1,training(3).webm,0,10,10,0,,,,,,,,15:27:56:733,15:27:57:484,15:28:00:488,left,15:28:00:888,,2013_Jan_05_1508,59.9667693086,MP-Perception Experiment,xx27w24,
171,training(9).webm,False,right,1,vcgpdm_dyn(5)-lvm(25)_final(1).webm,0,11,11,11,,,,,,,,15:28:01:711,15:28:02:389,15:28:05:377,right,15:28:05:794,,2013_Jan_05_1508,59.9667693086,MP-Perception Experiment,xx27w24,
172,training(30).webm,False,right,1,vcgpdm_dyn(25)-lvm(15)_final(7).webm,0,12,12,35,,,,,,,,15:28:06:465,15:28:07:295,15:28:10:298,right,15:28:10:881,,2013_Jan_05_1508,59.9667693086,MP-Perception Experiment,xx27w24,
173,training(0).webm,False,right,1,vcgpdm_dyn(35)-lvm(10)_final(9).webm,0,13,13,43,,,,,,,,15:28:11:723,15:28:12:383,15:28:15:385,left,15:28:15:869,,2013_Jan_05_1508,59.9667693086,MP-Perception Experiment,xx27w24,
174,training(2).webm,True,right,1,vgpdm_dyn(10)-lvm(30)_final(5).webm,0,14,14,70,,,,,,,,15:28:16:713,15:28:17:371,15:28:20:374,right,15:28:20:941,,2013_Jan_05_1508,59.9667693086,MP-Perception Experiment,xx27w24,
175,training(41).webm,False,right,1,map_gpdm_final(4).webm,0,15,15,113,,,,,,,,15:28:21:787,15:28:22:458,15:28:25:444,right,15:28:25:911,,2013_Jan_05_1508,59.9667693086,MP-Perception Experiment,xx27w24,
176,training(6).webm,True,right,1,map_cgpdm_final(0).webm,0,16,16,13,,,,,,,,15:28:26:594,15:28:27:412,15:28:30:415,right,15:28:30:815,,2013_Jan_05_1508,59.9667693086,MP-Perception Experiment,xx27w24,
177,training(18).webm,True,right,1,vgpdm_dyn(10)-lvm(10)_final(1).webm,0,17,17,98,,,,,,,,15:28:31:500,15:28:32:316,15:28:35:320,right,15:28:35:653,,2013_Jan_05_1508,59.9667693086,MP-Perception Experiment,xx27w24,
178,training(12).webm,True,right,1,vgpdm_dyn(15)-lvm(20)_final(0)_out_of_screen.webm,0,18,18,8,,,,,,,,15:28:36:328,15:28:37:155,15:28:40:157,left,15:28:40:607,,2013_Jan_05_1508,59.9667693086,MP-Perception Experiment,xx27w24,
179,training(31).webm,True,right,1,tmp_numprim(8)_final(8).webm,0,19,19,111,,,,,,,,15:28:41:277,15:28:42:109,15:28:45:109,left,15:28:45:893,,2013_Jan_05_1508,59.9667693086,MP-Perception Experiment,xx27w24,
180,training(11).webm,True,right,1,vgpdm_dyn(20)-lvm(15)_final(2).webm,0,20,20,76,,,,,,,,15:28:46:568,15:28:47:394,15:28:50:397,right,15:28:50:814,,2013_Jan_05_1508,59.9667693086,MP-Perception Experiment,xx27w24,
181,vgpdm_dyn(20)-lvm(30)_final(4).webm,False,left,1,training(19).webm,0,21,21,140,,,,,,,,15:28:51:494,15:28:52:316,15:28:55:319,right,15:28:55:619,,2013_Jan_05_1508,59.9667693086,MP-Perception Experiment,xx27w24,
182,vcgpdm_dyn(10)-lvm(5)_final(4).webm,True,left,1,training(10).webm,0,22,22,88,,,,,,,,15:28:56:300,15:28:57:120,15:29:00:107,left,15:29:00:558,,2013_Jan_05_1508,59.9667693086,MP-Perception Experiment,xx27w24,
183,vgpdm_dyn(35)-lvm(35)_final(0).webm,False,left,1,training(38).webm,0,23,23,16,,,,,,,,15:29:01:241,15:29:02:059,15:29:05:062,left,15:29:05:378,,2013_Jan_05_1508,59.9667693086,MP-Perception Experiment,xx27w24,
184,training(5).webm,True,right,1,vcgpdm_dyn(10)-lvm(20)_final(9).webm,0,24,24,48,,,,,,,,15:29:06:051,15:29:06:880,15:29:09:883,left,15:29:10:217,,2013_Jan_05_1508,59.9667693086,MP-Perception Experiment,xx27w24,
185,training(20).webm,False,right,1,tmp_numprim(6)_final(2).webm,0,25,25,32,,,,,,,,15:29:10:891,15:29:11:718,15:29:14:720,right,15:29:15:221,,2013_Jan_05_1508,59.9667693086,MP-Perception Experiment,xx27w24,
186,vcgpdm_dyn(10)-lvm(30)_final(9).webm,False,left,1,training(8).webm,0,26,26,38,,,,,,,,15:29:15:924,15:29:16:722,15:29:19:724,left,15:29:20:175,,2013_Jan_05_1508,59.9667693086,MP-Perception Experiment,xx27w24,
187,training(41).webm,False,right,1,vcgpdm_dyn(25)-lvm(15)_final(1).webm,0,27,27,83,,,,,,,,15:29:21:018,15:29:21:676,15:29:24:678,right,15:29:25:029,,2013_Jan_05_1508,59.9667693086,MP-Perception Experiment,xx27w24,
188,training(9).webm,True,right,1,vcgpdm_dyn(15)-lvm(15)_final(9).webm,0,28,28,122,,,,,,,,15:29:25:703,15:29:26:531,15:29:29:533,left,15:29:29:833,,2013_Jan_05_1508,59.9667693086,MP-Perception Experiment,xx27w24,
189,training(33).webm,False,right,1,vcgpdm_dyn(25)-lvm(10)_final(7).webm,0,29,29,5,,,,,,,,15:29:30:671,15:29:31:335,15:29:34:335,right,15:29:34:986,,2013_Jan_05_1508,59.9667693086,MP-Perception Experiment,xx27w24,
190,training(3).webm,True,right,1,dmp_npsi(25)_final(4).webm,0,30,30,99,,,,,,,,15:29:35:663,15:29:36:487,15:29:39:490,right,15:29:39:723,,2013_Jan_05_1508,59.9667693086,MP-Perception Experiment,xx27w24,
191,vgpdm_dyn(30)-lvm(10)_final(3).webm,False,left,1,training(26).webm,0,31,31,20,,,,,,,,15:29:40:407,15:29:41:224,15:29:44:228,left,15:29:44:595,,2013_Jan_05_1508,59.9667693086,MP-Perception Experiment,xx27w24,
192,vcgpdm_dyn(10)-lvm(30)_final(1).webm,False,left,1,training(2).webm,0,32,32,62,,,,,,,,15:29:45:278,15:29:46:098,15:29:49:100,left,15:29:49:517,,2013_Jan_05_1508,59.9667693086,MP-Perception Experiment,xx27w24,
193,vgpdm_dyn(30)-lvm(15)_final(7).webm,False,left,1,training(9).webm,0,33,33,118,,,,,,,,15:29:50:196,15:29:51:018,15:29:54:021,right,15:29:54:321,,2013_Jan_05_1508,59.9667693086,MP-Perception Experiment,xx27w24,
194,vgpdm_dyn(10)-lvm(15)_final(3).webm,False,left,1,training(11).webm,0,34,34,46,,,,,,,,15:29:55:003,15:29:55:822,15:29:58:825,left,15:29:59:442,,2013_Jan_05_1508,59.9667693086,MP-Perception Experiment,xx27w24,
195,training(5).webm,False,right,1,vgpdm_dyn(15)-lvm(25)_final(2).webm,0,35,35,123,,,,,,,,15:30:00:269,15:30:00:943,15:30:03:946,right,15:30:04:397,,2013_Jan_05_1508,59.9667693086,MP-Perception Experiment,xx27w24,
196,vgpdm_dyn(30)-lvm(35)_final(5).webm,False,left,1,training(36).webm,0,36,36,142,,,,,,,,15:30:05:080,15:30:05:898,15:30:08:900,right,15:30:09:201,,2013_Jan_05_1508,59.9667693086,MP-Perception Experiment,xx27w24,
197,vgpdm_dyn(30)-lvm(15)_final(2).webm,False,left,1,training(6).webm,0,37,37,155,,,,,,,,15:30:09:881,15:30:10:702,15:30:13:704,left,15:30:14:155,,2013_Jan_05_1508,59.9667693086,MP-Perception Experiment,xx27w24,
198,vcgpdm_dyn(20)-lvm(10)_final(6).webm,False,left,1,training(32).webm,0,38,38,104,,,,,,,,15:30:14:841,15:30:15:656,15:30:18:659,right,15:30:18:993,,2013_Jan_05_1508,59.9667693086,MP-Perception Experiment,xx27w24,
199,training(48).webm,True,right,1,tmp_numprim(2)_final(4).webm,0,39,39,94,,,,,,,,15:30:19:867,15:30:20:494,15:30:23:495,right,15:30:23:945,,2013_Jan_05_1508,59.9667693086,MP-Perception Experiment,xx27w24,
200,vcgpdm_dyn(30)-lvm(15)_final(5).webm,False,left,1,training(1).webm,0,40,40,3,,,,,,,,15:30:24:636,15:30:25:446,15:30:28:449,right,15:30:28:832,,2013_Jan_05_1508,59.9667693086,MP-Perception Experiment,xx27w24,
201,training(22).webm,False,right,1,vgpdm_dyn(5)-lvm(20)_final(7).webm,0,41,41,58,,,,,,,,15:30:29:519,15:30:30:333,15:30:33:336,right,15:30:34:420,,2013_Jan_05_1508,59.9667693086,MP-Perception Experiment,xx27w24,
202,training(5).webm,True,right,1,vgpdm_dyn(15)-lvm(30)_final(4).webm,0,42,42,44,,,,,,,,15:30:35:110,15:30:35:921,15:30:38:910,right,15:30:39:444,,2013_Jan_05_1508,59.9667693086,MP-Perception Experiment,xx27w24,
203,training(35).webm,False,right,1,vcgpdm_dyn(20)-lvm(15)_final(1).webm,0,43,43,49,,,,,,,,15:30:40:268,15:30:40:945,15:30:43:947,right,15:30:44:648,,2013_Jan_05_1508,59.9667693086,MP-Perception Experiment,xx27w24,
204,training(48).webm,True,right,1,vcgpdm_dyn(10)-lvm(30)_final(5).webm,0,44,44,135,,,,,,,,15:30:45:503,15:30:46:149,15:30:49:152,right,15:30:49:702,,2013_Jan_05_1508,59.9667693086,MP-Perception Experiment,xx27w24,
205,training(18).webm,False,right,1,vcgpdm_dyn(30)-lvm(5)_final(5).webm,0,45,45,149,,,,,,,,15:30:50:396,15:30:51:203,15:30:54:207,right,15:30:54:941,,2013_Jan_05_1508,59.9667693086,MP-Perception Experiment,xx27w24,
206,vgpdm_dyn(25)-lvm(35)_final(1).webm,False,left,1,training(20).webm,0,46,46,50,,,,,,,,15:30:55:622,15:30:56:442,15:30:59:444,right,15:31:00:078,,2013_Jan_05_1508,59.9667693086,MP-Perception Experiment,xx27w24,
207,vcgpdm_dyn(35)-lvm(35)_final(3)_bad.webm,True,left,1,training(22).webm,0,47,47,148,,,,,,,,15:31:00:825,15:31:01:579,15:31:04:582,left,15:31:05:249,,2013_Jan_05_1508,59.9667693086,MP-Perception Experiment,xx27w24,
208,training(12).webm,True,right,1,vcgpdm_dyn(5)-lvm(25)_final(2).webm,0,48,48,26,,,,,,,,15:31:06:073,15:31:06:750,15:31:09:753,right,15:31:10:253,,2013_Jan_05_1508,59.9667693086,MP-Perception Experiment,xx27w24,
209,vgpdm_dyn(10)-lvm(20)_final(7).webm,False,left,1,training(26).webm,0,49,49,107,,,,,,,,15:31:10:940,15:31:11:755,15:31:14:756,left,15:31:15:206,,2013_Jan_05_1508,59.9667693086,MP-Perception Experiment,xx27w24,
210,training(36).webm,False,right,1,vgpdm_dyn(30)-lvm(35)_final(2).webm,0,50,50,117,,,,,,,,15:31:16:070,15:31:16:707,15:31:19:710,right,15:31:20:110,,2013_Jan_05_1508,59.9667693086,MP-Perception Experiment,xx27w24,
211,training(4).webm,False,right,1,map_gpdm_final(3).webm,0,51,51,30,,,,,,,,15:31:20:824,15:31:21:611,15:31:24:614,right,15:31:25:133,,2013_Jan_05_1508,59.9667693086,MP-Perception Experiment,xx27w24,
212,vcgpdm_dyn(35)-lvm(30)_final(2).webm,False,left,1,training(39).webm,0,52,52,42,,,,,,,,15:31:25:832,15:31:26:634,15:31:29:637,left,15:31:30:188,,2013_Jan_05_1508,59.9667693086,MP-Perception Experiment,xx27w24,
213,training(22).webm,True,right,1,vcgpdm_dyn(25)-lvm(30)_final(3).webm,0,53,53,139,,,,,,,,15:31:30:888,15:31:31:689,15:31:34:691,right,15:31:35:042,,2013_Jan_05_1508,59.9667693086,MP-Perception Experiment,xx27w24,
214,dmp_npsi(10)_final(0)_bad.webm,True,left,1,training(31).webm,0,54,54,145,,,,,,,,15:31:35:736,15:31:36:543,15:31:39:545,left,15:31:40:029,,2013_Jan_05_1508,59.9667693086,MP-Perception Experiment,xx27w24,
215,training(35).webm,False,right,1,vgpdm_dyn(20)-lvm(25)_final(8).webm,0,55,55,75,,,,,,,,15:31:40:709,15:31:41:530,15:31:44:532,right,15:31:45:133,,2013_Jan_05_1508,59.9667693086,MP-Perception Experiment,xx27w24,
216,vcgpdm_dyn(15)-lvm(15)_final(4).webm,True,left,1,training(31).webm,0,56,56,92,,,,,,,,15:31:45:809,15:31:46:635,15:31:49:638,left,15:31:50:155,,2013_Jan_05_1508,59.9667693086,MP-Perception Experiment,xx27w24,
217,vgpdm_dyn(35)-lvm(30)_final(1).webm,False,left,1,training(8).webm,0,57,57,138,,,,,,,,15:31:50:839,15:31:51:656,15:31:54:659,left,15:31:55:242,,2013_Jan_05_1508,59.9667693086,MP-Perception Experiment,xx27w24,
218,vcgpdm_dyn(15)-lvm(35)_final(4).webm,True,left,1,training(14).webm,0,58,58,53,,,,,,,,15:31:55:923,15:31:56:743,15:31:59:746,left,15:32:00:213,,2013_Jan_05_1508,59.9667693086,MP-Perception Experiment,xx27w24,
219,training(16).webm,True,right,1,tmp_numprim(7)_final(7).webm,0,59,59,114,,,,,,,,15:32:00:900,15:32:01:714,15:32:04:716,left,15:32:05:366,,2013_Jan_05_1508,59.9667693086,MP-Perception Experiment,xx27w24,
220,training(25).webm,True,right,1,vgpdm_dyn(10)-lvm(20)_final(7).webm,0,60,60,40,,,,,,,,15:32:06:039,15:32:06:867,15:32:09:870,right,15:32:10:237,,2013_Jan_05_1508,59.9667693086,MP-Perception Experiment,xx27w24,
221,training(15).webm,True,right,1,vgpdm_dyn(10)-lvm(25)_final(2).webm,0,61,61,72,,,,,,,,15:32:11:048,15:32:11:738,15:32:14:741,right,15:32:15:491,,2013_Jan_05_1508,59.9667693086,MP-Perception Experiment,xx27w24,
222,training(29).webm,True,right,1,vcgpdm_dyn(30)-lvm(20)_final(3).webm,0,62,62,115,,,,,,,,15:32:16:176,15:32:16:992,15:32:19:980,left,15:32:20:364,,2013_Jan_05_1508,59.9667693086,MP-Perception Experiment,xx27w24,
223,vcgpdm_dyn(30)-lvm(10)_final(4).webm,True,left,1,training(17).webm,0,63,63,153,,,,,,,,15:32:21:065,15:32:21:866,15:32:24:868,left,15:32:25:369,,2013_Jan_05_1508,59.9667693086,MP-Perception Experiment,xx27w24,
224,training(24).webm,True,right,1,vcgpdm_dyn(35)-lvm(25)_final(4).webm,0,64,64,150,,,,,,,,15:32:26:047,15:32:26:870,15:32:29:872,right,15:32:30:456,,2013_Jan_05_1508,59.9667693086,MP-Perception Experiment,xx27w24,
225,training(5).webm,True,right,1,vgpdm_dyn(10)-lvm(30)_final(8).webm,0,65,65,69,,,,,,,,15:32:31:130,15:32:31:957,15:32:34:960,right,15:32:35:577,,2013_Jan_05_1508,59.9667693086,MP-Perception Experiment,xx27w24,
226,vcgpdm_dyn(25)-lvm(20)_final(8).webm,True,left,1,training(8).webm,0,66,66,19,,,,,,,,15:32:36:248,15:32:37:078,15:32:40:082,left,15:32:40:448,,2013_Jan_05_1508,59.9667693086,MP-Perception Experiment,xx27w24,
227,vcgpdm_dyn(35)-lvm(20)_final(4).webm,True,left,1,training(48).webm,0,67,67,146,,,,,,,,15:32:41:234,15:32:41:949,15:32:44:952,left,15:32:45:469,,2013_Jan_05_1508,59.9667693086,MP-Perception Experiment,xx27w24,
228,vcgpdm_dyn(20)-lvm(5)_final(0).webm,False,left,1,training(20).webm,0,68,68,77,,,,,,,,15:32:46:152,15:32:46:970,15:32:49:973,right,15:32:50:590,,2013_Jan_05_1508,59.9667693086,MP-Perception Experiment,xx27w24,
229,vgpdm_dyn(25)-lvm(15)_final(0)_out_of_screen.webm,True,left,1,training(18).webm,0,69,69,154,,,,,,,,15:32:51:272,15:32:52:091,15:32:55:092,left,15:32:55:592,,2013_Jan_05_1508,59.9667693086,MP-Perception Experiment,xx27w24,
230,vcgpdm_dyn(25)-lvm(35)_final(2).webm,True,left,1,training(32).webm,0,70,70,127,,,,,,,,15:32:56:277,15:32:57:094,15:33:00:097,left,15:33:00:480,,2013_Jan_05_1508,59.9667693086,MP-Perception Experiment,xx27w24,
231,training(28).webm,False,right,1,vcgpdm_dyn(25)-lvm(5)_final(6).webm,0,71,71,137,,,,,,,,15:33:01:164,15:33:01:982,15:33:04:984,right,15:33:05:503,,2013_Jan_05_1508,59.9667693086,MP-Perception Experiment,xx27w24,
232,vcgpdm_dyn(30)-lvm(35)_final(7).webm,True,left,1,training(22).webm,0,72,72,152,,,,,,,,15:33:06:195,15:33:07:004,15:33:10:007,left,15:33:10:474,,2013_Jan_05_1508,59.9667693086,MP-Perception Experiment,xx27w24,
233,vcgpdm_dyn(30)-lvm(35)_final(9).webm,True,left,1,training(41).webm,0,73,73,18,,,,,,,,15:33:11:202,15:33:11:975,15:33:14:978,left,15:33:15:529,,2013_Jan_05_1508,59.9667693086,MP-Perception Experiment,xx27w24,
234,vgpdm_dyn(15)-lvm(25)_final(9).webm,True,left,1,training(28).webm,0,74,74,14,,,,,,,,15:33:16:211,15:33:17:030,15:33:20:032,left,15:33:20:433,,2013_Jan_05_1508,59.9667693086,MP-Perception Experiment,xx27w24,
235,training(13).webm,False,right,1,dmp_npsi(40)_final(7).webm,0,75,75,15,,,,,,,,15:33:21:288,15:33:21:934,15:33:24:936,right,15:33:25:353,,2013_Jan_05_1508,59.9667693086,MP-Perception Experiment,xx27w24,
236,vgpdm_dyn(30)-lvm(20)_final(4).webm,True,left,1,training(0).webm,0,76,76,56,,,,,,,,15:33:26:033,15:33:26:854,15:33:29:857,left,15:33:30:224,,2013_Jan_05_1508,59.9667693086,MP-Perception Experiment,xx27w24,
237,vgpdm_dyn(15)-lvm(5)_final(2).webm,True,left,1,training(10).webm,0,77,77,102,,,,,,,,15:33:30:904,15:33:31:726,15:33:34:729,right,15:33:34:929,,2013_Jan_05_1508,59.9667693086,MP-Perception Experiment,xx27w24,
238,training(48).webm,False,right,1,vcgpdm_dyn(15)-lvm(30)_final(9).webm,0,78,78,89,,,,,,,,15:33:35:610,15:33:36:430,15:33:39:432,left,15:33:39:582,,2013_Jan_05_1508,59.9667693086,MP-Perception Experiment,xx27w24,
239,training(8).webm,True,right,1,vgpdm_dyn(30)-lvm(30)_final(2).webm,0,79,79,24,,,,,,,,15:33:40:396,15:33:41:084,15:33:44:084,right,15:33:44:451,,2013_Jan_05_1508,59.9667693086,MP-Perception Experiment,xx27w24,
240,dmp_npsi(25)_final(0).webm,False,left,1,training(29).webm,0,80,80,131,,,,,,,,15:33:45:230,15:33:45:952,15:33:48:956,left,15:33:49:290,,2013_Jan_05_1508,59.9667693086,MP-Perception Experiment,xx27w24,
241,vgpdm_dyn(20)-lvm(35)_final(5).webm,True,left,1,training(33).webm,0,81,81,132,,,,,,,,15:33:49:967,15:33:50:791,15:33:53:793,left,15:33:54:310,,2013_Jan_05_1508,59.9667693086,MP-Perception Experiment,xx27w24,
242,training(28).webm,False,right,1,vcgpdm_dyn(15)-lvm(10)_final(5).webm,0,82,82,78,,,,,,,,15:33:55:145,15:33:55:811,15:33:58:799,right,15:33:59:099,,2013_Jan_05_1508,59.9667693086,MP-Perception Experiment,xx27w24,
243,training(9).webm,False,right,1,dmp_npsi(50)_final(0).webm,0,83,83,144,,,,,,,,15:33:59:949,15:34:00:600,15:34:03:603,right,15:34:04:170,,2013_Jan_05_1508,59.9667693086,MP-Perception Experiment,xx27w24,
244,vgpdm_dyn(10)-lvm(35)_final(0).webm,False,left,1,training(35).webm,0,84,84,93,,,,,,,,15:34:04:896,15:34:05:671,15:34:08:675,left,15:34:09:175,,2013_Jan_05_1508,59.9667693086,MP-Perception Experiment,xx27w24,
245,training(6).webm,True,right,1,vcgpdm_dyn(20)-lvm(30)_final(8).webm,0,85,85,25,,,,,,,,15:34:10:022,15:34:10:676,15:34:13:679,right,15:34:14:196,,2013_Jan_05_1508,59.9667693086,MP-Perception Experiment,xx27w24,
246,vcgpdm_dyn(25)-lvm(30)_final(9).webm,True,left,1,training(29).webm,0,86,86,97,,,,,,,,15:34:15:036,15:34:15:697,15:34:18:699,left,15:34:22:069,,2013_Jan_05_1508,59.9667693086,MP-Perception Experiment,xx27w24,
247,vgpdm_dyn(10)-lvm(5)_final(9).webm,False,left,1,training(41).webm,0,87,87,79,,,,,,,,15:34:22:805,15:34:23:571,15:34:26:573,left,15:34:27:007,,2013_Jan_05_1508,59.9667693086,MP-Perception Experiment,xx27w24,
248,vgpdm_dyn(30)-lvm(5)_final(3).webm,True,left,1,training(19).webm,0,88,88,45,,,,,,,,15:34:27:750,15:34:28:508,15:34:31:511,left,15:34:31:944,,2013_Jan_05_1508,59.9667693086,MP-Perception Experiment,xx27w24,
249,dmp_npsi(20)_final(2).webm,True,left,1,training(37).webm,0,89,89,119,,,,,,,,15:34:32:630,15:34:33:460,15:34:36:446,left,15:34:36:863,,2013_Jan_05_1508,59.9667693086,MP-Perception Experiment,xx27w24,
250,dmp_npsi(30)_final(3).webm,True,left,1,training(30).webm,0,90,90,39,,,,,,,,15:34:37:543,15:34:38:381,15:34:41:368,left,15:34:41:718,,2013_Jan_05_1508,59.9667693086,MP-Perception Experiment,xx27w24,
251,training(48).webm,True,right,1,vcgpdm_dyn(15)-lvm(35)_final(9).webm,0,91,91,105,,,,,,,,15:34:42:406,15:34:43:219,15:34:46:207,right,15:34:46:624,,2013_Jan_05_1508,59.9667693086,MP-Perception Experiment,xx27w24,
252,training(12).webm,False,right,1,vcgpdm_dyn(20)-lvm(25)_final(5).webm,0,92,92,85,,,,,,,,15:34:47:308,15:34:48:125,15:34:51:128,right,15:34:51:578,,2013_Jan_05_1508,59.9667693086,MP-Perception Experiment,xx27w24,
253,vcgpdm_dyn(20)-lvm(15)_final(5).webm,False,left,1,training(40).webm,0,93,93,60,,,,,,,,15:34:52:263,15:34:53:079,15:34:56:082,right,15:34:56:565,,2013_Jan_05_1508,59.9667693086,MP-Perception Experiment,xx27w24,
254,map_gpdm_final(6).webm,True,left,1,training(28).webm,0,94,94,47,,,,,,,,15:34:57:248,15:34:58:066,15:35:01:070,left,15:35:01:520,,2013_Jan_05_1508,59.9667693086,MP-Perception Experiment,xx27w24,
255,vgpdm_dyn(35)-lvm(25)_final(7).webm,False,left,1,training(38).webm,0,95,95,101,,,,,,,,15:35:02:201,15:35:03:021,15:35:06:024,left,15:35:06:508,,2013_Jan_05_1508,59.9667693086,MP-Perception Experiment,xx27w24,
256,training(29).webm,False,right,1,vgpdm_dyn(15)-lvm(30)_final(9).webm,0,96,96,141,,,,,,,,15:35:07:191,15:35:08:009,15:35:11:011,right,15:35:11:662,,2013_Jan_05_1508,59.9667693086,MP-Perception Experiment,xx27w24,
257,training(48).webm,True,right,1,vcgpdm_dyn(25)-lvm(10)_final(0).webm,0,97,97,1,,,,,,,,15:35:12:336,15:35:13:163,15:35:16:167,left,15:35:16:633,,2013_Jan_05_1508,59.9667693086,MP-Perception Experiment,xx27w24,
258,training(7).webm,True,right,1,vgpdm_dyn(20)-lvm(10)_final(3)_out_of_screen.webm,0,98,98,82,,,,,,,,15:35:17:313,15:35:18:135,15:35:21:137,right,15:35:21:688,,2013_Jan_05_1508,59.9667693086,MP-Perception Experiment,xx27w24,
259,training(5).webm,False,right,1,vgpdm_dyn(15)-lvm(25)_final(0).webm,0,99,99,86,,,,,,,,15:35:22:369,15:35:23:189,15:35:26:189,right,15:35:26:606,,2013_Jan_05_1508,59.9667693086,MP-Perception Experiment,xx27w24,
260,training(17).webm,True,right,1,vgpdm_dyn(25)-lvm(20)_final(0).webm,0,100,100,136,,,,,,,,15:35:27:316,15:35:28:108,15:35:31:110,left,15:35:31:427,,2013_Jan_05_1508,59.9667693086,MP-Perception Experiment,xx27w24,
261,tmp_numprim(5)_final(9).webm,False,left,1,training(33).webm,0,101,101,17,,,,,,,,15:35:32:104,15:35:32:928,15:35:35:917,left,15:35:36:350,,2013_Jan_05_1508,59.9667693086,MP-Perception Experiment,xx27w24,
262,vgpdm_dyn(30)-lvm(35)_final(5).webm,True,left,1,training(13).webm,0,102,102,156,,,,,,,,15:35:37:026,15:35:37:852,15:35:40:854,left,15:35:41:171,,2013_Jan_05_1508,59.9667693086,MP-Perception Experiment,xx27w24,
263,training(3).webm,False,right,1,vcgpdm_dyn(20)-lvm(10)_final(8).webm,0,103,103,147,,,,,,,,15:35:41:984,15:35:42:672,15:35:45:675,right,15:35:45:992,,2013_Jan_05_1508,59.9667693086,MP-Perception Experiment,xx27w24,
264,training(16).webm,True,right,1,vcgpdm_dyn(5)-lvm(20)_final(9).webm,0,104,104,134,,,,,,,,15:35:46:676,15:35:47:493,15:35:50:495,left,15:35:50:830,,2013_Jan_05_1508,59.9667693086,MP-Perception Experiment,xx27w24,
265,vgpdm_dyn(25)-lvm(5)_final(2).webm,False,left,1,training(39).webm,0,105,105,65,,,,,,,,15:35:51:510,15:35:52:331,15:35:55:334,right,15:35:55:750,,2013_Jan_05_1508,59.9667693086,MP-Perception Experiment,xx27w24,
266,training(37).webm,True,right,1,vgpdm_dyn(5)-lvm(10)_final(9).webm,0,106,106,29,,,,,,,,15:35:56:435,15:35:57:252,15:36:00:254,right,15:36:00:621,,2013_Jan_05_1508,59.9667693086,MP-Perception Experiment,xx27w24,
267,map_gpdm_final(5).webm,True,left,1,training(23).webm,0,107,107,143,,,,,,,,15:36:01:469,15:36:02:122,15:36:05:125,left,15:36:05:592,,2013_Jan_05_1508,59.9667693086,MP-Perception Experiment,xx27w24,
268,training(13).webm,False,right,1,vgpdm_dyn(5)-lvm(5)_final(1)_out_of_screen.webm,0,108,108,37,,,,,,,,15:36:06:272,15:36:07:093,15:36:10:096,right,15:36:10:463,,2013_Jan_05_1508,59.9667693086,MP-Perception Experiment,xx27w24,
269,vcgpdm_dyn(30)-lvm(5)_final(0).webm,False,left,1,training(41).webm,0,109,109,74,,,,,,,,15:36:11:151,15:36:11:964,15:36:14:965,right,15:36:15:049,,2013_Jan_05_1508,59.9667693086,MP-Perception Experiment,xx27w24,
270,training(20).webm,False,right,1,vcgpdm_dyn(15)-lvm(10)_final(1).webm,0,110,110,4,,,,,,,,15:36:15:734,15:36:16:550,15:36:19:552,right,15:36:19:869,,2013_Jan_05_1508,59.9667693086,MP-Perception Experiment,xx27w24,
271,map_cgpdm_final(5).webm,True,left,1,training(48).webm,0,111,111,31,,,,,,,,15:36:20:544,15:36:21:370,15:36:24:373,left,15:36:24:740,,2013_Jan_05_1508,59.9667693086,MP-Perception Experiment,xx27w24,
272,vgpdm_dyn(20)-lvm(25)_final(7).webm,False,left,1,training(5).webm,0,112,112,59,,,,,,,,15:36:25:419,15:36:26:242,15:36:29:229,right,15:36:29:763,,2013_Jan_05_1508,59.9667693086,MP-Perception Experiment,xx27w24,
273,vcgpdm_dyn(20)-lvm(35)_final(5).webm,True,left,1,training(22).webm,0,113,113,21,,,,,,,,15:36:30:469,15:36:31:264,15:36:34:267,right,15:36:35:268,,2013_Jan_05_1508,59.9667693086,MP-Perception Experiment,xx27w24,
274,vcgpdm_dyn(10)-lvm(35)_final(7).webm,True,left,1,training(48).webm,0,114,114,129,,,,,,,,15:36:35:950,15:36:36:769,15:36:39:771,left,15:36:40:372,,2013_Jan_05_1508,59.9667693086,MP-Perception Experiment,xx27w24,
275,training(32).webm,True,right,1,vcgpdm_dyn(25)-lvm(20)_final(4).webm,0,115,115,91,,,,,,,,15:36:41:046,15:36:41:873,15:36:44:877,left,15:36:45:293,,2013_Jan_05_1508,59.9667693086,MP-Perception Experiment,xx27w24,
276,vgpdm_dyn(35)-lvm(35)_final(2).webm,False,left,1,training(30).webm,0,116,116,110,,,,,,,,15:36:45:969,15:36:46:795,15:36:49:797,right,15:36:50:264,,2013_Jan_05_1508,59.9667693086,MP-Perception Experiment,xx27w24,
277,vcgpdm_dyn(10)-lvm(25)_final(6).webm,True,left,1,training(11).webm,0,117,117,67,,,,,,,,15:36:50:946,15:36:51:765,15:36:54:768,left,15:36:55:368,,2013_Jan_05_1508,59.9667693086,MP-Perception Experiment,xx27w24,
278,training(7).webm,True,right,1,vcgpdm_dyn(30)-lvm(5)_final(1).webm,0,118,118,157,,,,,,,,15:36:56:052,15:36:56:869,15:36:59:872,right,15:37:00:339,,2013_Jan_05_1508,59.9667693086,MP-Perception Experiment,xx27w24,
279,training(34).webm,False,right,1,vcgpdm_dyn(20)-lvm(20)_final(2).webm,0,119,119,66,,,,,,,,15:37:01:189,15:37:01:841,15:37:04:842,right,15:37:05:209,,2013_Jan_05_1508,59.9667693086,MP-Perception Experiment,xx27w24,
280,vgpdm_dyn(10)-lvm(20)_final(2).webm,False,left,1,training(12).webm,0,120,120,10,,,,,,,,15:37:05:892,15:37:06:727,15:37:09:712,left,15:37:10:129,,2013_Jan_05_1508,59.9667693086,MP-Perception Experiment,xx27w24,
281,vcgpdm_dyn(15)-lvm(20)_final(2).webm,True,left,1,training(14).webm,0,121,121,61,,,,,,,,15:37:10:814,15:37:11:631,15:37:14:633,left,15:37:15:083,,2013_Jan_05_1508,59.9667693086,MP-Perception Experiment,xx27w24,
282,vgpdm_dyn(35)-lvm(5)_final(9).webm,True,left,1,training(13).webm,0,122,122,36,,,,,,,,15:37:15:758,15:37:16:585,15:37:19:573,left,15:37:19:990,,2013_Jan_05_1508,59.9667693086,MP-Perception Experiment,xx27w24,
283,training(26).webm,True,right,1,vgpdm_dyn(10)-lvm(35)_final(1).webm,0,123,123,80,,,,,,,,15:37:20:841,15:37:21:491,15:37:24:494,right,15:37:25:128,,2013_Jan_05_1508,59.9667693086,MP-Perception Experiment,xx27w24,
284,training(24).webm,True,right,1,vgpdm_dyn(20)-lvm(20)_final(8).webm,0,124,124,7,,,,,,,,15:37:25:811,15:37:26:629,15:37:29:631,left,15:37:30:048,,2013_Jan_05_1508,59.9667693086,MP-Perception Experiment,xx27w24,
285,training(39).webm,False,right,1,vcgpdm_dyn(10)-lvm(20)_final(3).webm,0,125,125,54,,,,,,,,15:37:30:726,15:37:31:549,15:37:34:552,right,15:37:35:036,,2013_Jan_05_1508,59.9667693086,MP-Perception Experiment,xx27w24,
286,training(24).webm,True,right,1,vcgpdm_dyn(10)-lvm(20)_final(1).webm,0,126,126,158,,,,,,,,15:37:35:740,15:37:36:538,15:37:39:540,left,15:37:40:074,,2013_Jan_05_1508,59.9667693086,MP-Perception Experiment,xx27w24,
287,training(8).webm,False,right,1,vcgpdm_dyn(30)-lvm(30)_final(7).webm,0,127,127,121,,,,,,,,15:37:40:885,15:37:41:575,15:37:44:578,right,15:37:44:928,,2013_Jan_05_1508,59.9667693086,MP-Perception Experiment,xx27w24,
288,training(48).webm,False,right,1,vgpdm_dyn(30)-lvm(30)_final(3).webm,0,128,128,126,,,,,,,,15:37:45:611,15:37:46:429,15:37:49:432,right,15:37:49:832,,2013_Jan_05_1508,59.9667693086,MP-Perception Experiment,xx27w24,
289,training(48).webm,True,right,1,vcgpdm_dyn(25)-lvm(10)_final(2).webm,0,129,129,68,,,,,,,,15:37:50:514,15:37:51:333,15:37:54:335,left,15:37:54:835,,2013_Jan_05_1508,59.9667693086,MP-Perception Experiment,xx27w24,
290,dmp_npsi(20)_final(1).webm,False,left,1,training(9).webm,0,130,130,2,,,,,,,,15:37:55:516,15:37:56:336,15:37:59:339,left,15:37:59:789,,2013_Jan_05_1508,59.9667693086,MP-Perception Experiment,xx27w24,
291,vgpdm_dyn(15)-lvm(5)_final(6).webm,False,left,1,training(14).webm,0,131,131,116,,,,,,,,15:38:00:575,15:38:01:290,15:38:04:293,left,15:38:04:760,,2013_Jan_05_1508,59.9667693086,MP-Perception Experiment,xx27w24,
292,tmp_numprim(7)_final(5).webm,True,left,1,training(25).webm,0,132,132,103,,,,,,,,15:38:05:436,15:38:06:261,15:38:09:249,right,15:38:09:716,,2013_Jan_05_1508,59.9667693086,MP-Perception Experiment,xx27w24,
293,vgpdm_dyn(30)-lvm(35)_final(1).webm,True,left,1,training(11).webm,0,133,133,84,,,,,,,,15:38:10:390,15:38:11:218,15:38:14:220,left,15:38:14:671,,2013_Jan_05_1508,59.9667693086,MP-Perception Experiment,xx27w24,
294,vgpdm_dyn(25)-lvm(35)_final(3).webm,False,left,1,training(4).webm,0,134,134,96,,,,,,,,15:38:15:408,15:38:16:172,15:38:19:174,right,15:38:19:258,,2013_Jan_05_1508,59.9667693086,MP-Perception Experiment,xx27w24,
295,training(35).webm,True,right,1,vcgpdm_dyn(35)-lvm(5)_final(9).webm,0,135,135,6,,,,,,,,15:38:19:935,15:38:20:759,15:38:23:761,left,15:38:24:228,,2013_Jan_05_1508,59.9667693086,MP-Perception Experiment,xx27w24,
296,training(32).webm,False,right,1,vgpdm_dyn(10)-lvm(5)_final(0).webm,0,136,136,90,,,,,,,,15:38:24:916,15:38:25:729,15:38:28:733,right,15:38:29:317,,2013_Jan_05_1508,59.9667693086,MP-Perception Experiment,xx27w24,
297,training(11).webm,False,right,1,vcgpdm_dyn(25)-lvm(10)_final(4).webm,0,137,137,51,,,,,,,,15:38:30:003,15:38:30:818,15:38:33:820,right,15:38:34:287,,2013_Jan_05_1508,59.9667693086,MP-Perception Experiment,xx27w24,
298,training(35).webm,False,right,1,vgpdm_dyn(15)-lvm(15)_final(0).webm,0,138,138,64,,,,,,,,15:38:34:970,15:38:35:789,15:38:38:791,right,15:38:39:191,,2013_Jan_05_1508,59.9667693086,MP-Perception Experiment,xx27w24,
299,vgpdm_dyn(25)-lvm(35)_final(2).webm,False,left,1,training(2).webm,0,139,139,109,,,,,,,,15:38:39:902,15:38:40:692,15:38:43:693,right,15:38:44:060,,2013_Jan_05_1508,59.9667693086,MP-Perception Experiment,xx27w24,
300,training(18).webm,False,right,1,vcgpdm_dyn(30)-lvm(25)_final(0).webm,0,140,140,100,,,,,,,,15:38:44:736,15:38:45:561,15:38:48:565,right,15:38:49:099,,2013_Jan_05_1508,59.9667693086,MP-Perception Experiment,xx27w24,
301,vgpdm_dyn(5)-lvm(30)_final(7).webm,False,left,1,training(4).webm,0,141,141,87,,,,,,,,15:38:49:826,15:38:50:600,15:38:53:602,left,15:38:54:103,,2013_Jan_05_1508,59.9667693086,MP-Perception Experiment,xx27w24,
302,vgpdm_dyn(20)-lvm(25)_final(9).webm,True,left,1,training(39).webm,0,142,142,12,,,,,,,,15:38:54:942,15:38:55:606,15:38:58:591,left,15:38:59:209,,2013_Jan_05_1508,59.9667693086,MP-Perception Experiment,xx27w24,
303,vgpdm_dyn(30)-lvm(5)_final(6).webm,True,left,1,training(30).webm,0,143,143,106,,,,,,,,15:38:59:931,15:39:00:710,15:39:03:713,left,15:39:04:097,,2013_Jan_05_1508,59.9667693086,MP-Perception Experiment,xx27w24,
304,vcgpdm_dyn(30)-lvm(30)_final(0).webm,True,left,1,training(27).webm,0,144,144,23,,,,,,,,15:39:04:877,15:39:05:598,15:39:08:601,left,15:39:09:134,,2013_Jan_05_1508,59.9667693086,MP-Perception Experiment,xx27w24,
305,training(6).webm,True,right,1,vcgpdm_dyn(5)-lvm(20)_final(0).webm,0,145,145,81,,,,,,,,15:39:09:976,15:39:10:635,15:39:13:638,left,15:39:13:971,,2013_Jan_05_1508,59.9667693086,MP-Perception Experiment,xx27w24,
306,training(23).webm,False,right,1,vcgpdm_dyn(15)-lvm(30)_final(5).webm,0,146,146,125,,,,,,,,15:39:14:649,15:39:15:473,15:39:18:475,right,15:39:19:009,,2013_Jan_05_1508,59.9667693086,MP-Perception Experiment,xx27w24,
307,training(8).webm,True,right,1,vcgpdm_dyn(10)-lvm(5)_final(3).webm,0,147,147,95,,,,,,,,15:39:19:689,15:39:20:510,15:39:23:514,right,15:39:23:964,,2013_Jan_05_1508,59.9667693086,MP-Perception Experiment,xx27w24,
308,vcgpdm_dyn(35)-lvm(30)_final(3).webm,True,left,1,training(1).webm,0,148,148,22,,,,,,,,15:39:24:642,15:39:25:465,15:39:28:468,left,15:39:28:935,,2013_Jan_05_1508,59.9667693086,MP-Perception Experiment,xx27w24,
309,training(1).webm,True,right,1,vcgpdm_dyn(35)-lvm(20)_final(8).webm,0,149,149,63,,,,,,,,15:39:29:777,15:39:30:436,15:39:33:436,left,15:39:33:803,,2013_Jan_05_1508,59.9667693086,MP-Perception Experiment,xx27w24,
310,training(1).webm,True,right,1,dmp_npsi(40)_final(1).webm,0,150,150,41,,,,,,,,15:39:34:618,15:39:35:304,15:39:38:308,left,15:39:38:642,,2013_Jan_05_1508,59.9667693086,MP-Perception Experiment,xx27w24,
311,training(1).webm,False,right,1,vgpdm_dyn(20)-lvm(35)_final(7).webm,0,151,151,73,,,,,,,,15:39:39:490,15:39:40:143,15:39:43:145,right,15:39:43:512,,2013_Jan_05_1508,59.9667693086,MP-Perception Experiment,xx27w24,
312,vcgpdm_dyn(15)-lvm(25)_final(9).webm,False,left,1,training(4).webm,0,152,152,151,,,,,,,,15:39:44:262,15:39:45:013,15:39:48:001,left,15:39:48:468,,2013_Jan_05_1508,59.9667693086,MP-Perception Experiment,xx27w24,
313,training(24).webm,False,right,1,vcgpdm_dyn(5)-lvm(5)_final(3).webm,0,153,153,112,,,,,,,,15:39:49:156,15:39:49:969,15:39:52:972,right,15:39:53:555,,2013_Jan_05_1508,59.9667693086,MP-Perception Experiment,xx27w24,
314,vcgpdm_dyn(25)-lvm(35)_final(8).webm,False,left,1,training(23).webm,0,154,154,71,,,,,,,,15:39:54:279,15:39:55:057,15:39:58:060,left,15:39:58:577,,2013_Jan_05_1508,59.9667693086,MP-Perception Experiment,xx27w24,
315,training(18).webm,True,right,1,vcgpdm_dyn(5)-lvm(10)_final(7).webm,0,155,155,57,,,,,,,,15:39:59:257,15:40:00:078,15:40:03:081,right,15:40:03:464,,2013_Jan_05_1508,59.9667693086,MP-Perception Experiment,xx27w24,
316,vgpdm_dyn(20)-lvm(5)_final(0).webm,True,left,1,training(38).webm,0,156,156,28,,,,,,,,15:40:04:144,15:40:04:966,15:40:07:968,left,15:40:08:318,,2013_Jan_05_1508,59.9667693086,MP-Perception Experiment,xx27w24,
317,vcgpdm_dyn(10)-lvm(25)_final(6).webm,False,left,1,training(19).webm,0,157,157,55,,,,,,,,15:40:08:994,15:40:09:819,15:40:12:822,left,15:40:13:490,,2013_Jan_05_1508,59.9667693086,MP-Perception Experiment,xx27w24,
318,vgpdm_dyn(30)-lvm(10)_final(1).webm,False,left,1,training(15).webm,0,158,158,128,,,,,,,,15:40:14:234,15:40:14:991,15:40:17:994,left,15:40:18:528,,2013_Jan_05_1508,59.9667693086,MP-Perception Experiment,xx27w24,
319,training(15).webm,True,right,2,vgpdm_dyn(10)-lvm(10)_final(1).webm,0,0,0,148,,,,,,,,15:43:09:303,15:43:10:143,15:43:13:129,right,15:43:13:529,,2013_Jan_05_1508,59.9667693086,MP-Perception Experiment,xx27w24,
320,dmp_npsi(40)_final(5).webm,False,left,2,training(24).webm,0,1,1,113,,,,,,,,15:43:14:358,15:43:15:030,15:43:18:032,left,15:43:18:466,,2013_Jan_05_1508,59.9667693086,MP-Perception Experiment,xx27w24,
321,dmp_npsi(30)_final(5).webm,True,left,2,training(9).webm,0,2,2,38,,,,,,,,15:43:19:248,15:43:19:967,15:43:22:970,left,15:43:23:337,,2013_Jan_05_1508,59.9667693086,MP-Perception Experiment,xx27w24,
322,tmp_numprim(7)_final(8).webm,False,left,2,training(38).webm,0,3,3,8,,,,,,,,15:43:24:159,15:43:24:838,15:43:27:841,right,15:43:28:242,,2013_Jan_05_1508,59.9667693086,MP-Perception Experiment,xx27w24,
323,training(4).webm,False,right,2,vgpdm_dyn(35)-lvm(10)_final(7).webm,0,4,4,155,,,,,,,,15:43:29:091,15:43:29:743,15:43:32:745,right,15:43:33:129,,2013_Jan_05_1508,59.9667693086,MP-Perception Experiment,xx27w24,
324,training(30).webm,False,right,2,vcgpdm_dyn(15)-lvm(10)_final(4).webm,0,5,5,3,,,,,,,,15:43:33:801,15:43:34:630,15:43:37:633,right,15:43:38:016,,2013_Jan_05_1508,59.9667693086,MP-Perception Experiment,xx27w24,
325,training(3).webm,False,right,2,vcgpdm_dyn(35)-lvm(10)_final(2).webm,0,6,6,110,,,,,,,,15:43:38:704,15:43:39:517,15:43:42:520,right,15:43:42:821,,2013_Jan_05_1508,59.9667693086,MP-Perception Experiment,xx27w24,
326,vgpdm_dyn(5)-lvm(15)_final(0).webm,False,left,2,training(2).webm,0,7,7,10,,,,,,,,15:43:43:586,15:43:44:337,15:43:47:323,left,15:43:47:757,,2013_Jan_05_1508,59.9667693086,MP-Perception Experiment,xx27w24,
327,vcgpdm_dyn(5)-lvm(10)_final(6).webm,False,left,2,training(4).webm,0,8,8,5,,,,,,,,15:43:48:604,15:43:49:258,15:43:52:260,left,15:43:52:794,,2013_Jan_05_1508,59.9667693086,MP-Perception Experiment,xx27w24,
328,map_cgpdm_final(8).webm,True,left,2,training(19).webm,0,9,9,50,,,,,,,,15:43:53:553,15:43:54:295,15:43:57:283,left,15:43:57:666,,2013_Jan_05_1508,59.9667693086,MP-Perception Experiment,xx27w24,
329,training(11).webm,True,right,2,vgpdm_dyn(15)-lvm(35)_final(4).webm,0,10,10,46,,,,,,,,15:43:58:351,15:43:59:168,15:44:02:171,left,15:44:02:638,,2013_Jan_05_1508,59.9667693086,MP-Perception Experiment,xx27w24,
330,training(4).webm,True,right,2,dmp_npsi(15)_final(2).webm,0,11,11,101,,,,,,,,15:44:03:485,15:44:04:139,15:44:07:142,right,15:44:07:509,,2013_Jan_05_1508,59.9667693086,MP-Perception Experiment,xx27w24,
331,training(15).webm,True,right,2,vcgpdm_dyn(20)-lvm(25)_final(3).webm,0,12,12,139,,,,,,,,15:44:08:191,15:44:09:010,15:44:12:012,right,15:44:12:646,,2013_Jan_05_1508,59.9667693086,MP-Perception Experiment,xx27w24,
332,vcgpdm_dyn(30)-lvm(5)_final(1).webm,False,left,2,training(41).webm,0,13,13,156,,,,,,,,15:44:13:323,15:44:14:147,15:44:17:150,right,15:44:17:600,,2013_Jan_05_1508,59.9667693086,MP-Perception Experiment,xx27w24,
333,training(5).webm,False,right,2,vgpdm_dyn(20)-lvm(30)_final(9).webm,0,14,14,79,,,,,,,,15:44:18:302,15:44:19:102,15:44:22:105,right,15:44:22:789,,2013_Jan_05_1508,59.9667693086,MP-Perception Experiment,xx27w24,
334,vcgpdm_dyn(20)-lvm(20)_final(5).webm,True,left,2,training(41).webm,0,15,15,145,,,,,,,,15:44:23:471,15:44:24:290,15:44:27:293,right,15:44:27:776,,2013_Jan_05_1508,59.9667693086,MP-Perception Experiment,xx27w24,
335,training(13).webm,False,right,2,tmp_numprim(8)_final(7).webm,0,16,16,7,,,,,,,,15:44:28:458,15:44:29:277,15:44:32:280,right,15:44:32:480,,2013_Jan_05_1508,59.9667693086,MP-Perception Experiment,xx27w24,
336,tmp_numprim(3)_final(3).webm,True,left,2,training(21).webm,0,17,17,123,,,,,,,,15:44:33:162,15:44:33:996,15:44:36:983,left,15:44:37:567,,2013_Jan_05_1508,59.9667693086,MP-Perception Experiment,xx27w24,
337,training(40).webm,True,right,2,vcgpdm_dyn(35)-lvm(25)_final(5).webm,0,18,18,43,,,,,,,,15:44:38:245,15:44:39:068,15:44:42:070,right,15:44:42:737,,2013_Jan_05_1508,59.9667693086,MP-Perception Experiment,xx27w24,
338,training(16).webm,True,right,2,map_gpdm_final(0).webm,0,19,19,47,,,,,,,,15:44:43:416,15:44:44:239,15:44:47:226,right,15:44:47:760,,2013_Jan_05_1508,59.9667693086,MP-Perception Experiment,xx27w24,
339,vgpdm_dyn(30)-lvm(25)_final(2).webm,True,left,2,training(37).webm,0,20,20,104,,,,,,,,15:44:48:445,15:44:49:261,15:44:52:264,right,15:44:52:732,,2013_Jan_05_1508,59.9667693086,MP-Perception Experiment,xx27w24,
340,vgpdm_dyn(30)-lvm(30)_final(2).webm,True,left,2,training(21).webm,0,21,21,100,,,,,,,,15:44:53:412,15:44:54:233,15:44:57:235,left,15:44:57:569,,2013_Jan_05_1508,59.9667693086,MP-Perception Experiment,xx27w24,
341,tmp_numprim(6)_final(3).webm,False,left,2,training(16).webm,0,22,22,96,,,,,,,,15:44:58:245,15:44:59:070,15:45:02:073,right,15:45:02:423,,2013_Jan_05_1508,59.9667693086,MP-Perception Experiment,xx27w24,
342,training(25).webm,False,right,2,vgpdm_dyn(25)-lvm(25)_final(6)_bad.webm,0,23,23,30,,,,,,,,15:45:03:104,15:45:03:924,15:45:06:926,right,15:45:07:460,,2013_Jan_05_1508,59.9667693086,MP-Perception Experiment,xx27w24,
343,map_cgpdm_final(9).webm,True,left,2,training(6).webm,0,24,24,97,,,,,,,,15:45:08:141,15:45:08:961,15:45:11:965,left,15:45:12:365,,2013_Jan_05_1508,59.9667693086,MP-Perception Experiment,xx27w24,
344,training(33).webm,True,right,2,vgpdm_dyn(15)-lvm(25)_final(0).webm,0,25,25,115,,,,,,,,15:45:13:043,15:45:13:866,15:45:16:869,right,15:45:17:286,,2013_Jan_05_1508,59.9667693086,MP-Perception Experiment,xx27w24,
345,vgpdm_dyn(25)-lvm(5)_final(6).webm,False,left,2,training(34).webm,0,26,26,66,,,,,,,,15:45:18:011,15:45:18:787,15:45:21:789,right,15:45:22:073,,2013_Jan_05_1508,59.9667693086,MP-Perception Experiment,xx27w24,
346,vcgpdm_dyn(5)-lvm(15)_final(5).webm,True,left,2,training(48).webm,0,27,27,31,,,,,,,,15:45:22:947,15:45:23:574,15:45:26:575,left,15:45:27:325,,2013_Jan_05_1508,59.9667693086,MP-Perception Experiment,xx27w24,
347,vgpdm_dyn(20)-lvm(15)_final(2).webm,False,left,2,training(23).webm,0,28,28,68,,,,,,,,15:45:28:002,15:45:28:828,15:45:31:830,left,15:45:32:230,,2013_Jan_05_1508,59.9667693086,MP-Perception Experiment,xx27w24,
348,training(6).webm,False,right,2,vcgpdm_dyn(20)-lvm(30)_final(9).webm,0,29,29,72,,,,,,,,15:45:33:079,15:45:33:732,15:45:36:719,right,15:45:37:069,,2013_Jan_05_1508,59.9667693086,MP-Perception Experiment,xx27w24,
349,training(38).webm,True,right,2,dmp_npsi(35)_final(6).webm,0,30,30,93,,,,,,,,15:45:37:903,15:45:38:571,15:45:41:573,right,15:45:41:823,,2013_Jan_05_1508,59.9667693086,MP-Perception Experiment,xx27w24,
350,vcgpdm_dyn(25)-lvm(25)_final(8).webm,True,left,2,training(19).webm,0,31,31,102,,,,,,,,15:45:42:607,15:45:43:324,15:45:46:328,left,15:45:47:095,,2013_Jan_05_1508,59.9667693086,MP-Perception Experiment,xx27w24,
351,training(29).webm,False,right,2,vgpdm_dyn(35)-lvm(30)_final(0).webm,0,32,32,157,,,,,,,,15:45:47:941,15:45:48:596,15:45:51:599,left,15:45:52:066,,2013_Jan_05_1508,59.9667693086,MP-Perception Experiment,xx27w24,
352,vgpdm_dyn(10)-lvm(25)_final(4).webm,False,left,2,training(1).webm,0,33,33,55,,,,,,,,15:45:52:914,15:45:53:567,15:45:56:570,left,15:45:57:187,,2013_Jan_05_1508,59.9667693086,MP-Perception Experiment,xx27w24,
353,tmp_numprim(3)_final(6).webm,True,left,2,training(20).webm,0,34,34,94,,,,,,,,15:45:57:865,15:45:58:688,15:46:01:690,left,15:46:02:107,,2013_Jan_05_1508,59.9667693086,MP-Perception Experiment,xx27w24,
354,vgpdm_dyn(15)-lvm(35)_final(6).webm,False,left,2,training(28).webm,0,35,35,23,,,,,,,,15:46:02:783,15:46:03:609,15:46:06:612,left,15:46:07:096,,2013_Jan_05_1508,59.9667693086,MP-Perception Experiment,xx27w24,
355,training(27).webm,True,right,2,dmp_npsi(50)_final(7).webm,0,36,36,56,,,,,,,,15:46:07:777,15:46:08:597,15:46:11:599,left,15:46:12:016,,2013_Jan_05_1508,59.9667693086,MP-Perception Experiment,xx27w24,
356,training(24).webm,True,right,2,vgpdm_dyn(20)-lvm(25)_final(2).webm,0,37,37,22,,,,,,,,15:46:12:828,15:46:13:517,15:46:16:518,left,15:46:16:918,,2013_Jan_05_1508,59.9667693086,MP-Perception Experiment,xx27w24,
357,tmp_numprim(2)_final(4).webm,True,left,2,training(2).webm,0,38,38,106,,,,,,,,15:46:17:592,15:46:18:420,15:46:21:423,left,15:46:21:873,,2013_Jan_05_1508,59.9667693086,MP-Perception Experiment,xx27w24,
358,training(20).webm,True,right,2,tmp_numprim(4)_final(5).webm,0,39,39,29,,,,,,,,15:46:22:717,15:46:23:375,15:46:26:377,right,15:46:26:761,,2013_Jan_05_1508,59.9667693086,MP-Perception Experiment,xx27w24,
359,vcgpdm_dyn(25)-lvm(10)_final(2).webm,False,left,2,training(16).webm,0,40,40,53,,,,,,,,15:46:27:435,15:46:28:264,15:46:31:250,left,15:46:31:683,,2013_Jan_05_1508,59.9667693086,MP-Perception Experiment,xx27w24,
360,vcgpdm_dyn(5)-lvm(20)_final(7).webm,True,left,2,training(32).webm,0,41,41,4,,,,,,,,15:46:32:391,15:46:33:184,15:46:36:187,left,15:46:36:554,,2013_Jan_05_1508,59.9667693086,MP-Perception Experiment,xx27w24,
361,training(22).webm,True,right,2,vgpdm_dyn(20)-lvm(30)_final(7).webm,0,42,42,117,,,,,,,,15:46:37:383,15:46:38:056,15:46:41:058,left,15:46:41:425,,2013_Jan_05_1508,59.9667693086,MP-Perception Experiment,xx27w24,
362,vcgpdm_dyn(15)-lvm(35)_final(2).webm,True,left,2,training(18).webm,0,43,43,152,,,,,,,,15:46:42:154,15:46:42:926,15:46:45:929,left,15:46:46:446,,2013_Jan_05_1508,59.9667693086,MP-Perception Experiment,xx27w24,
363,vgpdm_dyn(35)-lvm(10)_final(2).webm,True,left,2,training(7).webm,0,44,44,127,,,,,,,,15:46:47:126,15:46:47:947,15:46:50:950,left,15:46:51:684,,2013_Jan_05_1508,59.9667693086,MP-Perception Experiment,xx27w24,
364,training(9).webm,False,right,2,vgpdm_dyn(15)-lvm(5)_final(9).webm,0,45,45,105,,,,,,,,15:46:52:359,15:46:53:185,15:46:56:188,right,15:46:56:505,,2013_Jan_05_1508,59.9667693086,MP-Perception Experiment,xx27w24,
365,dmp_npsi(50)_final(2).webm,False,left,2,training(34).webm,0,46,46,111,,,,,,,,15:46:57:351,15:46:58:006,15:47:01:009,right,15:47:01:476,,2013_Jan_05_1508,59.9667693086,MP-Perception Experiment,xx27w24,
366,vcgpdm_dyn(10)-lvm(25)_final(0).webm,False,left,2,training(39).webm,0,47,47,73,,,,,,,,15:47:02:222,15:47:02:977,15:47:05:978,left,15:47:06:495,,2013_Jan_05_1508,59.9667693086,MP-Perception Experiment,xx27w24,
367,vgpdm_dyn(25)-lvm(20)_final(2).webm,True,left,2,training(18).webm,0,48,48,103,,,,,,,,15:47:07:228,15:47:07:996,15:47:10:998,left,15:47:11:432,,2013_Jan_05_1508,59.9667693086,MP-Perception Experiment,xx27w24,
368,vcgpdm_dyn(10)-lvm(10)_final(8).webm,False,left,2,training(10).webm,0,49,49,37,,,,,,,,15:47:12:201,15:47:12:934,15:47:15:937,right,15:47:16:304,,2013_Jan_05_1508,59.9667693086,MP-Perception Experiment,xx27w24,
369,training(1).webm,True,right,2,tmp_numprim(10)_final(6).webm,0,50,50,75,,,,,,,,15:47:17:112,15:47:17:807,15:47:20:792,left,15:47:21:193,,2013_Jan_05_1508,59.9667693086,MP-Perception Experiment,xx27w24,
370,vgpdm_dyn(5)-lvm(15)_final(1).webm,True,left,2,training(40).webm,0,51,51,90,,,,,,,,15:47:22:045,15:47:22:694,15:47:25:697,left,15:47:26:414,,2013_Jan_05_1508,59.9667693086,MP-Perception Experiment,xx27w24,
371,training(32).webm,True,right,2,vgpdm_dyn(25)-lvm(5)_final(4).webm,0,52,52,49,,,,,,,,15:47:27:260,15:47:27:915,15:47:30:918,right,15:47:31:319,,2013_Jan_05_1508,59.9667693086,MP-Perception Experiment,xx27w24,
372,vgpdm_dyn(20)-lvm(30)_final(0).webm,True,left,2,training(32).webm,0,53,53,137,,,,,,,,15:47:32:059,15:47:32:820,15:47:35:822,left,15:47:36:173,,2013_Jan_05_1508,59.9667693086,MP-Perception Experiment,xx27w24,
373,training(12).webm,True,right,2,vcgpdm_dyn(15)-lvm(25)_final(7).webm,0,54,54,153,,,,,,,,15:47:37:023,15:47:37:674,15:47:40:676,right,15:47:41:026,,2013_Jan_05_1508,59.9667693086,MP-Perception Experiment,xx27w24,
374,training(2).webm,False,right,2,vcgpdm_dyn(20)-lvm(5)_final(0).webm,0,55,55,118,,,,,,,,15:47:41:698,15:47:42:528,15:47:45:530,right,15:47:45:864,,2013_Jan_05_1508,59.9667693086,MP-Perception Experiment,xx27w24,
375,training(31).webm,True,right,2,vgpdm_dyn(5)-lvm(30)_final(5).webm,0,56,56,158,,,,,,,,15:47:46:545,15:47:47:381,15:47:50:368,right,15:47:50:902,,2013_Jan_05_1508,59.9667693086,MP-Perception Experiment,xx27w24,
376,vgpdm_dyn(25)-lvm(35)_final(4).webm,True,left,2,training(26).webm,0,57,57,45,,,,,,,,15:47:51:582,15:47:52:403,15:47:55:404,left,15:47:55:738,,2013_Jan_05_1508,59.9667693086,MP-Perception Experiment,xx27w24,
377,training(33).webm,True,right,2,vcgpdm_dyn(35)-lvm(10)_final(6).webm,0,58,58,108,,,,,,,,15:47:56:409,15:47:57:239,15:48:00:241,left,15:48:00:808,,2013_Jan_05_1508,59.9667693086,MP-Perception Experiment,xx27w24,
378,training(0).webm,False,right,2,vcgpdm_dyn(15)-lvm(20)_final(6).webm,0,59,59,74,,,,,,,,15:48:01:489,15:48:02:309,15:48:05:313,right,15:48:05:630,,2013_Jan_05_1508,59.9667693086,MP-Perception Experiment,xx27w24,
379,vgpdm_dyn(10)-lvm(25)_final(1).webm,False,left,2,training(34).webm,0,60,60,6,,,,,,,,15:48:06:308,15:48:07:131,15:48:10:119,right,15:48:10:552,,2013_Jan_05_1508,59.9667693086,MP-Perception Experiment,xx27w24,
380,training(3).webm,True,right,2,vgpdm_dyn(30)-lvm(30)_final(3).webm,0,61,61,112,,,,,,,,15:48:11:225,15:48:12:053,15:48:15:056,left,15:48:15:490,,2013_Jan_05_1508,59.9667693086,MP-Perception Experiment,xx27w24,
381,training(2).webm,True,right,2,vgpdm_dyn(30)-lvm(5)_final(4).webm,0,62,62,107,,,,,,,,15:48:16:174,15:48:16:991,15:48:19:993,left,15:48:20:310,,2013_Jan_05_1508,59.9667693086,MP-Perception Experiment,xx27w24,
382,training(14).webm,True,right,2,dmp_npsi(35)_final(4).webm,0,63,63,59,,,,,,,,15:48:20:995,15:48:21:811,15:48:24:815,right,15:48:25:265,,2013_Jan_05_1508,59.9667693086,MP-Perception Experiment,xx27w24,
383,vcgpdm_dyn(15)-lvm(10)_final(4).webm,False,left,2,training(18).webm,0,64,64,1,,,,,,,,15:48:25:939,15:48:26:766,15:48:29:769,right,15:48:30:353,,2013_Jan_05_1508,59.9667693086,MP-Perception Experiment,xx27w24,
384,vgpdm_dyn(10)-lvm(10)_final(2).webm,False,left,2,training(11).webm,0,65,65,71,,,,,,,,15:48:31:025,15:48:31:854,15:48:34:856,left,15:48:36:040,,2013_Jan_05_1508,59.9667693086,MP-Perception Experiment,xx27w24,
385,vcgpdm_dyn(35)-lvm(25)_final(6).webm,False,left,2,training(26).webm,0,66,66,129,,,,,,,,15:48:36:723,15:48:37:542,15:48:40:545,left,15:48:41:179,,2013_Jan_05_1508,59.9667693086,MP-Perception Experiment,xx27w24,
386,vcgpdm_dyn(5)-lvm(10)_final(9).webm,True,left,2,training(6).webm,0,67,67,122,,,,,,,,15:48:41:871,15:48:42:680,15:48:45:681,left,15:48:46:098,,2013_Jan_05_1508,59.9667693086,MP-Perception Experiment,xx27w24,
387,training(9).webm,True,right,2,vcgpdm_dyn(20)-lvm(15)_final(5).webm,0,68,68,57,,,,,,,,15:48:46:774,15:48:47:599,15:48:50:602,left,15:48:51:002,,2013_Jan_05_1508,59.9667693086,MP-Perception Experiment,xx27w24,
388,training(10).webm,True,right,2,vcgpdm_dyn(35)-lvm(10)_final(8).webm,0,69,69,52,,,,,,,,15:48:51:681,15:48:52:503,15:48:55:491,right,15:48:55:974,,2013_Jan_05_1508,59.9667693086,MP-Perception Experiment,xx27w24,
389,training(40).webm,False,right,2,vcgpdm_dyn(10)-lvm(10)_final(5).webm,0,70,70,26,,,,,,,,15:48:56:654,15:48:57:476,15:49:00:479,right,15:49:00:929,,2013_Jan_05_1508,59.9667693086,MP-Perception Experiment,xx27w24,
390,tmp_numprim(7)_final(3).webm,True,left,2,training(23).webm,0,71,71,132,,,,,,,,15:49:01:608,15:49:02:430,15:49:05:433,right,15:49:05:967,,2013_Jan_05_1508,59.9667693086,MP-Perception Experiment,xx27w24,
391,tmp_numprim(9)_final(3).webm,True,left,2,training(22).webm,0,72,72,67,,,,,,,,15:49:06:644,15:49:07:468,15:49:10:470,left,15:49:10:904,,2013_Jan_05_1508,59.9667693086,MP-Perception Experiment,xx27w24,
392,training(38).webm,True,right,2,vgpdm_dyn(30)-lvm(25)_final(9).webm,0,73,73,35,,,,,,,,15:49:11:751,15:49:12:405,15:49:15:409,left,15:49:15:842,,2013_Jan_05_1508,59.9667693086,MP-Perception Experiment,xx27w24,
393,training(32).webm,False,right,2,vgpdm_dyn(10)-lvm(30)_final(9).webm,0,74,74,2,,,,,,,,15:49:16:688,15:49:17:343,15:49:20:346,right,15:49:20:963,,2013_Jan_05_1508,59.9667693086,MP-Perception Experiment,xx27w24,
394,training(24).webm,False,right,2,dmp_npsi(20)_final(1).webm,0,75,75,33,,,,,,,,15:49:21:637,15:49:22:464,15:49:25:466,right,15:49:26:501,,2013_Jan_05_1508,59.9667693086,MP-Perception Experiment,xx27w24,
395,dmp_npsi(40)_final(7).webm,True,left,2,training(2).webm,0,76,76,131,,,,,,,,15:49:27:175,15:49:28:002,15:49:31:005,left,15:49:31:355,,2013_Jan_05_1508,59.9667693086,MP-Perception Experiment,xx27w24,
396,vcgpdm_dyn(10)-lvm(15)_final(4).webm,False,left,2,training(11).webm,0,77,77,147,,,,,,,,15:49:32:032,15:49:32:857,15:49:35:858,left,15:49:36:425,,2013_Jan_05_1508,59.9667693086,MP-Perception Experiment,xx27w24,
397,vcgpdm_dyn(5)-lvm(5)_final(8).webm,True,left,2,training(15).webm,0,78,78,87,,,,,,,,15:49:37:168,15:49:37:926,15:49:40:929,left,15:49:41:479,,2013_Jan_05_1508,59.9667693086,MP-Perception Experiment,xx27w24,
398,training(48).webm,False,right,2,vcgpdm_dyn(5)-lvm(30)_final(6)_bad.webm,0,79,79,85,,,,,,,,15:49:42:336,15:49:42:980,15:49:45:983,right,15:49:46:533,,2013_Jan_05_1508,59.9667693086,MP-Perception Experiment,xx27w24,
399,training(3).webm,True,right,2,vcgpdm_dyn(20)-lvm(10)_final(3).webm,0,80,80,21,,,,,,,,15:49:47:413,15:49:48:036,15:49:51:023,right,15:49:51:456,,2013_Jan_05_1508,59.9667693086,MP-Perception Experiment,xx27w24,
400,training(20).webm,True,right,2,vcgpdm_dyn(20)-lvm(35)_final(7).webm,0,81,81,146,,,,,,,,15:49:52:142,15:49:52:958,15:49:55:960,left,15:49:56:427,,2013_Jan_05_1508,59.9667693086,MP-Perception Experiment,xx27w24,
401,training(36).webm,True,right,2,vgpdm_dyn(20)-lvm(20)_final(0).webm,0,82,82,136,,,,,,,,15:49:57:103,15:49:57:928,15:50:00:931,left,15:50:01:631,,2013_Jan_05_1508,59.9667693086,MP-Perception Experiment,xx27w24,
402,vgpdm_dyn(35)-lvm(5)_final(9).webm,False,left,2,training(35).webm,0,83,83,88,,,,,,,,15:50:02:306,15:50:03:132,15:50:06:135,right,15:50:06:402,,2013_Jan_05_1508,59.9667693086,MP-Perception Experiment,xx27w24,
403,training(27).webm,False,right,2,vgpdm_dyn(25)-lvm(30)_final(4).webm,0,84,84,63,,,,,,,,15:50:07:249,15:50:07:904,15:50:10:906,right,15:50:11:374,,2013_Jan_05_1508,59.9667693086,MP-Perception Experiment,xx27w24,
404,vcgpdm_dyn(25)-lvm(10)_final(6).webm,True,left,2,training(30).webm,0,85,85,78,,,,,,,,15:50:12:127,15:50:12:875,15:50:15:877,left,15:50:16:328,,2013_Jan_05_1508,59.9667693086,MP-Perception Experiment,xx27w24,
405,training(26).webm,True,right,2,vcgpdm_dyn(10)-lvm(35)_final(9).webm,0,86,86,133,,,,,,,,15:50:17:001,15:50:17:829,15:50:20:831,right,15:50:21:332,,2013_Jan_05_1508,59.9667693086,MP-Perception Experiment,xx27w24,
406,dmp_npsi(25)_final(3).webm,False,left,2,training(38).webm,0,87,87,119,,,,,,,,15:50:22:149,15:50:22:833,15:50:25:834,left,15:50:26:201,,2013_Jan_05_1508,59.9667693086,MP-Perception Experiment,xx27w24,
407,training(6).webm,True,right,2,vgpdm_dyn(10)-lvm(5)_final(6).webm,0,88,88,76,,,,,,,,15:50:27:050,15:50:27:703,15:50:30:705,right,15:50:31:139,,2013_Jan_05_1508,59.9667693086,MP-Perception Experiment,xx27w24,
408,vcgpdm_dyn(10)-lvm(15)_final(6).webm,True,left,2,training(29).webm,0,89,89,18,,,,,,,,15:50:31:886,15:50:32:640,15:50:35:627,left,15:50:36:145,,2013_Jan_05_1508,59.9667693086,MP-Perception Experiment,xx27w24,
409,tmp_numprim(2)_final(6).webm,False,left,2,training(31).webm,0,90,90,144,,,,,,,,15:50:36:993,15:50:37:646,15:50:40:648,left,15:50:41:332,,2013_Jan_05_1508,59.9667693086,MP-Perception Experiment,xx27w24,
410,dmp_npsi(15)_final(3).webm,False,left,2,training(14).webm,0,91,91,14,,,,,,,,15:50:42:177,15:50:42:834,15:50:45:837,left,15:50:46:420,,2013_Jan_05_1508,59.9667693086,MP-Perception Experiment,xx27w24,
411,vcgpdm_dyn(25)-lvm(5)_final(2).webm,False,left,2,training(36).webm,0,92,92,20,,,,,,,,15:50:47:197,15:50:47:922,15:50:50:924,left,15:50:51:291,,2013_Jan_05_1508,59.9667693086,MP-Perception Experiment,xx27w24,
412,dmp_npsi(20)_final(5).webm,False,left,2,training(1).webm,0,93,93,44,,,,,,,,15:50:51:975,15:50:52:792,15:50:55:795,left,15:50:56:379,,2013_Jan_05_1508,59.9667693086,MP-Perception Experiment,xx27w24,
413,tmp_numprim(3)_final(3).webm,False,left,2,training(34).webm,0,94,94,39,,,,,,,,15:50:57:051,15:50:57:880,15:51:00:883,left,15:51:01:317,,2013_Jan_05_1508,59.9667693086,MP-Perception Experiment,xx27w24,
414,training(7).webm,True,right,2,vcgpdm_dyn(10)-lvm(25)_final(4).webm,0,95,95,99,,,,,,,,15:51:02:143,15:51:02:818,15:51:05:821,right,15:51:06:371,,2013_Jan_05_1508,59.9667693086,MP-Perception Experiment,xx27w24,
415,training(41).webm,False,right,2,tmp_numprim(3)_final(7).webm,0,96,96,61,,,,,,,,15:51:07:220,15:51:07:872,15:51:10:875,right,15:51:11:292,,2013_Jan_05_1508,59.9667693086,MP-Perception Experiment,xx27w24,
416,training(40).webm,True,right,2,vgpdm_dyn(35)-lvm(25)_final(8).webm,0,97,97,83,,,,,,,,15:51:12:137,15:51:12:793,15:51:15:793,right,15:51:16:260,,2013_Jan_05_1508,59.9667693086,MP-Perception Experiment,xx27w24,
417,vgpdm_dyn(25)-lvm(5)_final(3).webm,True,left,2,training(21).webm,0,98,98,62,,,,,,,,15:51:17:065,15:51:17:763,15:51:20:765,left,15:51:21:265,,2013_Jan_05_1508,59.9667693086,MP-Perception Experiment,xx27w24,
418,vcgpdm_dyn(35)-lvm(5)_final(0).webm,False,left,2,training(13).webm,0,99,99,154,,,,,,,,15:51:21:945,15:51:22:783,15:51:25:769,left,15:51:26:086,,2013_Jan_05_1508,59.9667693086,MP-Perception Experiment,xx27w24,
419,training(2).webm,False,right,2,vgpdm_dyn(35)-lvm(35)_final(2).webm,0,100,100,109,,,,,,,,15:51:26:764,15:51:27:587,15:51:30:575,right,15:51:30:942,,2013_Jan_05_1508,59.9667693086,MP-Perception Experiment,xx27w24,
420,vcgpdm_dyn(15)-lvm(35)_final(6).webm,False,left,2,training(48).webm,0,101,101,92,,,,,,,,15:51:31:621,15:51:32:443,15:51:35:447,left,15:51:35:847,,2013_Jan_05_1508,59.9667693086,MP-Perception Experiment,xx27w24,
421,training(6).webm,False,right,2,vcgpdm_dyn(25)-lvm(5)_final(0).webm,0,102,102,16,,,,,,,,15:51:36:526,15:51:37:348,15:51:40:350,right,15:51:40:684,,2013_Jan_05_1508,59.9667693086,MP-Perception Experiment,xx27w24,
422,vgpdm_dyn(35)-lvm(35)_final(9).webm,True,left,2,training(6).webm,0,103,103,64,,,,,,,,15:51:41:468,15:51:42:185,15:51:45:188,left,15:51:45:588,,2013_Jan_05_1508,59.9667693086,MP-Perception Experiment,xx27w24,
423,tmp_numprim(4)_final(6).webm,True,left,2,training(12).webm,0,104,104,40,,,,,,,,15:51:46:267,15:51:47:089,15:51:50:092,left,15:51:50:509,,2013_Jan_05_1508,59.9667693086,MP-Perception Experiment,xx27w24,
424,vcgpdm_dyn(25)-lvm(15)_final(1).webm,True,left,2,training(31).webm,0,105,105,81,,,,,,,,15:51:51:182,15:51:52:010,15:51:55:013,left,15:51:55:480,,2013_Jan_05_1508,59.9667693086,MP-Perception Experiment,xx27w24,
425,vcgpdm_dyn(25)-lvm(5)_final(8).webm,False,left,2,training(37).webm,0,106,106,15,,,,,,,,15:51:56:350,15:51:56:981,15:51:59:984,right,15:52:00:501,,2013_Jan_05_1508,59.9667693086,MP-Perception Experiment,xx27w24,
426,training(7).webm,False,right,2,vgpdm_dyn(5)-lvm(20)_final(2).webm,0,107,107,142,,,,,,,,15:52:01:346,15:52:02:002,15:52:05:003,right,15:52:05:587,,2013_Jan_05_1508,59.9667693086,MP-Perception Experiment,xx27w24,
427,training(0).webm,True,right,2,vcgpdm_dyn(5)-lvm(10)_final(6).webm,0,108,108,82,,,,,,,,15:52:06:261,15:52:07:088,15:52:10:091,right,15:52:10:642,,2013_Jan_05_1508,59.9667693086,MP-Perception Experiment,xx27w24,
428,vgpdm_dyn(15)-lvm(15)_final(1).webm,False,left,2,training(14).webm,0,109,109,13,,,,,,,,15:52:11:449,15:52:12:143,15:52:15:130,left,15:52:15:831,,2013_Jan_05_1508,59.9667693086,MP-Perception Experiment,xx27w24,
429,training(12).webm,False,right,2,vcgpdm_dyn(5)-lvm(25)_final(7).webm,0,110,110,151,,,,,,,,15:52:16:687,15:52:17:332,15:52:20:335,right,15:52:20:635,,2013_Jan_05_1508,59.9667693086,MP-Perception Experiment,xx27w24,
430,vcgpdm_dyn(25)-lvm(35)_final(1).webm,False,left,2,training(37).webm,0,111,111,91,,,,,,,,15:52:21:464,15:52:22:136,15:52:25:139,left,15:52:25:489,,2013_Jan_05_1508,59.9667693086,MP-Perception Experiment,xx27w24,
431,training(41).webm,False,right,2,vgpdm_dyn(15)-lvm(25)_final(0).webm,0,112,112,17,,,,,,,,15:52:26:164,15:52:26:990,15:52:29:994,right,15:52:30:327,,2013_Jan_05_1508,59.9667693086,MP-Perception Experiment,xx27w24,
432,vgpdm_dyn(30)-lvm(10)_final(6).webm,False,left,2,training(7).webm,0,113,113,19,,,,,,,,15:52:31:050,15:52:31:845,15:52:34:831,left,15:52:35:198,,2013_Jan_05_1508,59.9667693086,MP-Perception Experiment,xx27w24,
433,training(21).webm,True,right,2,vgpdm_dyn(35)-lvm(25)_final(7).webm,0,114,114,135,,,,,,,,15:52:35:869,15:52:36:699,15:52:39:701,right,15:52:40:185,,2013_Jan_05_1508,59.9667693086,MP-Perception Experiment,xx27w24,
434,vcgpdm_dyn(35)-lvm(20)_final(7).webm,True,left,2,training(6).webm,0,115,115,95,,,,,,,,15:52:41:035,15:52:41:686,15:52:44:689,left,15:52:45:023,,2013_Jan_05_1508,59.9667693086,MP-Perception Experiment,xx27w24,
435,vgpdm_dyn(15)-lvm(5)_final(8).webm,False,left,2,training(5).webm,0,116,116,150,,,,,,,,15:52:45:788,15:52:46:524,15:52:49:527,left,15:52:50:027,,2013_Jan_05_1508,59.9667693086,MP-Perception Experiment,xx27w24,
436,tmp_numprim(8)_final(1).webm,True,left,2,training(23).webm,0,117,117,124,,,,,,,,15:52:50:708,15:52:51:528,15:52:54:529,left,15:52:55:030,,2013_Jan_05_1508,59.9667693086,MP-Perception Experiment,xx27w24,
437,training(23).webm,True,right,2,map_gpdm_final(2).webm,0,118,118,116,,,,,,,,15:52:55:709,15:52:56:531,15:52:59:533,right,15:52:59:984,,2013_Jan_05_1508,59.9667693086,MP-Perception Experiment,xx27w24,
438,training(11).webm,True,right,2,dmp_npsi(40)_final(4).webm,0,119,119,34,,,,,,,,15:53:00:689,15:53:01:485,15:53:04:488,right,15:53:04:905,,2013_Jan_05_1508,59.9667693086,MP-Perception Experiment,xx27w24,
439,training(0).webm,False,right,2,vcgpdm_dyn(10)-lvm(20)_final(2).webm,0,120,120,98,,,,,,,,15:53:05:718,15:53:06:406,15:53:09:394,right,15:53:09:894,,2013_Jan_05_1508,59.9667693086,MP-Perception Experiment,xx27w24,
440,vcgpdm_dyn(15)-lvm(30)_final(5).webm,True,left,2,training(48).webm,0,121,121,70,,,,,,,,15:53:10:567,15:53:11:395,15:53:14:398,left,15:53:14:848,,2013_Jan_05_1508,59.9667693086,MP-Perception Experiment,xx27w24,
441,training(41).webm,False,right,2,vcgpdm_dyn(5)-lvm(5)_final(5).webm,0,122,122,28,,,,,,,,15:53:15:525,15:53:16:349,15:53:19:352,right,15:53:19:736,,2013_Jan_05_1508,59.9667693086,MP-Perception Experiment,xx27w24,
442,map_gpdm_final(1).webm,True,left,2,training(8).webm,0,123,123,121,,,,,,,,15:53:20:411,15:53:21:238,15:53:24:240,left,15:53:24:657,,2013_Jan_05_1508,59.9667693086,MP-Perception Experiment,xx27w24,
443,training(36).webm,True,right,2,vgpdm_dyn(30)-lvm(10)_final(8).webm,0,124,124,84,,,,,,,,15:53:25:335,15:53:26:158,15:53:29:161,right,15:53:29:611,,2013_Jan_05_1508,59.9667693086,MP-Perception Experiment,xx27w24,
444,vcgpdm_dyn(25)-lvm(5)_final(6).webm,False,left,2,training(35).webm,0,125,125,134,,,,,,,,15:53:30:286,15:53:31:112,15:53:34:115,left,15:53:34:632,,2013_Jan_05_1508,59.9667693086,MP-Perception Experiment,xx27w24,
445,dmp_npsi(30)_final(8).webm,True,left,2,training(0).webm,0,126,126,32,,,,,,,,15:53:35:315,15:53:36:133,15:53:39:137,left,15:53:39:487,,2013_Jan_05_1508,59.9667693086,MP-Perception Experiment,xx27w24,
446,vgpdm_dyn(35)-lvm(10)_final(3).webm,False,left,2,training(26).webm,0,127,127,65,,,,,,,,15:53:40:158,15:53:40:988,15:53:43:989,right,15:53:44:356,,2013_Jan_05_1508,59.9667693086,MP-Perception Experiment,xx27w24,
447,vcgpdm_dyn(30)-lvm(30)_final(6).webm,False,left,2,training(29).webm,0,128,128,60,,,,,,,,15:53:45:200,15:53:45:857,15:53:48:859,left,15:53:49:426,,2013_Jan_05_1508,59.9667693086,MP-Perception Experiment,xx27w24,
448,training(7).webm,False,right,2,map_cgpdm_final(7).webm,0,129,129,36,,,,,,,,15:53:50:106,15:53:50:928,15:53:53:930,right,15:53:54:414,,2013_Jan_05_1508,59.9667693086,MP-Perception Experiment,xx27w24,
449,tmp_numprim(9)_final(7).webm,True,left,2,training(22).webm,0,130,130,86,,,,,,,,15:53:55:260,15:53:55:918,15:53:58:904,left,15:53:59:437,,2013_Jan_05_1508,59.9667693086,MP-Perception Experiment,xx27w24,
450,training(10).webm,True,right,2,vgpdm_dyn(10)-lvm(15)_final(9).webm,0,131,131,141,,,,,,,,15:54:00:116,15:54:00:938,15:54:03:941,left,15:54:04:475,,2013_Jan_05_1508,59.9667693086,MP-Perception Experiment,xx27w24,
451,training(38).webm,False,right,2,vgpdm_dyn(20)-lvm(30)_final(4).webm,0,132,132,80,,,,,,,,15:54:05:148,15:54:05:976,15:54:08:978,right,15:54:09:329,,2013_Jan_05_1508,59.9667693086,MP-Perception Experiment,xx27w24,
452,dmp_npsi(35)_final(2).webm,True,left,2,training(41).webm,0,133,133,143,,,,,,,,15:54:10:030,15:54:10:830,15:54:13:833,left,15:54:14:250,,2013_Jan_05_1508,59.9667693086,MP-Perception Experiment,xx27w24,
453,vcgpdm_dyn(30)-lvm(35)_final(9).webm,True,left,2,training(35).webm,0,134,134,41,,,,,,,,15:54:14:926,15:54:15:751,15:54:18:754,left,15:54:19:121,,2013_Jan_05_1508,59.9667693086,MP-Perception Experiment,xx27w24,
454,training(20).webm,False,right,2,vcgpdm_dyn(5)-lvm(15)_final(1).webm,0,135,135,54,,,,,,,,15:54:19:805,15:54:20:622,15:54:23:625,right,15:54:23:975,,2013_Jan_05_1508,59.9667693086,MP-Perception Experiment,xx27w24,
455,vgpdm_dyn(5)-lvm(25)_final(6)_out_of_screen.webm,False,left,2,training(25).webm,0,136,136,69,,,,,,,,15:54:24:668,15:54:25:476,15:54:28:479,left,15:54:28:912,,2013_Jan_05_1508,59.9667693086,MP-Perception Experiment,xx27w24,
456,vgpdm_dyn(15)-lvm(10)_final(5)_out_of_screen.webm,False,left,2,training(2).webm,0,137,137,11,,,,,,,,15:54:29:588,15:54:30:414,15:54:33:417,left,15:54:33:832,,2013_Jan_05_1508,59.9667693086,MP-Perception Experiment,xx27w24,
457,training(15).webm,True,right,2,tmp_numprim(10)_final(5).webm,0,138,138,126,,,,,,,,15:54:34:679,15:54:35:333,15:54:38:336,left,15:54:38:703,,2013_Jan_05_1508,59.9667693086,MP-Perception Experiment,xx27w24,
458,vcgpdm_dyn(10)-lvm(5)_final(0).webm,True,left,2,training(33).webm,0,139,139,51,,,,,,,,15:54:39:381,15:54:40:204,15:54:43:206,left,15:54:43:557,,2013_Jan_05_1508,59.9667693086,MP-Perception Experiment,xx27w24,
459,vcgpdm_dyn(10)-lvm(10)_final(9).webm,True,left,2,training(29).webm,0,140,140,0,,,,,,,,15:54:44:403,15:54:45:059,15:54:48:046,left,15:54:48:380,,2013_Jan_05_1508,59.9667693086,MP-Perception Experiment,xx27w24,
460,training(17).webm,True,right,2,vcgpdm_dyn(20)-lvm(10)_final(6).webm,0,141,141,128,,,,,,,,15:54:49:056,15:54:49:881,15:54:52:884,right,15:54:53:301,,2013_Jan_05_1508,59.9667693086,MP-Perception Experiment,xx27w24,
461,training(10).webm,False,right,2,vcgpdm_dyn(15)-lvm(25)_final(4).webm,0,142,142,149,,,,,,,,15:54:53:980,15:54:54:802,15:54:57:804,right,15:54:58:171,,2013_Jan_05_1508,59.9667693086,MP-Perception Experiment,xx27w24,
462,training(5).webm,True,right,2,vgpdm_dyn(35)-lvm(35)_final(9).webm,0,143,143,138,,,,,,,,15:54:58:841,15:54:59:672,15:55:02:675,right,15:55:03:025,,2013_Jan_05_1508,59.9667693086,MP-Perception Experiment,xx27w24,
463,training(48).webm,False,right,2,dmp_npsi(25)_final(0).webm,0,144,144,77,,,,,,,,15:55:03:696,15:55:04:526,15:55:07:530,right,15:55:08:731,,2013_Jan_05_1508,59.9667693086,MP-Perception Experiment,xx27w24,
464,training(11).webm,True,right,2,dmp_npsi(45)_final(3).webm,0,145,145,120,,,,,,,,15:55:09:413,15:55:10:232,15:55:13:234,left,15:55:13:618,,2013_Jan_05_1508,59.9667693086,MP-Perception Experiment,xx27w24,
465,training(5).webm,True,right,2,vgpdm_dyn(30)-lvm(15)_final(7).webm,0,146,146,114,,,,,,,,15:55:14:290,15:55:15:119,15:55:18:122,right,15:55:18:489,,2013_Jan_05_1508,59.9667693086,MP-Perception Experiment,xx27w24,
466,vgpdm_dyn(30)-lvm(5)_final(6).webm,True,left,2,training(35).webm,0,147,147,130,,,,,,,,15:55:19:163,15:55:19:990,15:55:22:993,left,15:55:23:427,,2013_Jan_05_1508,59.9667693086,MP-Perception Experiment,xx27w24,
467,training(16).webm,True,right,2,vgpdm_dyn(15)-lvm(30)_final(9).webm,0,148,148,140,,,,,,,,15:55:24:116,15:55:24:943,15:55:27:945,right,15:55:28:329,,2013_Jan_05_1508,59.9667693086,MP-Perception Experiment,xx27w24,
468,vgpdm_dyn(25)-lvm(35)_final(5).webm,True,left,2,training(34).webm,0,149,149,125,,,,,,,,15:55:29:033,15:55:29:830,15:55:32:833,right,15:55:33:200,,2013_Jan_05_1508,59.9667693086,MP-Perception Experiment,xx27w24,
