trial_number,right,flipped,correct,block,left,trials.thisRepN,trials.thisTrialN,trials.thisN,trials.thisIndex,flipwelcome.keys,flipwelcome.corr,flipwelcome.rt,flippreparations.keys,flippreparations.rt,flipInstructions.keys,flipInstructions.rt,time_at_fixation_cross_onset,time_at_videoonset,time_at_videoend,participant_key_response,time_at_key_response,key_resp_4.keys,date,frameRate,expName,participant,
,,,,,,,,,,space,0,136.483941704,,,,,,,,,,,2013_Jan_11_1038,59.9494278358,MP-Perception Experiment,xx28m21,
,,,,,,,,,,,,,space,48.0574655663,,,,,,,,,2013_Jan_11_1038,59.9494278358,MP-Perception Experiment,xx28m21,
,,,,,,,,,,,,,,,space,40.8346829315,,,,,,,2013_Jan_11_1038,59.9494278358,MP-Perception Experiment,xx28m21,
1,vgpdm_dyn(15)-lvm(15)_final(2).webm,True,left,0,training(20).webm,0,0,0,77,,,,,,,,10:42:20:864,10:42:21:367,10:42:23:936,right,10:42:25:271,,2013_Jan_11_1038,59.9494278358,MP-Perception Experiment,xx28m21,
2,vcgpdm_dyn(5)-lvm(10)_final(7).webm,False,left,0,training(4).webm,0,1,1,133,,,,,,,,10:42:25:955,10:42:26:772,10:42:29:774,right,10:42:30:992,,2013_Jan_11_1038,59.9494278358,MP-Perception Experiment,xx28m21,
3,training(8).webm,False,right,0,vcgpdm_dyn(15)-lvm(30)_final(3).webm,0,2,2,31,,,,,,,,10:42:31:845,10:42:32:493,10:42:35:496,right,10:42:36:313,,2013_Jan_11_1038,59.9494278358,MP-Perception Experiment,xx28m21,
4,training(30).webm,False,right,0,tmp_numprim(6)_final(1).webm,0,3,3,55,,,,,,,,10:42:37:010,10:42:37:815,10:42:40:817,left,10:42:43:768,,2013_Jan_11_1038,59.9494278358,MP-Perception Experiment,xx28m21,
5,vgpdm_dyn(30)-lvm(20)_final(1).webm,True,left,0,training(23).webm,0,4,4,26,,,,,,,,10:42:44:451,10:42:45:269,10:42:48:272,left,10:42:48:705,,2013_Jan_11_1038,59.9494278358,MP-Perception Experiment,xx28m21,
6,training(37).webm,False,right,0,map_gpdm_final(8).webm,0,5,5,137,,,,,,,,10:42:49:500,10:42:50:206,10:42:53:209,right,10:42:53:559,,2013_Jan_11_1038,59.9494278358,MP-Perception Experiment,xx28m21,
7,training(4).webm,True,right,0,vcgpdm_dyn(35)-lvm(25)_final(8).webm,0,6,6,27,,,,,,,,10:42:54:247,10:42:55:063,10:42:58:049,left,10:42:59:834,,2013_Jan_11_1038,59.9494278358,MP-Perception Experiment,xx28m21,
8,vgpdm_dyn(15)-lvm(30)_final(1).webm,False,left,0,training(7).webm,0,7,7,6,,,,,,,,10:43:00:688,10:43:01:335,10:43:04:337,left,10:43:05:005,,2013_Jan_11_1038,59.9494278358,MP-Perception Experiment,xx28m21,
9,vgpdm_dyn(15)-lvm(35)_final(9).webm,False,left,0,training(16).webm,0,8,8,132,,,,,,,,10:43:05:685,10:43:06:506,10:43:09:508,left,10:43:10:175,,2013_Jan_11_1038,59.9494278358,MP-Perception Experiment,xx28m21,
10,vcgpdm_dyn(25)-lvm(15)_final(8).webm,True,left,0,training(3).webm,0,9,9,131,,,,,,,,10:43:10:858,10:43:11:677,10:43:14:680,left,10:43:16:965,,2013_Jan_11_1038,59.9494278358,MP-Perception Experiment,xx28m21,
11,training(24).webm,True,right,0,vgpdm_dyn(10)-lvm(30)_final(6).webm,0,10,10,23,,,,,,,,10:43:17:656,10:43:18:466,10:43:21:469,right,10:43:22:336,,2013_Jan_11_1038,59.9494278358,MP-Perception Experiment,xx28m21,
12,vcgpdm_dyn(5)-lvm(10)_final(1).webm,True,left,0,training(17).webm,0,11,11,2,,,,,,,,10:43:23:170,10:43:23:837,10:43:26:840,left,10:43:27:707,,2013_Jan_11_1038,59.9494278358,MP-Perception Experiment,xx28m21,
13,training(33).webm,False,right,0,tmp_numprim(4)_final(6).webm,0,12,12,90,,,,,,,,10:43:28:561,10:43:29:208,10:43:32:212,right,10:43:33:311,,2013_Jan_11_1038,59.9494278358,MP-Perception Experiment,xx28m21,
14,vcgpdm_dyn(20)-lvm(5)_final(2).webm,False,left,0,training(33).webm,0,13,13,153,,,,,,,,10:43:34:080,10:43:34:812,10:43:37:815,right,10:43:38:248,,2013_Jan_11_1038,59.9494278358,MP-Perception Experiment,xx28m21,
15,training(26).webm,False,right,0,vcgpdm_dyn(10)-lvm(30)_final(4).webm,0,14,14,146,,,,,,,,10:43:39:116,10:43:39:749,10:43:42:752,right,10:43:43:402,,2013_Jan_11_1038,59.9494278358,MP-Perception Experiment,xx28m21,
16,training(22).webm,True,right,0,vcgpdm_dyn(10)-lvm(10)_final(5).webm,0,15,15,21,,,,,,,,10:43:44:255,10:43:44:905,10:43:47:892,right,10:43:48:626,,2013_Jan_11_1038,59.9494278358,MP-Perception Experiment,xx28m21,
17,vgpdm_dyn(15)-lvm(25)_final(2).webm,False,left,0,training(41).webm,0,16,16,32,,,,,,,,10:43:49:309,10:43:50:127,10:43:53:130,left,10:43:53:513,,2013_Jan_11_1038,59.9494278358,MP-Perception Experiment,xx28m21,
18,vgpdm_dyn(20)-lvm(30)_final(8).webm,False,left,0,training(35).webm,0,17,17,39,,,,,,,,10:43:54:200,10:43:55:015,10:43:58:017,left,10:43:58:417,,2013_Jan_11_1038,59.9494278358,MP-Perception Experiment,xx28m21,
19,training(0).webm,True,right,0,vcgpdm_dyn(15)-lvm(20)_final(0).webm,0,18,18,145,,,,,,,,10:43:59:102,10:43:59:918,10:44:02:921,left,10:44:04:089,,2013_Jan_11_1038,59.9494278358,MP-Perception Experiment,xx28m21,
20,vcgpdm_dyn(25)-lvm(25)_final(9).webm,False,left,0,training(24).webm,0,19,19,147,,,,,,,,10:44:04:817,10:44:05:591,10:44:08:593,right,10:44:10:979,,2013_Jan_11_1038,59.9494278358,MP-Perception Experiment,xx28m21,
21,vgpdm_dyn(35)-lvm(10)_final(0).webm,True,left,0,training(13).webm,0,20,20,5,,,,,,,,10:44:11:829,10:44:12:480,10:44:15:482,left,10:44:16:400,,2013_Jan_11_1038,59.9494278358,MP-Perception Experiment,xx28m21,
22,vcgpdm_dyn(15)-lvm(25)_final(0).webm,True,left,0,training(48).webm,0,21,21,47,,,,,,,,10:44:17:083,10:44:17:901,10:44:20:903,left,10:44:22:055,,2013_Jan_11_1038,59.9494278358,MP-Perception Experiment,xx28m21,
23,training(38).webm,True,right,0,vgpdm_dyn(15)-lvm(30)_final(3).webm,0,22,22,100,,,,,,,,10:44:22:734,10:44:23:571,10:44:26:557,right,10:44:27:057,,2013_Jan_11_1038,59.9494278358,MP-Perception Experiment,xx28m21,
24,vcgpdm_dyn(10)-lvm(30)_final(7).webm,True,left,0,training(11).webm,0,23,23,61,,,,,,,,10:44:27:741,10:44:28:559,10:44:31:561,left,10:44:31:961,,2013_Jan_11_1038,59.9494278358,MP-Perception Experiment,xx28m21,
25,vcgpdm_dyn(30)-lvm(5)_final(2).webm,False,left,0,training(30).webm,0,24,24,75,,,,,,,,10:44:32:642,10:44:33:462,10:44:36:450,right,10:44:37:184,,2013_Jan_11_1038,59.9494278358,MP-Perception Experiment,xx28m21,
26,training(30).webm,True,right,0,vgpdm_dyn(5)-lvm(15)_final(6).webm,0,25,25,114,,,,,,,,10:44:37:866,10:44:38:685,10:44:41:689,right,10:44:43:340,,2013_Jan_11_1038,59.9494278358,MP-Perception Experiment,xx28m21,
27,training(32).webm,True,right,0,dmp_npsi(50)_final(1).webm,0,26,26,91,,,,,,,,10:44:44:032,10:44:44:841,10:44:47:844,left,10:44:48:461,,2013_Jan_11_1038,59.9494278358,MP-Perception Experiment,xx28m21,
28,vcgpdm_dyn(30)-lvm(25)_final(3).webm,False,left,0,training(21).webm,0,27,27,140,,,,,,,,10:44:49:147,10:44:49:962,10:44:52:964,left,10:44:53:365,,2013_Jan_11_1038,59.9494278358,MP-Perception Experiment,xx28m21,
29,map_gpdm_final(3).webm,True,left,0,training(4).webm,0,28,28,10,,,,,,,,10:44:54:043,10:44:54:866,10:44:57:869,left,10:44:58:253,,2013_Jan_11_1038,59.9494278358,MP-Perception Experiment,xx28m21,
30,training(38).webm,False,right,0,vgpdm_dyn(30)-lvm(15)_final(7).webm,0,29,29,74,,,,,,,,10:44:58:935,10:44:59:754,10:45:02:757,left,10:45:03:240,,2013_Jan_11_1038,59.9494278358,MP-Perception Experiment,xx28m21,
31,training(26).webm,True,right,0,vgpdm_dyn(35)-lvm(35)_final(7).webm,0,30,30,121,,,,,,,,10:45:03:919,10:45:04:741,10:45:07:744,right,10:45:08:244,,2013_Jan_11_1038,59.9494278358,MP-Perception Experiment,xx28m21,
32,training(2).webm,False,right,0,vgpdm_dyn(25)-lvm(30)_final(8).webm,0,31,31,83,,,,,,,,10:45:08:929,10:45:09:746,10:45:12:748,right,10:45:13:098,,2013_Jan_11_1038,59.9494278358,MP-Perception Experiment,xx28m21,
33,vcgpdm_dyn(35)-lvm(10)_final(6).webm,False,left,0,training(37).webm,0,32,32,123,,,,,,,,10:45:13:790,10:45:14:615,10:45:17:618,left,10:45:17:968,,2013_Jan_11_1038,59.9494278358,MP-Perception Experiment,xx28m21,
34,training(26).webm,True,right,0,dmp_npsi(20)_final(0).webm,0,33,33,141,,,,,,,,10:45:18:790,10:45:19:469,10:45:22:472,right,10:45:23:906,,2013_Jan_11_1038,59.9494278358,MP-Perception Experiment,xx28m21,
35,training(32).webm,True,right,0,vcgpdm_dyn(25)-lvm(30)_final(0).webm,0,34,34,85,,,,,,,,10:45:24:587,10:45:25:409,10:45:28:395,right,10:45:28:779,,2013_Jan_11_1038,59.9494278358,MP-Perception Experiment,xx28m21,
36,vcgpdm_dyn(5)-lvm(20)_final(0).webm,False,left,0,training(3).webm,0,35,35,102,,,,,,,,10:45:29:453,10:45:30:280,10:45:33:283,left,10:45:33:650,,2013_Jan_11_1038,59.9494278358,MP-Perception Experiment,xx28m21,
37,training(2).webm,True,right,0,tmp_numprim(3)_final(8).webm,0,36,36,64,,,,,,,,10:45:34:326,10:45:35:151,10:45:38:154,right,10:45:38:554,,2013_Jan_11_1038,59.9494278358,MP-Perception Experiment,xx28m21,
38,training(2).webm,False,right,0,vcgpdm_dyn(20)-lvm(30)_final(1).webm,0,37,37,29,,,,,,,,10:45:39:400,10:45:40:055,10:45:43:058,right,10:45:43:441,,2013_Jan_11_1038,59.9494278358,MP-Perception Experiment,xx28m21,
39,training(17).webm,True,right,0,map_gpdm_final(0).webm,0,38,38,103,,,,,,,,10:45:44:302,10:45:44:943,10:45:47:945,right,10:45:48:379,,2013_Jan_11_1038,59.9494278358,MP-Perception Experiment,xx28m21,
40,training(7).webm,False,right,0,vcgpdm_dyn(10)-lvm(35)_final(4).webm,0,39,39,158,,,,,,,,10:45:49:224,10:45:49:881,10:45:52:883,right,10:45:53:400,,2013_Jan_11_1038,59.9494278358,MP-Perception Experiment,xx28m21,
41,tmp_numprim(3)_final(9).webm,False,left,0,training(22).webm,0,40,40,60,,,,,,,,10:45:54:078,10:45:54:902,10:45:57:904,left,10:45:58:438,,2013_Jan_11_1038,59.9494278358,MP-Perception Experiment,xx28m21,
42,training(17).webm,True,right,0,vgpdm_dyn(35)-lvm(25)_final(7).webm,0,41,41,107,,,,,,,,10:45:59:260,10:45:59:939,10:46:02:942,left,10:46:03:490,,2013_Jan_11_1038,59.9494278358,MP-Perception Experiment,xx28m21,
43,vcgpdm_dyn(30)-lvm(30)_final(2).webm,True,left,0,training(32).webm,0,42,42,115,,,,,,,,10:46:04:346,10:46:04:991,10:46:07:995,left,10:46:08:295,,2013_Jan_11_1038,59.9494278358,MP-Perception Experiment,xx28m21,
44,training(29).webm,False,right,0,vgpdm_dyn(10)-lvm(35)_final(3).webm,0,43,43,46,,,,,,,,10:46:09:145,10:46:09:796,10:46:12:799,right,10:46:13:699,,2013_Jan_11_1038,59.9494278358,MP-Perception Experiment,xx28m21,
45,vcgpdm_dyn(5)-lvm(10)_final(4).webm,True,left,0,training(29).webm,0,44,44,36,,,,,,,,10:46:14:543,10:46:15:202,10:46:18:188,left,10:46:19:039,,2013_Jan_11_1038,59.9494278358,MP-Perception Experiment,xx28m21,
46,training(19).webm,False,right,0,vgpdm_dyn(10)-lvm(15)_final(1).webm,0,45,45,43,,,,,,,,10:46:19:850,10:46:20:540,10:46:23:543,right,10:46:24:661,,2013_Jan_11_1038,59.9494278358,MP-Perception Experiment,xx28m21,
47,training(41).webm,True,right,0,vgpdm_dyn(35)-lvm(25)_final(8).webm,0,46,46,20,,,,,,,,10:46:25:502,10:46:26:162,10:46:29:165,right,10:46:30:082,,2013_Jan_11_1038,59.9494278358,MP-Perception Experiment,xx28m21,
48,training(6).webm,True,right,0,vcgpdm_dyn(30)-lvm(15)_final(7).webm,0,47,47,95,,,,,,,,10:46:30:798,10:46:31:583,10:46:34:586,right,10:46:34:919,,2013_Jan_11_1038,59.9494278358,MP-Perception Experiment,xx28m21,
49,training(3).webm,True,right,0,vcgpdm_dyn(25)-lvm(30)_final(3).webm,0,48,48,122,,,,,,,,10:46:35:766,10:46:36:420,10:46:39:423,right,10:46:39:723,,2013_Jan_11_1038,59.9494278358,MP-Perception Experiment,xx28m21,
50,vgpdm_dyn(35)-lvm(10)_final(4).webm,False,left,0,training(4).webm,0,49,49,45,,,,,,,,10:46:40:531,10:46:41:224,10:46:44:228,right,10:46:45:312,,2013_Jan_11_1038,59.9494278358,MP-Perception Experiment,xx28m21,
51,tmp_numprim(4)_final(1).webm,True,left,0,training(19).webm,0,50,50,70,,,,,,,,10:46:46:179,10:46:46:813,10:46:49:816,left,10:46:50:283,,2013_Jan_11_1038,59.9494278358,MP-Perception Experiment,xx28m21,
52,vcgpdm_dyn(30)-lvm(30)_final(5).webm,False,left,0,training(24).webm,0,51,51,106,,,,,,,,10:46:51:058,10:46:51:784,10:46:54:785,left,10:46:55:418,,2013_Jan_11_1038,59.9494278358,MP-Perception Experiment,xx28m21,
53,training(34).webm,False,right,0,vcgpdm_dyn(5)-lvm(15)_final(6).webm,0,52,52,66,,,,,,,,10:46:56:266,10:46:56:920,10:46:59:923,left,10:47:00:440,,2013_Jan_11_1038,59.9494278358,MP-Perception Experiment,xx28m21,
54,training(8).webm,True,right,0,vcgpdm_dyn(20)-lvm(15)_final(5).webm,0,53,53,144,,,,,,,,10:47:01:248,10:47:01:941,10:47:04:929,right,10:47:06:313,,2013_Jan_11_1038,59.9494278358,MP-Perception Experiment,xx28m21,
55,vgpdm_dyn(35)-lvm(35)_final(9).webm,False,left,0,training(12).webm,0,54,54,150,,,,,,,,10:47:06:997,10:47:07:814,10:47:10:817,left,10:47:11:618,,2013_Jan_11_1038,59.9494278358,MP-Perception Experiment,xx28m21,
56,tmp_numprim(7)_final(5).webm,True,left,0,training(28).webm,0,55,55,38,,,,,,,,10:47:12:301,10:47:13:119,10:47:16:121,right,10:47:16:656,,2013_Jan_11_1038,59.9494278358,MP-Perception Experiment,xx28m21,
57,training(21).webm,False,right,0,vgpdm_dyn(10)-lvm(20)_final(2).webm,0,56,56,134,,,,,,,,10:47:17:335,10:47:18:157,10:47:21:160,right,10:47:22:361,,2013_Jan_11_1038,59.9494278358,MP-Perception Experiment,xx28m21,
58,training(1).webm,True,right,0,vcgpdm_dyn(35)-lvm(10)_final(7).webm,0,57,57,119,,,,,,,,10:47:23:042,10:47:23:862,10:47:26:864,right,10:47:27:365,,2013_Jan_11_1038,59.9494278358,MP-Perception Experiment,xx28m21,
59,vcgpdm_dyn(15)-lvm(15)_final(8).webm,False,left,0,training(39).webm,0,58,58,71,,,,,,,,10:47:28:047,10:47:28:866,10:47:31:868,left,10:47:32:802,,2013_Jan_11_1038,59.9494278358,MP-Perception Experiment,xx28m21,
60,vgpdm_dyn(20)-lvm(5)_final(2).webm,False,left,0,training(3).webm,0,59,59,86,,,,,,,,10:47:33:479,10:47:34:304,10:47:37:307,left,10:47:37:824,,2013_Jan_11_1038,59.9494278358,MP-Perception Experiment,xx28m21,
61,training(16).webm,False,right,0,map_cgpdm_final(2).webm,0,60,60,93,,,,,,,,10:47:38:507,10:47:39:325,10:47:42:328,right,10:47:43:560,,2013_Jan_11_1038,59.9494278358,MP-Perception Experiment,xx28m21,
62,training(1).webm,True,right,0,vcgpdm_dyn(20)-lvm(15)_final(3).webm,0,61,61,149,,,,,,,,10:47:44:241,10:47:45:061,10:47:48:064,right,10:47:50:366,,2013_Jan_11_1038,59.9494278358,MP-Perception Experiment,xx28m21,
63,vcgpdm_dyn(5)-lvm(5)_final(0).webm,True,left,0,training(27).webm,0,62,62,76,,,,,,,,10:47:51:206,10:47:51:868,10:47:54:872,left,10:47:55:373,,2013_Jan_11_1038,59.9494278358,MP-Perception Experiment,xx28m21,
64,training(9).webm,True,right,0,vgpdm_dyn(25)-lvm(30)_final(5).webm,0,63,63,58,,,,,,,,10:47:56:220,10:47:56:874,10:47:59:876,left,10:48:00:227,,2013_Jan_11_1038,59.9494278358,MP-Perception Experiment,xx28m21,
65,training(24).webm,True,right,0,vgpdm_dyn(15)-lvm(5)_final(7).webm,0,64,64,80,,,,,,,,10:48:00:905,10:48:01:728,10:48:04:730,left,10:48:06:048,,2013_Jan_11_1038,59.9494278358,MP-Perception Experiment,xx28m21,
66,training(17).webm,True,right,0,vgpdm_dyn(15)-lvm(35)_final(2).webm,0,65,65,33,,,,,,,,10:48:06:724,10:48:07:549,10:48:10:553,left,10:48:11:920,,2013_Jan_11_1038,59.9494278358,MP-Perception Experiment,xx28m21,
67,training(25).webm,False,right,0,vgpdm_dyn(30)-lvm(5)_final(6).webm,0,66,66,57,,,,,,,,10:48:12:767,10:48:13:421,10:48:16:424,right,10:48:16:841,,2013_Jan_11_1038,59.9494278358,MP-Perception Experiment,xx28m21,
68,vgpdm_dyn(30)-lvm(20)_final(5).webm,True,left,0,training(15).webm,0,67,67,13,,,,,,,,10:48:17:529,10:48:18:359,10:48:21:345,right,10:48:21:661,,2013_Jan_11_1038,59.9494278358,MP-Perception Experiment,xx28m21,
69,training(1).webm,True,right,0,vcgpdm_dyn(20)-lvm(35)_final(8).webm,0,68,68,56,,,,,,,,10:48:22:506,10:48:23:163,10:48:26:165,right,10:48:26:465,,2013_Jan_11_1038,59.9494278358,MP-Perception Experiment,xx28m21,
70,training(18).webm,False,right,0,tmp_numprim(10)_final(5).webm,0,69,69,104,,,,,,,,10:48:27:280,10:48:27:967,10:48:30:970,left,10:48:34:071,,2013_Jan_11_1038,59.9494278358,MP-Perception Experiment,xx28m21,
71,vgpdm_dyn(15)-lvm(30)_final(9).webm,True,left,0,training(36).webm,0,70,70,108,,,,,,,,10:48:34:753,10:48:35:572,10:48:38:574,left,10:48:38:875,,2013_Jan_11_1038,59.9494278358,MP-Perception Experiment,xx28m21,
72,dmp_npsi(25)_final(1).webm,False,left,0,training(41).webm,0,71,71,125,,,,,,,,10:48:39:555,10:48:40:376,10:48:43:378,left,10:48:43:645,,2013_Jan_11_1038,59.9494278358,MP-Perception Experiment,xx28m21,
73,training(16).webm,True,right,0,map_gpdm_final(9).webm,0,72,72,78,,,,,,,,10:48:44:327,10:48:45:149,10:48:48:135,right,10:48:48:502,,2013_Jan_11_1038,59.9494278358,MP-Perception Experiment,xx28m21,
74,vcgpdm_dyn(5)-lvm(25)_final(8).webm,True,left,0,training(37).webm,0,73,73,128,,,,,,,,10:48:49:178,10:48:50:003,10:48:53:005,left,10:48:53:272,,2013_Jan_11_1038,59.9494278358,MP-Perception Experiment,xx28m21,
75,training(20).webm,False,right,0,vcgpdm_dyn(15)-lvm(25)_final(2).webm,0,74,74,8,,,,,,,,10:48:53:974,10:48:54:773,10:48:57:776,right,10:48:58:410,,2013_Jan_11_1038,59.9494278358,MP-Perception Experiment,xx28m21,
76,training(29).webm,False,right,0,vgpdm_dyn(20)-lvm(10)_final(7)_out_of_screen.webm,0,75,75,92,,,,,,,,10:48:59:086,10:48:59:911,10:49:02:915,right,10:49:03:281,,2013_Jan_11_1038,59.9494278358,MP-Perception Experiment,xx28m21,
77,vgpdm_dyn(35)-lvm(25)_final(5).webm,False,left,0,training(5).webm,0,76,76,9,,,,,,,,10:49:03:964,10:49:04:783,10:49:07:785,left,10:49:09:970,,2013_Jan_11_1038,59.9494278358,MP-Perception Experiment,xx28m21,
78,vcgpdm_dyn(15)-lvm(30)_final(5).webm,True,left,0,training(19).webm,0,77,77,63,,,,,,,,10:49:10:646,10:49:11:471,10:49:14:474,left,10:49:14:791,,2013_Jan_11_1038,59.9494278358,MP-Perception Experiment,xx28m21,
79,vcgpdm_dyn(30)-lvm(25)_final(2).webm,False,left,0,training(14).webm,0,78,78,54,,,,,,,,10:49:15:473,10:49:16:292,10:49:19:295,left,10:49:19:596,,2013_Jan_11_1038,59.9494278358,MP-Perception Experiment,xx28m21,
80,training(41).webm,True,right,0,tmp_numprim(3)_final(9).webm,0,79,79,52,,,,,,,,10:49:20:268,10:49:21:097,10:49:24:097,right,10:49:24:464,,2013_Jan_11_1038,59.9494278358,MP-Perception Experiment,xx28m21,
81,vcgpdm_dyn(15)-lvm(5)_final(4).webm,True,left,0,training(39).webm,0,80,80,79,,,,,,,,10:49:25:143,10:49:25:966,10:49:28:968,left,10:49:29:285,,2013_Jan_11_1038,59.9494278358,MP-Perception Experiment,xx28m21,
82,training(18).webm,False,right,0,vcgpdm_dyn(25)-lvm(5)_final(8).webm,0,81,81,15,,,,,,,,10:49:29:960,10:49:30:786,10:49:33:789,right,10:49:34:122,,2013_Jan_11_1038,59.9494278358,MP-Perception Experiment,xx28m21,
83,training(10).webm,True,right,0,vcgpdm_dyn(20)-lvm(15)_final(9).webm,0,82,82,88,,,,,,,,10:49:34:802,10:49:35:623,10:49:38:629,right,10:49:38:996,,2013_Jan_11_1038,59.9494278358,MP-Perception Experiment,xx28m21,
84,training(35).webm,True,right,0,vgpdm_dyn(20)-lvm(30)_final(4).webm,0,83,83,156,,,,,,,,10:49:39:791,10:49:40:497,10:49:43:499,right,10:49:43:950,,2013_Jan_11_1038,59.9494278358,MP-Perception Experiment,xx28m21,
85,vcgpdm_dyn(10)-lvm(5)_final(7).webm,True,left,0,training(28).webm,0,84,84,143,,,,,,,,10:49:44:774,10:49:45:451,10:49:48:453,left,10:49:48:787,,2013_Jan_11_1038,59.9494278358,MP-Perception Experiment,xx28m21,
86,vgpdm_dyn(5)-lvm(30)_final(4).webm,True,left,0,training(22).webm,0,85,85,112,,,,,,,,10:49:49:568,10:49:50:288,10:49:53:291,left,10:49:53:574,,2013_Jan_11_1038,59.9494278358,MP-Perception Experiment,xx28m21,
87,training(17).webm,True,right,0,vgpdm_dyn(10)-lvm(10)_final(2).webm,0,86,86,111,,,,,,,,10:49:54:282,10:49:55:076,10:49:58:079,right,10:49:59:146,,2013_Jan_11_1038,59.9494278358,MP-Perception Experiment,xx28m21,
88,training(18).webm,False,right,0,dmp_npsi(35)_final(6).webm,0,87,87,110,,,,,,,,10:49:59:828,10:50:00:647,10:50:03:650,right,10:50:04:017,,2013_Jan_11_1038,59.9494278358,MP-Perception Experiment,xx28m21,
89,vcgpdm_dyn(10)-lvm(15)_final(3).webm,True,left,0,training(30).webm,0,88,88,22,,,,,,,,10:50:04:796,10:50:05:518,10:50:08:520,left,10:50:08:804,,2013_Jan_11_1038,59.9494278358,MP-Perception Experiment,xx28m21,
90,training(37).webm,False,right,0,vcgpdm_dyn(20)-lvm(30)_final(4).webm,0,89,89,148,,,,,,,,10:50:09:648,10:50:10:305,10:50:13:307,right,10:50:13:540,,2013_Jan_11_1038,59.9494278358,MP-Perception Experiment,xx28m21,
91,training(18).webm,True,right,0,vcgpdm_dyn(15)-lvm(5)_final(0).webm,0,90,90,4,,,,,,,,10:50:14:366,10:50:15:041,10:50:18:044,left,10:50:18:461,,2013_Jan_11_1038,59.9494278358,MP-Perception Experiment,xx28m21,
92,vgpdm_dyn(20)-lvm(15)_final(0).webm,True,left,0,training(8).webm,0,91,91,30,,,,,,,,10:50:19:142,10:50:19:962,10:50:22:965,left,10:50:23:281,,2013_Jan_11_1038,59.9494278358,MP-Perception Experiment,xx28m21,
93,training(5).webm,True,right,0,vcgpdm_dyn(10)-lvm(20)_final(3).webm,0,92,92,7,,,,,,,,10:50:24:102,10:50:24:783,10:50:27:770,right,10:50:28:020,,2013_Jan_11_1038,59.9494278358,MP-Perception Experiment,xx28m21,
94,vcgpdm_dyn(10)-lvm(25)_final(0).webm,True,left,0,training(10).webm,0,93,93,154,,,,,,,,10:50:28:702,10:50:29:523,10:50:32:525,left,10:50:33:026,,2013_Jan_11_1038,59.9494278358,MP-Perception Experiment,xx28m21,
95,vcgpdm_dyn(15)-lvm(15)_final(1).webm,False,left,0,training(12).webm,0,94,94,117,,,,,,,,10:50:33:786,10:50:34:527,10:50:37:529,left,10:50:37:796,,2013_Jan_11_1038,59.9494278358,MP-Perception Experiment,xx28m21,
96,training(25).webm,False,right,0,dmp_npsi(15)_final(0).webm,0,95,95,84,,,,,,,,10:50:38:477,10:50:39:297,10:50:42:299,right,10:50:42:750,,2013_Jan_11_1038,59.9494278358,MP-Perception Experiment,xx28m21,
97,map_cgpdm_final(1).webm,True,left,0,training(35).webm,0,96,96,82,,,,,,,,10:50:43:427,10:50:44:251,10:50:47:255,left,10:50:47:555,,2013_Jan_11_1038,59.9494278358,MP-Perception Experiment,xx28m21,
98,vcgpdm_dyn(25)-lvm(25)_final(8).webm,True,left,0,training(2).webm,0,97,97,97,,,,,,,,10:50:48:238,10:50:49:056,10:50:52:059,right,10:50:53:176,,2013_Jan_11_1038,59.9494278358,MP-Perception Experiment,xx28m21,
99,vgpdm_dyn(5)-lvm(20)_final(2).webm,True,left,0,training(48).webm,0,98,98,28,,,,,,,,10:50:53:855,10:50:54:677,10:50:57:680,left,10:50:58:013,,2013_Jan_11_1038,59.9494278358,MP-Perception Experiment,xx28m21,
100,training(29).webm,False,right,0,vgpdm_dyn(5)-lvm(20)_final(6).webm,0,99,99,50,,,,,,,,10:50:58:716,10:50:59:514,10:51:02:517,right,10:51:02:851,,2013_Jan_11_1038,59.9494278358,MP-Perception Experiment,xx28m21,
101,training(10).webm,True,right,0,vgpdm_dyn(15)-lvm(25)_final(9).webm,0,100,100,120,,,,,,,,10:51:03:544,10:51:04:368,10:51:07:370,right,10:51:07:804,,2013_Jan_11_1038,59.9494278358,MP-Perception Experiment,xx28m21,
102,vcgpdm_dyn(15)-lvm(10)_final(6).webm,True,left,0,training(9).webm,0,101,101,41,,,,,,,,10:51:08:482,10:51:09:305,10:51:12:307,left,10:51:12:574,,2013_Jan_11_1038,59.9494278358,MP-Perception Experiment,xx28m21,
103,vcgpdm_dyn(10)-lvm(10)_final(8).webm,False,left,0,training(27).webm,0,102,102,99,,,,,,,,10:51:13:255,10:51:14:075,10:51:17:063,left,10:51:17:897,,2013_Jan_11_1038,59.9494278358,MP-Perception Experiment,xx28m21,
104,training(35).webm,False,right,0,vgpdm_dyn(35)-lvm(5)_final(9).webm,0,103,103,129,,,,,,,,10:51:18:575,10:51:19:398,10:51:22:402,right,10:51:22:735,,2013_Jan_11_1038,59.9494278358,MP-Perception Experiment,xx28m21,
105,training(18).webm,True,right,0,vgpdm_dyn(10)-lvm(25)_final(5).webm,0,104,104,17,,,,,,,,10:51:23:579,10:51:24:236,10:51:27:239,left,10:51:27:639,,2013_Jan_11_1038,59.9494278358,MP-Perception Experiment,xx28m21,
106,vcgpdm_dyn(20)-lvm(25)_final(0).webm,True,left,0,training(36).webm,0,105,105,113,,,,,,,,10:51:28:317,10:51:29:140,10:51:32:143,left,10:51:32:410,,2013_Jan_11_1038,59.9494278358,MP-Perception Experiment,xx28m21,
107,tmp_numprim(7)_final(0).webm,False,left,0,training(35).webm,0,106,106,35,,,,,,,,10:51:33:185,10:51:33:911,10:51:36:913,left,10:51:37:681,,2013_Jan_11_1038,59.9494278358,MP-Perception Experiment,xx28m21,
108,training(30).webm,False,right,0,vcgpdm_dyn(30)-lvm(35)_final(2).webm,0,107,107,101,,,,,,,,10:51:38:357,10:51:39:183,10:51:42:185,right,10:51:42:419,,2013_Jan_11_1038,59.9494278358,MP-Perception Experiment,xx28m21,
109,tmp_numprim(9)_final(5).webm,False,left,0,training(27).webm,0,108,108,11,,,,,,,,10:51:43:263,10:51:43:920,10:51:46:923,left,10:51:49:258,,2013_Jan_11_1038,59.9494278358,MP-Perception Experiment,xx28m21,
110,training(22).webm,True,right,0,tmp_numprim(5)_final(3).webm,0,109,109,142,,,,,,,,10:51:49:934,10:51:50:759,10:51:53:760,right,10:51:54:110,,2013_Jan_11_1038,59.9494278358,MP-Perception Experiment,xx28m21,
111,training(26).webm,False,right,0,vgpdm_dyn(10)-lvm(35)_final(3).webm,0,110,110,65,,,,,,,,10:51:54:783,10:51:55:611,10:51:58:614,right,10:51:58:865,,2013_Jan_11_1038,59.9494278358,MP-Perception Experiment,xx28m21,
112,training(12).webm,False,right,0,vgpdm_dyn(10)-lvm(20)_final(0).webm,0,111,111,12,,,,,,,,10:51:59:566,10:52:00:366,10:52:03:368,right,10:52:04:052,,2013_Jan_11_1038,59.9494278358,MP-Perception Experiment,xx28m21,
113,training(27).webm,True,right,0,vcgpdm_dyn(25)-lvm(20)_final(2).webm,0,112,112,67,,,,,,,,10:52:04:742,10:52:05:553,10:52:08:541,right,10:52:08:841,,2013_Jan_11_1038,59.9494278358,MP-Perception Experiment,xx28m21,
114,vcgpdm_dyn(35)-lvm(25)_final(9).webm,False,left,0,training(8).webm,0,113,113,16,,,,,,,,10:52:09:626,10:52:10:342,10:52:13:345,left,10:52:13:662,,2013_Jan_11_1038,59.9494278358,MP-Perception Experiment,xx28m21,
115,training(19).webm,True,right,0,dmp_npsi(45)_final(2).webm,0,114,114,116,,,,,,,,10:52:14:507,10:52:15:164,10:52:18:166,right,10:52:18:450,,2013_Jan_11_1038,59.9494278358,MP-Perception Experiment,xx28m21,
116,vgpdm_dyn(10)-lvm(15)_final(7).webm,False,left,0,training(24).webm,0,115,115,25,,,,,,,,10:52:19:129,10:52:19:951,10:52:22:954,right,10:52:23:421,,2013_Jan_11_1038,59.9494278358,MP-Perception Experiment,xx28m21,
117,vgpdm_dyn(30)-lvm(35)_final(5).webm,False,left,0,training(24).webm,0,116,116,19,,,,,,,,10:52:24:167,10:52:24:922,10:52:27:924,right,10:52:28:375,,2013_Jan_11_1038,59.9494278358,MP-Perception Experiment,xx28m21,
118,vgpdm_dyn(10)-lvm(25)_final(1).webm,False,left,0,training(2).webm,0,117,117,136,,,,,,,,10:52:29:054,10:52:29:876,10:52:32:879,right,10:52:33:230,,2013_Jan_11_1038,59.9494278358,MP-Perception Experiment,xx28m21,
119,training(14).webm,True,right,0,vcgpdm_dyn(20)-lvm(10)_final(9).webm,0,118,118,59,,,,,,,,10:52:34:071,10:52:34:731,10:52:37:733,right,10:52:37:983,,2013_Jan_11_1038,59.9494278358,MP-Perception Experiment,xx28m21,
120,training(8).webm,True,right,0,vcgpdm_dyn(25)-lvm(25)_final(6).webm,0,119,119,135,,,,,,,,10:52:38:661,10:52:39:484,10:52:42:487,left,10:52:44:370,,2013_Jan_11_1038,59.9494278358,MP-Perception Experiment,xx28m21,
121,vcgpdm_dyn(20)-lvm(25)_final(5).webm,False,left,0,training(5).webm,0,120,120,18,,,,,,,,10:52:45:129,10:52:45:871,10:52:48:875,left,10:52:49:092,,2013_Jan_11_1038,59.9494278358,MP-Perception Experiment,xx28m21,
122,vcgpdm_dyn(25)-lvm(15)_final(0).webm,True,left,0,training(36).webm,0,121,121,89,,,,,,,,10:52:49:777,10:52:50:593,10:52:53:595,left,10:52:53:912,,2013_Jan_11_1038,59.9494278358,MP-Perception Experiment,xx28m21,
123,training(18).webm,True,right,0,dmp_npsi(35)_final(6).webm,0,122,122,118,,,,,,,,10:52:54:588,10:52:55:415,10:52:58:401,right,10:53:00:436,,2013_Jan_11_1038,59.9494278358,MP-Perception Experiment,xx28m21,
124,vgpdm_dyn(30)-lvm(25)_final(5).webm,True,left,0,training(18).webm,0,123,123,126,,,,,,,,10:53:01:161,10:53:01:937,10:53:04:939,left,10:53:05:190,,2013_Jan_11_1038,59.9494278358,MP-Perception Experiment,xx28m21,
125,tmp_numprim(5)_final(0).webm,True,left,0,training(9).webm,0,124,124,87,,,,,,,,10:53:06:014,10:53:06:692,10:53:09:694,left,10:53:09:994,,2013_Jan_11_1038,59.9494278358,MP-Perception Experiment,xx28m21,
126,training(24).webm,False,right,0,vcgpdm_dyn(30)-lvm(15)_final(0).webm,0,125,125,109,,,,,,,,10:53:10:676,10:53:11:496,10:53:14:498,left,10:53:15:099,,2013_Jan_11_1038,59.9494278358,MP-Perception Experiment,xx28m21,
127,training(32).webm,True,right,0,vgpdm_dyn(10)-lvm(10)_final(4).webm,0,126,126,40,,,,,,,,10:53:15:780,10:53:16:600,10:53:19:602,left,10:53:19:936,,2013_Jan_11_1038,59.9494278358,MP-Perception Experiment,xx28m21,
128,dmp_npsi(35)_final(8).webm,False,left,0,training(36).webm,0,127,127,48,,,,,,,,10:53:20:670,10:53:21:437,10:53:24:441,left,10:53:24:707,,2013_Jan_11_1038,59.9494278358,MP-Perception Experiment,xx28m21,
129,vcgpdm_dyn(35)-lvm(30)_final(0).webm,False,left,0,training(20).webm,0,128,128,157,,,,,,,,10:53:25:550,10:53:26:209,10:53:29:211,left,10:53:29:561,,2013_Jan_11_1038,59.9494278358,MP-Perception Experiment,xx28m21,
130,training(24).webm,True,right,0,tmp_numprim(2)_final(1).webm,0,129,129,81,,,,,,,,10:53:30:242,10:53:31:062,10:53:34:063,right,10:53:34:513,,2013_Jan_11_1038,59.9494278358,MP-Perception Experiment,xx28m21,
131,vcgpdm_dyn(20)-lvm(10)_final(9).webm,True,left,0,training(32).webm,0,130,130,127,,,,,,,,10:53:35:184,10:53:36:015,10:53:39:017,left,10:53:39:334,,2013_Jan_11_1038,59.9494278358,MP-Perception Experiment,xx28m21,
132,training(37).webm,True,right,0,vcgpdm_dyn(20)-lvm(20)_final(8).webm,0,131,131,98,,,,,,,,10:53:40:012,10:53:40:835,10:53:43:839,left,10:53:45:290,,2013_Jan_11_1038,59.9494278358,MP-Perception Experiment,xx28m21,
133,vcgpdm_dyn(25)-lvm(30)_final(6).webm,True,left,0,training(31).webm,0,132,132,138,,,,,,,,10:53:46:138,10:53:46:791,10:53:49:779,left,10:53:50:045,,2013_Jan_11_1038,59.9494278358,MP-Perception Experiment,xx28m21,
134,training(33).webm,True,right,0,vcgpdm_dyn(15)-lvm(20)_final(0).webm,0,133,133,34,,,,,,,,10:53:50:722,10:53:51:547,10:53:54:549,right,10:53:54:849,,2013_Jan_11_1038,59.9494278358,MP-Perception Experiment,xx28m21,
135,training(25).webm,False,right,0,vgpdm_dyn(15)-lvm(5)_final(6).webm,0,134,134,0,,,,,,,,10:53:55:529,10:53:56:350,10:53:59:354,right,10:53:59:654,,2013_Jan_11_1038,59.9494278358,MP-Perception Experiment,xx28m21,
136,training(17).webm,False,right,0,vgpdm_dyn(25)-lvm(35)_final(6).webm,0,135,135,1,,,,,,,,10:54:00:336,10:54:01:155,10:54:04:158,left,10:54:04:875,,2013_Jan_11_1038,59.9494278358,MP-Perception Experiment,xx28m21,
137,training(22).webm,True,right,0,vcgpdm_dyn(35)-lvm(20)_final(3).webm,0,136,136,155,,,,,,,,10:54:05:579,10:54:06:376,10:54:09:379,left,10:54:09:929,,2013_Jan_11_1038,59.9494278358,MP-Perception Experiment,xx28m21,
138,training(31).webm,True,right,0,dmp_npsi(40)_final(6).webm,0,137,137,69,,,,,,,,10:54:10:611,10:54:11:430,10:54:14:433,right,10:54:14:950,,2013_Jan_11_1038,59.9494278358,MP-Perception Experiment,xx28m21,
139,training(36).webm,False,right,0,vcgpdm_dyn(10)-lvm(30)_final(4).webm,0,138,138,53,,,,,,,,10:54:15:624,10:54:16:452,10:54:19:455,right,10:54:19:755,,2013_Jan_11_1038,59.9494278358,MP-Perception Experiment,xx28m21,
140,training(5).webm,False,right,0,vgpdm_dyn(30)-lvm(15)_final(2).webm,0,139,139,14,,,,,,,,10:54:20:438,10:54:21:256,10:54:24:257,right,10:54:24:524,,2013_Jan_11_1038,59.9494278358,MP-Perception Experiment,xx28m21,
141,vcgpdm_dyn(25)-lvm(10)_final(6).webm,False,left,0,training(36).webm,0,140,140,68,,,,,,,,10:54:25:209,10:54:26:025,10:54:29:027,left,10:54:29:277,,2013_Jan_11_1038,59.9494278358,MP-Perception Experiment,xx28m21,
142,training(24).webm,False,right,0,vgpdm_dyn(10)-lvm(10)_final(9).webm,0,141,141,51,,,,,,,,10:54:29:955,10:54:30:778,10:54:33:782,right,10:54:34:082,,2013_Jan_11_1038,59.9494278358,MP-Perception Experiment,xx28m21,
143,map_cgpdm_final(9).webm,True,left,0,training(38).webm,0,142,142,42,,,,,,,,10:54:34:851,10:54:35:583,10:54:38:571,left,10:54:38:704,,2013_Jan_11_1038,59.9494278358,MP-Perception Experiment,xx28m21,
144,vcgpdm_dyn(10)-lvm(35)_final(9).webm,True,left,0,training(3).webm,0,143,143,24,,,,,,,,10:54:39:447,10:54:40:206,10:54:43:208,left,10:54:43:475,,2013_Jan_11_1038,59.9494278358,MP-Perception Experiment,xx28m21,
145,training(41).webm,False,right,0,dmp_npsi(35)_final(1).webm,0,144,144,139,,,,,,,,10:54:44:305,10:54:44:976,10:54:47:979,right,10:54:48:329,,2013_Jan_11_1038,59.9494278358,MP-Perception Experiment,xx28m21,
146,vgpdm_dyn(5)-lvm(30)_final(7).webm,False,left,0,training(6).webm,0,145,145,73,,,,,,,,10:54:49:008,10:54:49:830,10:54:52:834,left,10:54:53:150,,2013_Jan_11_1038,59.9494278358,MP-Perception Experiment,xx28m21,
147,vgpdm_dyn(10)-lvm(35)_final(7).webm,True,left,0,training(7).webm,0,146,146,72,,,,,,,,10:54:53:823,10:54:54:652,10:54:57:654,left,10:54:57:954,,2013_Jan_11_1038,59.9494278358,MP-Perception Experiment,xx28m21,
148,training(22).webm,True,right,0,vgpdm_dyn(15)-lvm(5)_final(5).webm,0,147,147,96,,,,,,,,10:54:58:630,10:54:59:455,10:55:02:458,right,10:55:02:825,,2013_Jan_11_1038,59.9494278358,MP-Perception Experiment,xx28m21,
149,vcgpdm_dyn(25)-lvm(30)_final(1).webm,True,left,0,training(13).webm,0,148,148,3,,,,,,,,10:55:03:666,10:55:04:326,10:55:07:329,left,10:55:07:712,,2013_Jan_11_1038,59.9494278358,MP-Perception Experiment,xx28m21,
150,training(37).webm,True,right,0,vcgpdm_dyn(5)-lvm(25)_final(7).webm,0,149,149,130,,,,,,,,10:55:08:413,10:55:09:214,10:55:12:217,right,10:55:12:467,,2013_Jan_11_1038,59.9494278358,MP-Perception Experiment,xx28m21,
151,training(17).webm,False,right,0,vgpdm_dyn(15)-lvm(15)_final(2).webm,0,150,150,124,,,,,,,,10:55:13:142,10:55:13:983,10:55:16:969,right,10:55:17:219,,2013_Jan_11_1038,59.9494278358,MP-Perception Experiment,xx28m21,
152,dmp_npsi(35)_final(6).webm,False,left,0,training(16).webm,0,151,151,152,,,,,,,,10:55:17:892,10:55:18:720,10:55:21:723,left,10:55:21:973,,2013_Jan_11_1038,59.9494278358,MP-Perception Experiment,xx28m21,
153,training(2).webm,False,right,0,vgpdm_dyn(30)-lvm(20)_final(7).webm,0,152,152,49,,,,,,,,10:55:22:653,10:55:23:474,10:55:26:463,left,10:55:27:080,,2013_Jan_11_1038,59.9494278358,MP-Perception Experiment,xx28m21,
154,training(35).webm,True,right,0,vgpdm_dyn(15)-lvm(15)_final(2).webm,0,153,153,105,,,,,,,,10:55:27:750,10:55:28:581,10:55:31:584,left,10:55:31:800,,2013_Jan_11_1038,59.9494278358,MP-Perception Experiment,xx28m21,
155,training(32).webm,True,right,0,vgpdm_dyn(35)-lvm(15)_final(0)_out_of_screen.webm,0,154,154,37,,,,,,,,10:55:32:475,10:55:33:301,10:55:36:321,right,10:55:36:588,,2013_Jan_11_1038,59.9494278358,MP-Perception Experiment,xx28m21,
156,training(2).webm,False,right,0,vgpdm_dyn(15)-lvm(25)_final(5).webm,0,155,155,94,,,,,,,,10:55:37:265,10:55:38:089,10:55:41:091,right,10:55:41:458,,2013_Jan_11_1038,59.9494278358,MP-Perception Experiment,xx28m21,
157,tmp_numprim(5)_final(4).webm,True,left,0,training(24).webm,0,156,156,151,,,,,,,,10:55:42:135,10:55:42:959,10:55:45:963,left,10:55:46:180,,2013_Jan_11_1038,59.9494278358,MP-Perception Experiment,xx28m21,
158,vcgpdm_dyn(10)-lvm(25)_final(3).webm,True,left,0,training(13).webm,0,157,157,62,,,,,,,,10:55:46:863,10:55:47:681,10:55:50:683,left,10:55:51:050,,2013_Jan_11_1038,59.9494278358,MP-Perception Experiment,xx28m21,
159,tmp_numprim(10)_final(0).webm,False,left,0,training(3).webm,0,158,158,44,,,,,,,,10:55:51:816,10:55:52:551,10:55:55:554,left,10:55:55:671,,2013_Jan_11_1038,59.9494278358,MP-Perception Experiment,xx28m21,
160,vgpdm_dyn(25)-lvm(25)_final(2)_bad.webm,False,left,1,training(39).webm,0,0,0,57,,,,,,,,10:59:47:690,10:59:48:422,10:59:51:408,left,10:59:52:192,,2013_Jan_11_1038,59.9494278358,MP-Perception Experiment,xx28m21,
161,training(32).webm,False,right,1,vcgpdm_dyn(10)-lvm(5)_final(4).webm,0,1,1,50,,,,,,,,10:59:52:997,10:59:53:693,10:59:56:696,right,10:59:56:829,,2013_Jan_11_1038,59.9494278358,MP-Perception Experiment,xx28m21,
162,vcgpdm_dyn(30)-lvm(20)_final(3).webm,False,left,1,training(48).webm,0,2,2,153,,,,,,,,10:59:57:676,10:59:58:330,11:00:01:333,left,11:00:01:433,,2013_Jan_11_1038,59.9494278358,MP-Perception Experiment,xx28m21,
163,training(11).webm,False,right,1,vgpdm_dyn(25)-lvm(5)_final(0).webm,0,3,3,139,,,,,,,,11:00:02:110,11:00:02:934,11:00:05:937,right,11:00:06:171,,2013_Jan_11_1038,59.9494278358,MP-Perception Experiment,xx28m21,
164,training(10).webm,False,right,1,vgpdm_dyn(20)-lvm(20)_final(4).webm,0,4,4,11,,,,,,,,11:00:06:850,11:00:07:672,11:00:10:675,right,11:00:10:908,,2013_Jan_11_1038,59.9494278358,MP-Perception Experiment,xx28m21,
165,vcgpdm_dyn(10)-lvm(35)_final(4).webm,True,left,1,training(20).webm,0,5,5,137,,,,,,,,11:00:11:589,11:00:12:409,11:00:15:410,left,11:00:15:510,,2013_Jan_11_1038,59.9494278358,MP-Perception Experiment,xx28m21,
166,map_gpdm_final(1).webm,True,left,1,training(34).webm,0,6,6,30,,,,,,,,11:00:16:273,11:00:17:011,11:00:20:014,left,11:00:20:281,,2013_Jan_11_1038,59.9494278358,MP-Perception Experiment,xx28m21,
167,training(26).webm,True,right,1,map_gpdm_final(5).webm,0,7,7,124,,,,,,,,11:00:21:121,11:00:21:782,11:00:24:785,right,11:00:24:952,,2013_Jan_11_1038,59.9494278358,MP-Perception Experiment,xx28m21,
168,training(24).webm,False,right,1,vgpdm_dyn(25)-lvm(20)_final(1).webm,0,8,8,154,,,,,,,,11:00:25:638,11:00:26:453,11:00:29:440,right,11:00:29:791,,2013_Jan_11_1038,59.9494278358,MP-Perception Experiment,xx28m21,
169,training(16).webm,True,right,1,vcgpdm_dyn(15)-lvm(35)_final(8).webm,0,9,9,123,,,,,,,,11:00:30:476,11:00:31:292,11:00:34:295,right,11:00:34:879,,2013_Jan_11_1038,59.9494278358,MP-Perception Experiment,xx28m21,
170,vgpdm_dyn(35)-lvm(5)_final(8).webm,True,left,1,training(16).webm,0,10,10,60,,,,,,,,11:00:35:557,11:00:36:380,11:00:39:382,left,11:00:39:566,,2013_Jan_11_1038,59.9494278358,MP-Perception Experiment,xx28m21,
171,training(25).webm,True,right,1,vgpdm_dyn(15)-lvm(5)_final(1).webm,0,11,11,24,,,,,,,,11:00:40:266,11:00:41:068,11:00:44:070,right,11:00:44:404,,2013_Jan_11_1038,59.9494278358,MP-Perception Experiment,xx28m21,
172,training(22).webm,True,right,1,vcgpdm_dyn(25)-lvm(20)_final(2).webm,0,12,12,59,,,,,,,,11:00:45:075,11:00:45:905,11:00:48:908,right,11:00:49:208,,2013_Jan_11_1038,59.9494278358,MP-Perception Experiment,xx28m21,
173,vgpdm_dyn(5)-lvm(15)_final(3).webm,True,left,1,training(39).webm,0,13,13,129,,,,,,,,11:00:49:888,11:00:50:709,11:00:53:712,left,11:00:53:978,,2013_Jan_11_1038,59.9494278358,MP-Perception Experiment,xx28m21,
174,vgpdm_dyn(30)-lvm(35)_final(3).webm,True,left,1,training(31).webm,0,14,14,83,,,,,,,,11:00:54:658,11:00:55:479,11:00:58:483,right,11:00:58:733,,2013_Jan_11_1038,59.9494278358,MP-Perception Experiment,xx28m21,
175,vcgpdm_dyn(30)-lvm(25)_final(3).webm,True,left,1,training(10).webm,0,15,15,86,,,,,,,,11:00:59:410,11:01:00:234,11:01:03:237,right,11:01:04:319,,2013_Jan_11_1038,59.9494278358,MP-Perception Experiment,xx28m21,
176,tmp_numprim(2)_final(0).webm,False,left,1,training(38).webm,0,16,16,84,,,,,,,,11:01:05:009,11:01:05:820,11:01:08:823,left,11:01:09:073,,2013_Jan_11_1038,59.9494278358,MP-Perception Experiment,xx28m21,
177,vcgpdm_dyn(30)-lvm(15)_final(8).webm,False,left,1,training(26).webm,0,17,17,45,,,,,,,,11:01:09:750,11:01:10:574,11:01:13:577,left,11:01:13:927,,2013_Jan_11_1038,59.9494278358,MP-Perception Experiment,xx28m21,
178,vgpdm_dyn(25)-lvm(20)_final(0).webm,True,left,1,training(24).webm,0,18,18,9,,,,,,,,11:01:14:673,11:01:15:430,11:01:18:417,left,11:01:18:717,,2013_Jan_11_1038,59.9494278358,MP-Perception Experiment,xx28m21,
179,vgpdm_dyn(10)-lvm(5)_final(1).webm,True,left,1,training(18).webm,0,19,19,1,,,,,,,,11:01:19:406,11:01:20:218,11:01:23:221,left,11:01:23:454,,2013_Jan_11_1038,59.9494278358,MP-Perception Experiment,xx28m21,
180,tmp_numprim(7)_final(9).webm,True,left,1,training(14).webm,0,20,20,38,,,,,,,,11:01:24:298,11:01:24:955,11:01:27:958,right,11:01:28:158,,2013_Jan_11_1038,59.9494278358,MP-Perception Experiment,xx28m21,
181,training(36).webm,False,right,1,vgpdm_dyn(20)-lvm(5)_final(1).webm,0,21,21,82,,,,,,,,11:01:29:010,11:01:29:659,11:01:32:662,right,11:01:32:912,,2013_Jan_11_1038,59.9494278358,MP-Perception Experiment,xx28m21,
182,training(38).webm,True,right,1,tmp_numprim(7)_final(3).webm,0,22,22,90,,,,,,,,11:01:33:591,11:01:34:414,11:01:37:416,right,11:01:37:650,,2013_Jan_11_1038,59.9494278358,MP-Perception Experiment,xx28m21,
183,training(12).webm,False,right,1,tmp_numprim(3)_final(8).webm,0,23,23,149,,,,,,,,11:01:38:318,11:01:39:151,11:01:42:154,right,11:01:42:404,,2013_Jan_11_1038,59.9494278358,MP-Perception Experiment,xx28m21,
184,training(12).webm,True,right,1,vcgpdm_dyn(5)-lvm(5)_final(5).webm,0,24,24,13,,,,,,,,11:01:43:114,11:01:43:921,11:01:46:907,right,11:01:47:291,,2013_Jan_11_1038,59.9494278358,MP-Perception Experiment,xx28m21,
185,training(20).webm,True,right,1,vgpdm_dyn(35)-lvm(35)_final(7).webm,0,25,25,133,,,,,,,,11:01:47:960,11:01:48:792,11:01:51:796,right,11:01:51:929,,2013_Jan_11_1038,59.9494278358,MP-Perception Experiment,xx28m21,
186,training(15).webm,False,right,1,vcgpdm_dyn(30)-lvm(10)_final(5).webm,0,26,26,95,,,,,,,,11:01:52:737,11:01:53:430,11:01:56:431,right,11:01:56:448,,2013_Jan_11_1038,59.9494278358,MP-Perception Experiment,xx28m21,
187,training(0).webm,True,right,1,map_cgpdm_final(0).webm,0,27,27,41,,,,,,,,11:01:57:294,11:01:57:949,11:02:00:951,right,11:02:01:218,,2013_Jan_11_1038,59.9494278358,MP-Perception Experiment,xx28m21,
188,vgpdm_dyn(20)-lvm(15)_final(2).webm,True,left,1,training(39).webm,0,28,28,115,,,,,,,,11:02:01:897,11:02:02:719,11:02:05:722,left,11:02:05:972,,2013_Jan_11_1038,59.9494278358,MP-Perception Experiment,xx28m21,
189,training(17).webm,True,right,1,vcgpdm_dyn(35)-lvm(25)_final(2).webm,0,29,29,97,,,,,,,,11:02:06:818,11:02:07:473,11:02:10:462,right,11:02:10:562,,2013_Jan_11_1038,59.9494278358,MP-Perception Experiment,xx28m21,
190,training(36).webm,False,right,1,map_gpdm_final(6).webm,0,30,30,116,,,,,,,,11:02:11:241,11:02:12:063,11:02:15:066,right,11:02:15:382,,2013_Jan_11_1038,59.9494278358,MP-Perception Experiment,xx28m21,
191,vgpdm_dyn(30)-lvm(10)_final(8).webm,True,left,1,training(30).webm,0,31,31,128,,,,,,,,11:02:16:057,11:02:16:883,11:02:19:886,left,11:02:20:320,,2013_Jan_11_1038,59.9494278358,MP-Perception Experiment,xx28m21,
192,training(2).webm,True,right,1,vgpdm_dyn(5)-lvm(20)_final(5).webm,0,32,32,46,,,,,,,,11:02:20:996,11:02:21:821,11:02:24:823,right,11:02:25:023,,2013_Jan_11_1038,59.9494278358,MP-Perception Experiment,xx28m21,
193,vcgpdm_dyn(30)-lvm(30)_final(4).webm,True,left,1,training(26).webm,0,33,33,33,,,,,,,,11:02:25:701,11:02:26:526,11:02:29:528,left,11:02:29:778,,2013_Jan_11_1038,59.9494278358,MP-Perception Experiment,xx28m21,
194,training(7).webm,False,right,1,vgpdm_dyn(10)-lvm(25)_final(6).webm,0,34,34,79,,,,,,,,11:02:30:491,11:02:31:279,11:02:34:282,right,11:02:34:482,,2013_Jan_11_1038,59.9494278358,MP-Perception Experiment,xx28m21,
195,vgpdm_dyn(25)-lvm(10)_final(8)_out_of_screen.webm,False,left,1,training(16).webm,0,35,35,75,,,,,,,,11:02:35:260,11:02:35:983,11:02:38:986,left,11:02:39:269,,2013_Jan_11_1038,59.9494278358,MP-Perception Experiment,xx28m21,
196,training(12).webm,False,right,1,vcgpdm_dyn(25)-lvm(5)_final(5).webm,0,36,36,89,,,,,,,,11:02:39:950,11:02:40:770,11:02:43:774,right,11:02:43:906,,2013_Jan_11_1038,59.9494278358,MP-Perception Experiment,xx28m21,
197,vgpdm_dyn(20)-lvm(20)_final(8).webm,True,left,1,training(35).webm,0,37,37,114,,,,,,,,11:02:44:764,11:02:45:407,11:02:48:409,right,11:02:48:810,,2013_Jan_11_1038,59.9494278358,MP-Perception Experiment,xx28m21,
198,training(16).webm,False,right,1,dmp_npsi(45)_final(4).webm,0,38,38,145,,,,,,,,11:02:49:498,11:02:50:311,11:02:53:313,left,11:02:53:597,,2013_Jan_11_1038,59.9494278358,MP-Perception Experiment,xx28m21,
199,training(9).webm,False,right,1,vcgpdm_dyn(5)-lvm(25)_final(1).webm,0,39,39,103,,,,,,,,11:02:54:273,11:02:55:100,11:02:58:085,right,11:02:58:119,,2013_Jan_11_1038,59.9494278358,MP-Perception Experiment,xx28m21,
200,training(32).webm,False,right,1,vgpdm_dyn(10)-lvm(30)_final(9).webm,0,40,40,88,,,,,,,,11:02:58:923,11:02:59:620,11:03:02:624,right,11:03:02:890,,2013_Jan_11_1038,59.9494278358,MP-Perception Experiment,xx28m21,
201,training(27).webm,False,right,1,vcgpdm_dyn(10)-lvm(10)_final(8).webm,0,41,41,31,,,,,,,,11:03:03:559,11:03:04:391,11:03:07:394,right,11:03:07:594,,2013_Jan_11_1038,59.9494278358,MP-Perception Experiment,xx28m21,
202,training(26).webm,False,right,1,vcgpdm_dyn(15)-lvm(15)_final(5).webm,0,42,42,91,,,,,,,,11:03:08:443,11:03:09:095,11:03:12:098,right,11:03:12:281,,2013_Jan_11_1038,59.9494278358,MP-Perception Experiment,xx28m21,
203,training(9).webm,True,right,1,vgpdm_dyn(5)-lvm(25)_final(1)_out_of_screen.webm,0,43,43,104,,,,,,,,11:03:13:125,11:03:13:782,11:03:16:785,right,11:03:17:068,,2013_Jan_11_1038,59.9494278358,MP-Perception Experiment,xx28m21,
204,vcgpdm_dyn(10)-lvm(20)_final(5).webm,True,left,1,training(2).webm,0,44,44,127,,,,,,,,11:03:17:841,11:03:18:571,11:03:21:573,left,11:03:21:807,,2013_Jan_11_1038,59.9494278358,MP-Perception Experiment,xx28m21,
205,training(4).webm,True,right,1,vgpdm_dyn(5)-lvm(20)_final(4).webm,0,45,45,117,,,,,,,,11:03:22:489,11:03:23:308,11:03:26:310,right,11:03:26:527,,2013_Jan_11_1038,59.9494278358,MP-Perception Experiment,xx28m21,
206,training(37).webm,False,right,1,vgpdm_dyn(30)-lvm(35)_final(3).webm,0,46,46,74,,,,,,,,11:03:27:198,11:03:28:028,11:03:31:031,right,11:03:31:198,,2013_Jan_11_1038,59.9494278358,MP-Perception Experiment,xx28m21,
207,training(36).webm,True,right,1,dmp_npsi(20)_final(4).webm,0,47,47,48,,,,,,,,11:03:31:877,11:03:32:699,11:03:35:700,right,11:03:35:934,,2013_Jan_11_1038,59.9494278358,MP-Perception Experiment,xx28m21,
208,vcgpdm_dyn(5)-lvm(35)_final(9)_bad.webm,False,left,1,training(31).webm,0,48,48,3,,,,,,,,11:03:36:612,11:03:37:435,11:03:40:438,left,11:03:40:488,,2013_Jan_11_1038,59.9494278358,MP-Perception Experiment,xx28m21,
209,training(8).webm,True,right,1,vgpdm_dyn(30)-lvm(35)_final(9).webm,0,49,49,22,,,,,,,,11:03:41:166,11:03:41:989,11:03:44:991,left,11:03:45:558,,2013_Jan_11_1038,59.9494278358,MP-Perception Experiment,xx28m21,
210,vgpdm_dyn(20)-lvm(35)_final(1).webm,False,left,1,training(35).webm,0,50,50,51,,,,,,,,11:03:46:262,11:03:47:059,11:03:50:047,left,11:03:50:364,,2013_Jan_11_1038,59.9494278358,MP-Perception Experiment,xx28m21,
211,training(25).webm,False,right,1,vgpdm_dyn(30)-lvm(15)_final(7).webm,0,51,51,42,,,,,,,,11:03:51:038,11:03:51:865,11:03:54:869,right,11:03:55:136,,2013_Jan_11_1038,59.9494278358,MP-Perception Experiment,xx28m21,
212,vcgpdm_dyn(5)-lvm(5)_final(8).webm,False,left,1,training(7).webm,0,52,52,36,,,,,,,,11:03:55:874,11:03:56:637,11:03:59:639,left,11:03:59:722,,2013_Jan_11_1038,59.9494278358,MP-Perception Experiment,xx28m21,
213,training(12).webm,True,right,1,vcgpdm_dyn(30)-lvm(35)_final(8).webm,0,53,53,47,,,,,,,,11:04:00:403,11:04:01:224,11:04:04:226,right,11:04:04:593,,2013_Jan_11_1038,59.9494278358,MP-Perception Experiment,xx28m21,
214,training(2).webm,True,right,1,vgpdm_dyn(35)-lvm(5)_final(0).webm,0,54,54,64,,,,,,,,11:04:05:435,11:04:06:094,11:04:09:097,right,11:04:09:597,,2013_Jan_11_1038,59.9494278358,MP-Perception Experiment,xx28m21,
215,training(24).webm,True,right,1,vcgpdm_dyn(5)-lvm(25)_final(1).webm,0,55,55,85,,,,,,,,11:04:10:219,11:04:11:099,11:04:14:102,right,11:04:14:219,,2013_Jan_11_1038,59.9494278358,MP-Perception Experiment,xx28m21,
216,dmp_npsi(40)_final(7).webm,True,left,1,training(34).webm,0,56,56,7,,,,,,,,11:04:14:891,11:04:15:720,11:04:18:722,left,11:04:18:989,,2013_Jan_11_1038,59.9494278358,MP-Perception Experiment,xx28m21,
217,vcgpdm_dyn(5)-lvm(15)_final(1).webm,True,left,1,training(40).webm,0,57,57,12,,,,,,,,11:04:19:675,11:04:20:490,11:04:23:493,left,11:04:23:560,,2013_Jan_11_1038,59.9494278358,MP-Perception Experiment,xx28m21,
218,vgpdm_dyn(15)-lvm(5)_final(8).webm,True,left,1,training(36).webm,0,58,58,121,,,,,,,,11:04:24:318,11:04:25:076,11:04:28:079,left,11:04:28:296,,2013_Jan_11_1038,59.9494278358,MP-Perception Experiment,xx28m21,
219,training(32).webm,False,right,1,vcgpdm_dyn(25)-lvm(30)_final(9).webm,0,59,59,26,,,,,,,,11:04:28:978,11:04:29:797,11:04:32:799,right,11:04:33:066,,2013_Jan_11_1038,59.9494278358,MP-Perception Experiment,xx28m21,
220,training(0).webm,False,right,1,vgpdm_dyn(30)-lvm(5)_final(3).webm,0,60,60,102,,,,,,,,11:04:33:750,11:04:34:567,11:04:37:555,right,11:04:39:940,,2013_Jan_11_1038,59.9494278358,MP-Perception Experiment,xx28m21,
221,training(16).webm,False,right,1,dmp_npsi(25)_final(5).webm,0,61,61,70,,,,,,,,11:04:40:613,11:04:41:441,11:04:44:444,right,11:04:44:744,,2013_Jan_11_1038,59.9494278358,MP-Perception Experiment,xx28m21,
222,map_gpdm_final(4).webm,False,left,1,training(2).webm,0,62,62,92,,,,,,,,11:04:45:433,11:04:46:246,11:04:49:249,left,11:04:49:516,,2013_Jan_11_1038,59.9494278358,MP-Perception Experiment,xx28m21,
223,vgpdm_dyn(35)-lvm(30)_final(3).webm,False,left,1,training(22).webm,0,63,63,134,,,,,,,,11:04:50:215,11:04:51:017,11:04:54:019,right,11:04:54:320,,2013_Jan_11_1038,59.9494278358,MP-Perception Experiment,xx28m21,
224,training(2).webm,True,right,1,vcgpdm_dyn(20)-lvm(25)_final(3).webm,0,64,64,49,,,,,,,,11:04:54:998,11:04:55:821,11:04:58:823,right,11:04:59:157,,2013_Jan_11_1038,59.9494278358,MP-Perception Experiment,xx28m21,
225,vcgpdm_dyn(30)-lvm(5)_final(4).webm,False,left,1,training(0).webm,0,65,65,55,,,,,,,,11:04:59:836,11:05:00:658,11:05:03:662,left,11:05:03:995,,2013_Jan_11_1038,59.9494278358,MP-Perception Experiment,xx28m21,
226,vcgpdm_dyn(20)-lvm(20)_final(3).webm,False,left,1,training(18).webm,0,66,66,27,,,,,,,,11:05:04:675,11:05:05:496,11:05:08:499,right,11:05:08:816,,2013_Jan_11_1038,59.9494278358,MP-Perception Experiment,xx28m21,
227,training(27).webm,True,right,1,vcgpdm_dyn(5)-lvm(25)_final(7).webm,0,67,67,140,,,,,,,,11:05:09:490,11:05:10:317,11:05:13:319,right,11:05:13:569,,2013_Jan_11_1038,59.9494278358,MP-Perception Experiment,xx28m21,
228,training(31).webm,False,right,1,vcgpdm_dyn(30)-lvm(35)_final(3).webm,0,68,68,152,,,,,,,,11:05:14:261,11:05:15:086,11:05:18:088,right,11:05:18:305,,2013_Jan_11_1038,59.9494278358,MP-Perception Experiment,xx28m21,
229,vcgpdm_dyn(35)-lvm(20)_final(5).webm,False,left,1,training(29).webm,0,69,69,132,,,,,,,,11:05:18:988,11:05:19:806,11:05:22:810,left,11:05:23:076,,2013_Jan_11_1038,59.9494278358,MP-Perception Experiment,xx28m21,
230,training(26).webm,False,right,1,vcgpdm_dyn(30)-lvm(20)_final(3).webm,0,70,70,110,,,,,,,,11:05:23:750,11:05:24:577,11:05:27:565,right,11:05:27:915,,2013_Jan_11_1038,59.9494278358,MP-Perception Experiment,xx28m21,
231,training(11).webm,True,right,1,vgpdm_dyn(30)-lvm(35)_final(6).webm,0,71,71,72,,,,,,,,11:05:28:765,11:05:29:417,11:05:32:419,right,11:05:34:888,,2013_Jan_11_1038,59.9494278358,MP-Perception Experiment,xx28m21,
232,vgpdm_dyn(30)-lvm(20)_final(3).webm,False,left,1,training(36).webm,0,72,72,63,,,,,,,,11:05:35:568,11:05:36:389,11:05:39:392,right,11:05:39:643,,2013_Jan_11_1038,59.9494278358,MP-Perception Experiment,xx28m21,
233,vcgpdm_dyn(25)-lvm(5)_final(8).webm,True,left,1,training(41).webm,0,73,73,61,,,,,,,,11:05:40:317,11:05:41:144,11:05:44:146,left,11:05:44:446,,2013_Jan_11_1038,59.9494278358,MP-Perception Experiment,xx28m21,
234,training(18).webm,False,right,1,vgpdm_dyn(25)-lvm(35)_final(5).webm,0,74,74,94,,,,,,,,11:05:45:126,11:05:45:948,11:05:48:950,right,11:05:49:167,,2013_Jan_11_1038,59.9494278358,MP-Perception Experiment,xx28m21,
235,training(34).webm,True,right,1,vcgpdm_dyn(10)-lvm(10)_final(3).webm,0,75,75,16,,,,,,,,11:05:49:849,11:05:50:668,11:05:53:671,right,11:05:55:690,,2013_Jan_11_1038,59.9494278358,MP-Perception Experiment,xx28m21,
236,vgpdm_dyn(10)-lvm(30)_final(3).webm,True,left,1,training(3).webm,0,76,76,111,,,,,,,,11:05:56:391,11:05:57:191,11:06:00:194,left,11:06:00:527,,2013_Jan_11_1038,59.9494278358,MP-Perception Experiment,xx28m21,
237,training(19).webm,True,right,1,vcgpdm_dyn(20)-lvm(15)_final(4).webm,0,77,77,98,,,,,,,,11:06:01:216,11:06:02:028,11:06:05:029,left,11:06:05:279,,2013_Jan_11_1038,59.9494278358,MP-Perception Experiment,xx28m21,
238,vgpdm_dyn(10)-lvm(30)_final(3).webm,False,left,1,training(22).webm,0,78,78,131,,,,,,,,11:06:05:953,11:06:06:780,11:06:09:783,left,11:06:10:133,,2013_Jan_11_1038,59.9494278358,MP-Perception Experiment,xx28m21,
239,vgpdm_dyn(10)-lvm(20)_final(7).webm,True,left,1,training(39).webm,0,79,79,146,,,,,,,,11:06:10:814,11:06:11:634,11:06:14:638,left,11:06:15:822,,2013_Jan_11_1038,59.9494278358,MP-Perception Experiment,xx28m21,
240,vgpdm_dyn(15)-lvm(35)_final(9).webm,False,left,1,training(48).webm,0,80,80,147,,,,,,,,11:06:16:499,11:06:17:323,11:06:20:311,left,11:06:20:361,,2013_Jan_11_1038,59.9494278358,MP-Perception Experiment,xx28m21,
241,vgpdm_dyn(35)-lvm(5)_final(6).webm,False,left,1,training(2).webm,0,81,81,156,,,,,,,,11:06:21:043,11:06:21:862,11:06:24:864,right,11:06:25:165,,2013_Jan_11_1038,59.9494278358,MP-Perception Experiment,xx28m21,
242,training(35).webm,False,right,1,vgpdm_dyn(15)-lvm(25)_final(2).webm,0,82,82,148,,,,,,,,11:06:25:840,11:06:26:666,11:06:29:668,right,11:06:30:119,,2013_Jan_11_1038,59.9494278358,MP-Perception Experiment,xx28m21,
243,vcgpdm_dyn(10)-lvm(5)_final(2).webm,True,left,1,training(6).webm,0,83,83,78,,,,,,,,11:06:30:801,11:06:31:621,11:06:34:623,left,11:06:34:790,,2013_Jan_11_1038,59.9494278358,MP-Perception Experiment,xx28m21,
244,training(41).webm,False,right,1,dmp_npsi(10)_final(7)_bad.webm,0,84,84,2,,,,,,,,11:06:35:635,11:06:36:291,11:06:39:294,right,11:06:39:527,,2013_Jan_11_1038,59.9494278358,MP-Perception Experiment,xx28m21,
245,training(34).webm,True,right,1,dmp_npsi(5)_final(9)_bad.webm,0,85,85,21,,,,,,,,11:06:40:210,11:06:41:028,11:06:44:031,right,11:06:44:414,,2013_Jan_11_1038,59.9494278358,MP-Perception Experiment,xx28m21,
246,vgpdm_dyn(30)-lvm(30)_final(1).webm,True,left,1,training(18).webm,0,86,86,135,,,,,,,,11:06:45:182,11:06:45:916,11:06:48:919,left,11:06:49:169,,2013_Jan_11_1038,59.9494278358,MP-Perception Experiment,xx28m21,
247,training(19).webm,False,right,1,dmp_npsi(50)_final(0).webm,0,87,87,37,,,,,,,,11:06:49:849,11:06:50:670,11:06:53:673,right,11:06:54:338,,2013_Jan_11_1038,59.9494278358,MP-Perception Experiment,xx28m21,
248,training(9).webm,True,right,1,vgpdm_dyn(30)-lvm(20)_final(5).webm,0,88,88,109,,,,,,,,11:06:55:012,11:06:55:839,11:06:58:842,right,11:07:00:176,,2013_Jan_11_1038,59.9494278358,MP-Perception Experiment,xx28m21,
249,dmp_npsi(35)_final(3).webm,True,left,1,training(24).webm,0,89,89,155,,,,,,,,11:07:00:880,11:07:01:678,11:07:04:680,right,11:07:05:699,,2013_Jan_11_1038,59.9494278358,MP-Perception Experiment,xx28m21,
250,training(30).webm,False,right,1,vcgpdm_dyn(15)-lvm(35)_final(8).webm,0,90,90,34,,,,,,,,11:07:06:376,11:07:07:218,11:07:10:204,right,11:07:10:621,,2013_Jan_11_1038,59.9494278358,MP-Perception Experiment,xx28m21,
251,vcgpdm_dyn(25)-lvm(10)_final(9).webm,True,left,1,training(2).webm,0,91,91,113,,,,,,,,11:07:11:306,11:07:12:122,11:07:15:125,left,11:07:15:358,,2013_Jan_11_1038,59.9494278358,MP-Perception Experiment,xx28m21,
252,training(24).webm,True,right,1,vcgpdm_dyn(15)-lvm(10)_final(3).webm,0,92,92,14,,,,,,,,11:07:16:206,11:07:16:859,11:07:19:862,right,11:07:20:229,,2013_Jan_11_1038,59.9494278358,MP-Perception Experiment,xx28m21,
253,training(34).webm,True,right,1,tmp_numprim(6)_final(9).webm,0,93,93,138,,,,,,,,11:07:20:911,11:07:21:730,11:07:24:733,right,11:07:24:817,,2013_Jan_11_1038,59.9494278358,MP-Perception Experiment,xx28m21,
254,vgpdm_dyn(30)-lvm(10)_final(8).webm,False,left,1,training(32).webm,0,94,94,68,,,,,,,,11:07:25:493,11:07:26:318,11:07:29:320,left,11:07:29:387,,2013_Jan_11_1038,59.9494278358,MP-Perception Experiment,xx28m21,
255,vgpdm_dyn(5)-lvm(10)_final(0).webm,True,left,1,training(37).webm,0,95,95,67,,,,,,,,11:07:30:070,11:07:30:888,11:07:33:891,left,11:07:34:174,,2013_Jan_11_1038,59.9494278358,MP-Perception Experiment,xx28m21,
256,vgpdm_dyn(15)-lvm(10)_final(1)_out_of_screen.webm,True,left,1,training(38).webm,0,96,96,143,,,,,,,,11:07:34:982,11:07:35:675,11:07:38:678,left,11:07:38:945,,2013_Jan_11_1038,59.9494278358,MP-Perception Experiment,xx28m21,
257,vcgpdm_dyn(10)-lvm(15)_final(3).webm,True,left,1,training(33).webm,0,97,97,105,,,,,,,,11:07:39:625,11:07:40:447,11:07:43:450,left,11:07:43:700,,2013_Jan_11_1038,59.9494278358,MP-Perception Experiment,xx28m21,
258,training(39).webm,False,right,1,dmp_npsi(45)_final(8).webm,0,98,98,25,,,,,,,,11:07:44:394,11:07:45:216,11:07:48:218,right,11:07:48:385,,2013_Jan_11_1038,59.9494278358,MP-Perception Experiment,xx28m21,
259,training(6).webm,False,right,1,vcgpdm_dyn(10)-lvm(15)_final(4).webm,0,99,99,100,,,,,,,,11:07:49:071,11:07:49:886,11:07:52:889,right,11:07:53:105,,2013_Jan_11_1038,59.9494278358,MP-Perception Experiment,xx28m21,
260,tmp_numprim(6)_final(0).webm,False,left,1,training(22).webm,0,100,100,122,,,,,,,,11:07:53:790,11:07:54:607,11:07:57:594,right,11:07:58:012,,2013_Jan_11_1038,59.9494278358,MP-Perception Experiment,xx28m21,
261,vcgpdm_dyn(20)-lvm(25)_final(5).webm,True,left,1,training(2).webm,0,101,101,93,,,,,,,,11:07:58:692,11:07:59:513,11:08:02:516,left,11:08:02:799,,2013_Jan_11_1038,59.9494278358,MP-Perception Experiment,xx28m21,
262,training(40).webm,True,right,1,vgpdm_dyn(10)-lvm(5)_final(9).webm,0,102,102,119,,,,,,,,11:08:03:636,11:08:04:301,11:08:07:303,left,11:08:07:386,,2013_Jan_11_1038,59.9494278358,MP-Perception Experiment,xx28m21,
263,dmp_npsi(45)_final(3).webm,False,left,1,training(11).webm,0,103,103,112,,,,,,,,11:08:08:163,11:08:08:888,11:08:11:890,left,11:08:12:140,,2013_Jan_11_1038,59.9494278358,MP-Perception Experiment,xx28m21,
264,training(15).webm,False,right,1,vgpdm_dyn(30)-lvm(30)_final(1).webm,0,104,104,120,,,,,,,,11:08:12:819,11:08:13:641,11:08:16:645,left,11:08:16:762,,2013_Jan_11_1038,59.9494278358,MP-Perception Experiment,xx28m21,
265,vcgpdm_dyn(20)-lvm(30)_final(0).webm,False,left,1,training(10).webm,0,105,105,77,,,,,,,,11:08:17:510,11:08:18:263,11:08:21:265,left,11:08:21:499,,2013_Jan_11_1038,59.9494278358,MP-Perception Experiment,xx28m21,
266,training(20).webm,True,right,1,vgpdm_dyn(20)-lvm(25)_final(9).webm,0,106,106,101,,,,,,,,11:08:22:185,11:08:23:000,11:08:26:002,right,11:08:26:670,,2013_Jan_11_1038,59.9494278358,MP-Perception Experiment,xx28m21,
267,training(48).webm,False,right,1,vcgpdm_dyn(5)-lvm(20)_final(1).webm,0,107,107,130,,,,,,,,11:08:27:351,11:08:28:171,11:08:31:173,right,11:08:31:340,,2013_Jan_11_1038,59.9494278358,MP-Perception Experiment,xx28m21,
268,training(21).webm,False,right,1,vgpdm_dyn(20)-lvm(30)_final(3).webm,0,108,108,158,,,,,,,,11:08:32:020,11:08:32:841,11:08:35:843,right,11:08:36:110,,2013_Jan_11_1038,59.9494278358,MP-Perception Experiment,xx28m21,
269,training(0).webm,True,right,1,vcgpdm_dyn(25)-lvm(20)_final(1).webm,0,109,109,53,,,,,,,,11:08:36:791,11:08:37:611,11:08:40:614,right,11:08:40:830,,2013_Jan_11_1038,59.9494278358,MP-Perception Experiment,xx28m21,
270,vcgpdm_dyn(5)-lvm(30)_final(8)_bad.webm,False,left,1,training(37).webm,0,110,110,151,,,,,,,,11:08:41:510,11:08:42:331,11:08:45:334,left,11:08:45:618,,2013_Jan_11_1038,59.9494278358,MP-Perception Experiment,xx28m21,
271,training(30).webm,False,right,1,tmp_numprim(9)_final(4).webm,0,111,111,106,,,,,,,,11:08:46:302,11:08:47:119,11:08:50:106,right,11:08:50:808,,2013_Jan_11_1038,59.9494278358,MP-Perception Experiment,xx28m21,
272,vgpdm_dyn(35)-lvm(30)_final(1).webm,False,left,1,training(27).webm,0,112,112,44,,,,,,,,11:08:51:489,11:08:52:309,11:08:55:312,left,11:08:55:612,,2013_Jan_11_1038,59.9494278358,MP-Perception Experiment,xx28m21,
273,training(37).webm,True,right,1,vgpdm_dyn(20)-lvm(15)_final(7).webm,0,113,113,108,,,,,,,,11:08:56:298,11:08:57:113,11:09:00:115,left,11:09:00:416,,2013_Jan_11_1038,59.9494278358,MP-Perception Experiment,xx28m21,
274,training(1).webm,True,right,1,map_gpdm_final(7).webm,0,114,114,43,,,,,,,,11:09:01:093,11:09:01:917,11:09:04:919,right,11:09:05:086,,2013_Jan_11_1038,59.9494278358,MP-Perception Experiment,xx28m21,
275,training(26).webm,False,right,1,vcgpdm_dyn(30)-lvm(30)_final(2).webm,0,115,115,23,,,,,,,,11:09:05:757,11:09:06:587,11:09:09:591,right,11:09:09:707,,2013_Jan_11_1038,59.9494278358,MP-Perception Experiment,xx28m21,
276,training(32).webm,False,right,1,vgpdm_dyn(30)-lvm(20)_final(8).webm,0,116,116,5,,,,,,,,11:09:10:511,11:09:11:209,11:09:14:211,left,11:09:14:595,,2013_Jan_11_1038,59.9494278358,MP-Perception Experiment,xx28m21,
277,vcgpdm_dyn(15)-lvm(5)_final(7).webm,False,left,1,training(38).webm,0,117,117,76,,,,,,,,11:09:15:440,11:09:16:096,11:09:19:098,left,11:09:19:182,,2013_Jan_11_1038,59.9494278358,MP-Perception Experiment,xx28m21,
278,training(15).webm,False,right,1,vcgpdm_dyn(25)-lvm(5)_final(9).webm,0,118,118,52,,,,,,,,11:09:20:025,11:09:20:683,11:09:23:685,right,11:09:23:802,,2013_Jan_11_1038,59.9494278358,MP-Perception Experiment,xx28m21,
279,vcgpdm_dyn(30)-lvm(25)_final(2).webm,False,left,1,training(1).webm,0,119,119,29,,,,,,,,11:09:24:492,11:09:25:319,11:09:28:322,left,11:09:28:639,,2013_Jan_11_1038,59.9494278358,MP-Perception Experiment,xx28m21,
280,training(1).webm,True,right,1,vgpdm_dyn(35)-lvm(35)_final(9).webm,0,120,120,96,,,,,,,,11:09:29:315,11:09:30:140,11:09:33:142,left,11:09:33:643,,2013_Jan_11_1038,59.9494278358,MP-Perception Experiment,xx28m21,
281,vgpdm_dyn(10)-lvm(25)_final(0).webm,False,left,1,training(26).webm,0,121,121,35,,,,,,,,11:09:34:478,11:09:35:144,11:09:38:131,left,11:09:38:865,,2013_Jan_11_1038,59.9494278358,MP-Perception Experiment,xx28m21,
282,training(31).webm,True,right,1,vcgpdm_dyn(25)-lvm(10)_final(4).webm,0,122,122,4,,,,,,,,11:09:39:715,11:09:40:366,11:09:43:370,right,11:09:43:787,,2013_Jan_11_1038,59.9494278358,MP-Perception Experiment,xx28m21,
283,vgpdm_dyn(5)-lvm(15)_final(9).webm,True,left,1,training(37).webm,0,123,123,69,,,,,,,,11:09:44:535,11:09:45:288,11:09:48:291,left,11:09:48:591,,2013_Jan_11_1038,59.9494278358,MP-Perception Experiment,xx28m21,
284,training(26).webm,True,right,1,vcgpdm_dyn(5)-lvm(15)_final(0).webm,0,124,124,73,,,,,,,,11:09:49:401,11:09:50:092,11:09:53:095,right,11:09:53:461,,2013_Jan_11_1038,59.9494278358,MP-Perception Experiment,xx28m21,
285,training(29).webm,False,right,1,vcgpdm_dyn(5)-lvm(5)_final(8).webm,0,125,125,125,,,,,,,,11:09:54:134,11:09:54:963,11:09:57:965,right,11:09:58:115,,2013_Jan_11_1038,59.9494278358,MP-Perception Experiment,xx28m21,
286,vcgpdm_dyn(35)-lvm(10)_final(5).webm,False,left,1,training(40).webm,0,126,126,6,,,,,,,,11:09:58:797,11:09:59:616,11:10:02:620,left,11:10:02:870,,2013_Jan_11_1038,59.9494278358,MP-Perception Experiment,xx28m21,
287,training(39).webm,False,right,1,vcgpdm_dyn(20)-lvm(20)_final(1).webm,0,127,127,80,,,,,,,,11:10:03:548,11:10:04:371,11:10:07:374,left,11:10:07:724,,2013_Jan_11_1038,59.9494278358,MP-Perception Experiment,xx28m21,
288,vgpdm_dyn(20)-lvm(15)_final(7).webm,False,left,1,training(18).webm,0,128,128,10,,,,,,,,11:10:08:396,11:10:09:225,11:10:12:228,right,11:10:13:278,,2013_Jan_11_1038,59.9494278358,MP-Perception Experiment,xx28m21,
289,training(35).webm,False,right,1,vgpdm_dyn(15)-lvm(25)_final(4).webm,0,129,129,40,,,,,,,,11:10:13:985,11:10:14:794,11:10:17:781,left,11:10:18:232,,2013_Jan_11_1038,59.9494278358,MP-Perception Experiment,xx28m21,
290,vgpdm_dyn(35)-lvm(5)_final(1).webm,False,left,1,training(0).webm,0,130,130,142,,,,,,,,11:10:18:914,11:10:19:733,11:10:22:735,left,11:10:23:002,,2013_Jan_11_1038,59.9494278358,MP-Perception Experiment,xx28m21,
291,training(39).webm,True,right,1,vcgpdm_dyn(10)-lvm(10)_final(5).webm,0,131,131,19,,,,,,,,11:10:23:678,11:10:24:503,11:10:27:491,right,11:10:27:708,,2013_Jan_11_1038,59.9494278358,MP-Perception Experiment,xx28m21,
292,vcgpdm_dyn(20)-lvm(5)_final(0).webm,True,left,1,training(22).webm,0,132,132,87,,,,,,,,11:10:28:391,11:10:29:209,11:10:32:211,left,11:10:33:913,,2013_Jan_11_1038,59.9494278358,MP-Perception Experiment,xx28m21,
293,vcgpdm_dyn(15)-lvm(30)_final(4).webm,True,left,1,training(41).webm,0,133,133,66,,,,,,,,11:10:34:596,11:10:35:415,11:10:38:417,left,11:10:38:634,,2013_Jan_11_1038,59.9494278358,MP-Perception Experiment,xx28m21,
294,training(22).webm,True,right,1,tmp_numprim(8)_final(0).webm,0,134,134,136,,,,,,,,11:10:39:318,11:10:40:135,11:10:43:138,left,11:10:43:672,,2013_Jan_11_1038,59.9494278358,MP-Perception Experiment,xx28m21,
295,vgpdm_dyn(10)-lvm(5)_final(1).webm,True,left,1,training(21).webm,0,135,135,32,,,,,,,,11:10:44:345,11:10:45:173,11:10:48:175,left,11:10:48:692,,2013_Jan_11_1038,59.9494278358,MP-Perception Experiment,xx28m21,
296,dmp_npsi(50)_final(3).webm,False,left,1,training(22).webm,0,136,136,56,,,,,,,,11:10:49:374,11:10:50:193,11:10:53:197,right,11:10:54:615,,2013_Jan_11_1038,59.9494278358,MP-Perception Experiment,xx28m21,
297,training(30).webm,False,right,1,vgpdm_dyn(25)-lvm(20)_final(7).webm,0,137,137,141,,,,,,,,11:10:55:292,11:10:56:116,11:10:59:119,right,11:10:59:369,,2013_Jan_11_1038,59.9494278358,MP-Perception Experiment,xx28m21,
298,training(3).webm,False,right,1,tmp_numprim(6)_final(5).webm,0,138,138,18,,,,,,,,11:11:00:051,11:11:00:870,11:11:03:872,left,11:11:06:106,,2013_Jan_11_1038,59.9494278358,MP-Perception Experiment,xx28m21,
299,vgpdm_dyn(10)-lvm(30)_final(4).webm,True,left,1,training(41).webm,0,139,139,20,,,,,,,,11:11:06:875,11:11:07:607,11:11:10:610,left,11:11:10:810,,2013_Jan_11_1038,59.9494278358,MP-Perception Experiment,xx28m21,
300,training(39).webm,True,right,1,vcgpdm_dyn(30)-lvm(5)_final(4).webm,0,140,140,17,,,,,,,,11:11:11:488,11:11:12:312,11:11:15:314,right,11:11:15:531,,2013_Jan_11_1038,59.9494278358,MP-Perception Experiment,xx28m21,
301,training(10).webm,False,right,1,vcgpdm_dyn(15)-lvm(20)_final(4).webm,0,141,141,71,,,,,,,,11:11:16:223,11:11:17:034,11:11:20:036,right,11:11:20:186,,2013_Jan_11_1038,59.9494278358,MP-Perception Experiment,xx28m21,
302,training(38).webm,True,right,1,vgpdm_dyn(35)-lvm(25)_final(9).webm,0,142,142,126,,,,,,,,11:11:20:872,11:11:21:688,11:11:24:690,right,11:11:25:057,,2013_Jan_11_1038,59.9494278358,MP-Perception Experiment,xx28m21,
303,vgpdm_dyn(30)-lvm(35)_final(4).webm,False,left,1,training(8).webm,0,143,143,58,,,,,,,,11:11:25:790,11:11:26:558,11:11:29:562,right,11:11:29:778,,2013_Jan_11_1038,59.9494278358,MP-Perception Experiment,xx28m21,
304,training(11).webm,True,right,1,vcgpdm_dyn(25)-lvm(35)_final(0).webm,0,144,144,144,,,,,,,,11:11:30:495,11:11:31:280,11:11:34:282,right,11:11:34:549,,2013_Jan_11_1038,59.9494278358,MP-Perception Experiment,xx28m21,
305,vgpdm_dyn(25)-lvm(5)_final(1).webm,True,left,1,training(29).webm,0,145,145,65,,,,,,,,11:11:35:370,11:11:36:050,11:11:39:053,left,11:11:39:153,,2013_Jan_11_1038,59.9494278358,MP-Perception Experiment,xx28m21,
306,training(24).webm,True,right,1,vgpdm_dyn(35)-lvm(20)_final(8)_out_of_screen.webm,0,146,146,54,,,,,,,,11:11:39:836,11:11:40:654,11:11:43:656,right,11:11:43:923,,2013_Jan_11_1038,59.9494278358,MP-Perception Experiment,xx28m21,
307,vcgpdm_dyn(30)-lvm(10)_final(7).webm,True,left,1,training(18).webm,0,147,147,62,,,,,,,,11:11:44:773,11:11:45:425,11:11:48:428,left,11:11:48:595,,2013_Jan_11_1038,59.9494278358,MP-Perception Experiment,xx28m21,
308,training(12).webm,True,right,1,vgpdm_dyn(20)-lvm(25)_final(7).webm,0,148,148,39,,,,,,,,11:11:49:278,11:11:50:096,11:11:53:098,right,11:11:53:632,,2013_Jan_11_1038,59.9494278358,MP-Perception Experiment,xx28m21,
309,vgpdm_dyn(35)-lvm(35)_final(0).webm,True,left,1,training(8).webm,0,149,149,15,,,,,,,,11:11:54:325,11:11:55:148,11:11:58:151,left,11:11:58:267,,2013_Jan_11_1038,59.9494278358,MP-Perception Experiment,xx28m21,
310,map_cgpdm_final(6).webm,False,left,1,training(34).webm,0,150,150,150,,,,,,,,11:11:58:951,11:11:59:768,11:12:02:772,left,11:12:02:955,,2013_Jan_11_1038,59.9494278358,MP-Perception Experiment,xx28m21,
311,tmp_numprim(4)_final(1).webm,False,left,1,training(33).webm,0,151,151,99,,,,,,,,11:12:03:684,11:12:04:457,11:12:07:444,left,11:12:07:528,,2013_Jan_11_1038,59.9494278358,MP-Perception Experiment,xx28m21,
312,training(17).webm,True,right,1,vgpdm_dyn(35)-lvm(10)_final(9).webm,0,152,152,28,,,,,,,,11:12:08:206,11:12:09:029,11:12:12:031,right,11:12:12:231,,2013_Jan_11_1038,59.9494278358,MP-Perception Experiment,xx28m21,
313,vgpdm_dyn(20)-lvm(15)_final(0).webm,True,left,1,training(2).webm,0,153,153,118,,,,,,,,11:12:12:906,11:12:13:733,11:12:16:735,left,11:12:17:035,,2013_Jan_11_1038,59.9494278358,MP-Perception Experiment,xx28m21,
314,vcgpdm_dyn(20)-lvm(20)_final(9).webm,True,left,1,training(38).webm,0,154,154,8,,,,,,,,11:12:17:810,11:12:18:536,11:12:21:540,right,11:12:23:358,,2013_Jan_11_1038,59.9494278358,MP-Perception Experiment,xx28m21,
315,training(17).webm,True,right,1,vgpdm_dyn(30)-lvm(25)_final(8).webm,0,155,155,0,,,,,,,,11:12:24:045,11:12:24:859,11:12:27:862,right,11:12:28:162,,2013_Jan_11_1038,59.9494278358,MP-Perception Experiment,xx28m21,
316,vgpdm_dyn(20)-lvm(25)_final(2).webm,True,left,1,training(22).webm,0,156,156,81,,,,,,,,11:12:28:841,11:12:29:663,11:12:32:666,right,11:12:32:899,,2013_Jan_11_1038,59.9494278358,MP-Perception Experiment,xx28m21,
317,training(37).webm,False,right,1,vcgpdm_dyn(30)-lvm(15)_final(7).webm,0,157,157,107,,,,,,,,11:12:33:577,11:12:34:400,11:12:37:403,right,11:12:37:637,,2013_Jan_11_1038,59.9494278358,MP-Perception Experiment,xx28m21,
318,training(8).webm,True,right,1,vcgpdm_dyn(15)-lvm(10)_final(0).webm,0,158,158,157,,,,,,,,11:12:38:484,11:12:39:138,11:12:42:141,left,11:12:42:541,,2013_Jan_11_1038,59.9494278358,MP-Perception Experiment,xx28m21,
319,vgpdm_dyn(35)-lvm(30)_final(8).webm,True,left,2,training(22).webm,0,0,0,144,,,,,,,,11:16:01:400,11:16:02:063,11:16:05:047,left,11:16:05:331,,2013_Jan_11_1038,59.9494278358,MP-Perception Experiment,xx28m21,
320,training(26).webm,False,right,2,vcgpdm_dyn(25)-lvm(15)_final(4).webm,0,1,1,143,,,,,,,,11:16:06:177,11:16:06:832,11:16:09:835,right,11:16:10:119,,2013_Jan_11_1038,59.9494278358,MP-Perception Experiment,xx28m21,
321,training(15).webm,True,right,2,vcgpdm_dyn(15)-lvm(35)_final(0).webm,0,2,2,23,,,,,,,,11:16:10:949,11:16:11:620,11:16:14:623,right,11:16:14:889,,2013_Jan_11_1038,59.9494278358,MP-Perception Experiment,xx28m21,
322,training(16).webm,False,right,2,vcgpdm_dyn(20)-lvm(10)_final(7).webm,0,3,3,22,,,,,,,,11:16:15:740,11:16:16:391,11:16:19:378,right,11:16:19:645,,2013_Jan_11_1038,59.9494278358,MP-Perception Experiment,xx28m21,
323,training(13).webm,True,right,2,vcgpdm_dyn(25)-lvm(35)_final(7).webm,0,4,4,94,,,,,,,,11:16:20:328,11:16:21:146,11:16:24:149,right,11:16:24:332,,2013_Jan_11_1038,59.9494278358,MP-Perception Experiment,xx28m21,
324,training(25).webm,True,right,2,vcgpdm_dyn(35)-lvm(5)_final(4).webm,0,5,5,78,,,,,,,,11:16:25:010,11:16:25:834,11:16:28:837,right,11:16:29:704,,2013_Jan_11_1038,59.9494278358,MP-Perception Experiment,xx28m21,
325,training(14).webm,False,right,2,vcgpdm_dyn(35)-lvm(5)_final(1).webm,0,6,6,69,,,,,,,,11:16:30:550,11:16:31:205,11:16:34:208,right,11:16:34:742,,2013_Jan_11_1038,59.9494278358,MP-Perception Experiment,xx28m21,
326,vcgpdm_dyn(15)-lvm(35)_final(9).webm,False,left,2,training(27).webm,0,7,7,117,,,,,,,,11:16:35:591,11:16:36:243,11:16:39:245,right,11:16:39:462,,2013_Jan_11_1038,59.9494278358,MP-Perception Experiment,xx28m21,
327,vgpdm_dyn(35)-lvm(30)_final(0).webm,False,left,2,training(22).webm,0,8,8,131,,,,,,,,11:16:40:189,11:16:40:963,11:16:43:967,left,11:16:44:184,,2013_Jan_11_1038,59.9494278358,MP-Perception Experiment,xx28m21,
328,training(37).webm,False,right,2,map_cgpdm_final(3).webm,0,9,9,108,,,,,,,,11:16:45:014,11:16:45:685,11:16:48:687,right,11:16:48:837,,2013_Jan_11_1038,59.9494278358,MP-Perception Experiment,xx28m21,
329,training(10).webm,False,right,2,tmp_numprim(2)_final(2).webm,0,10,10,128,,,,,,,,11:16:49:526,11:16:50:339,11:16:53:341,right,11:16:53:458,,2013_Jan_11_1038,59.9494278358,MP-Perception Experiment,xx28m21,
330,training(37).webm,True,right,2,vcgpdm_dyn(35)-lvm(20)_final(3).webm,0,11,11,82,,,,,,,,11:16:54:138,11:16:54:974,11:16:57:960,right,11:16:59:027,,2013_Jan_11_1038,59.9494278358,MP-Perception Experiment,xx28m21,
331,training(38).webm,True,right,2,vcgpdm_dyn(15)-lvm(10)_final(6).webm,0,12,12,120,,,,,,,,11:16:59:702,11:17:00:529,11:17:03:532,right,11:17:03:915,,2013_Jan_11_1038,59.9494278358,MP-Perception Experiment,xx28m21,
332,training(28).webm,False,right,2,tmp_numprim(2)_final(5).webm,0,13,13,111,,,,,,,,11:17:04:620,11:17:05:417,11:17:08:404,right,11:17:08:788,,2013_Jan_11_1038,59.9494278358,MP-Perception Experiment,xx28m21,
333,training(4).webm,False,right,2,vcgpdm_dyn(30)-lvm(10)_final(3).webm,0,14,14,29,,,,,,,,11:17:09:616,11:17:10:289,11:17:13:291,right,11:17:13:325,,2013_Jan_11_1038,59.9494278358,MP-Perception Experiment,xx28m21,
334,training(24).webm,True,right,2,dmp_npsi(30)_final(3).webm,0,15,15,96,,,,,,,,11:17:14:009,11:17:14:826,11:17:17:829,right,11:17:18:280,,2013_Jan_11_1038,59.9494278358,MP-Perception Experiment,xx28m21,
335,training(12).webm,False,right,2,vcgpdm_dyn(20)-lvm(5)_final(1).webm,0,16,16,31,,,,,,,,11:17:19:134,11:17:19:781,11:17:22:783,right,11:17:23:000,,2013_Jan_11_1038,59.9494278358,MP-Perception Experiment,xx28m21,
336,training(15).webm,True,right,2,vgpdm_dyn(10)-lvm(5)_final(6).webm,0,17,17,134,,,,,,,,11:17:23:686,11:17:24:501,11:17:27:504,right,11:17:27:754,,2013_Jan_11_1038,59.9494278358,MP-Perception Experiment,xx28m21,
337,vgpdm_dyn(15)-lvm(15)_final(5).webm,False,left,2,training(37).webm,0,18,18,27,,,,,,,,11:17:28:567,11:17:29:255,11:17:32:258,left,11:17:32:558,,2013_Jan_11_1038,59.9494278358,MP-Perception Experiment,xx28m21,
338,training(48).webm,True,right,2,vgpdm_dyn(35)-lvm(30)_final(3).webm,0,19,19,87,,,,,,,,11:17:33:234,11:17:34:059,11:17:37:063,right,11:17:37:079,,2013_Jan_11_1038,59.9494278358,MP-Perception Experiment,xx28m21,
339,training(29).webm,True,right,2,dmp_npsi(40)_final(8).webm,0,20,20,136,,,,,,,,11:17:37:761,11:17:38:580,11:17:41:583,right,11:17:41:733,,2013_Jan_11_1038,59.9494278358,MP-Perception Experiment,xx28m21,
340,vgpdm_dyn(10)-lvm(15)_final(1).webm,False,left,2,training(38).webm,0,21,21,48,,,,,,,,11:17:42:410,11:17:43:234,11:17:46:235,left,11:17:46:502,,2013_Jan_11_1038,59.9494278358,MP-Perception Experiment,xx28m21,
341,vcgpdm_dyn(5)-lvm(15)_final(0).webm,True,left,2,training(18).webm,0,22,22,158,,,,,,,,11:17:47:179,11:17:48:003,11:17:51:005,left,11:17:51:055,,2013_Jan_11_1038,59.9494278358,MP-Perception Experiment,xx28m21,
342,training(40).webm,True,right,2,dmp_npsi(50)_final(8).webm,0,23,23,38,,,,,,,,11:17:51:737,11:17:52:558,11:17:55:560,right,11:17:55:760,,2013_Jan_11_1038,59.9494278358,MP-Perception Experiment,xx28m21,
343,dmp_npsi(45)_final(2).webm,True,left,2,training(22).webm,0,24,24,115,,,,,,,,11:17:56:436,11:17:57:261,11:18:00:249,right,11:18:00:516,,2013_Jan_11_1038,59.9494278358,MP-Perception Experiment,xx28m21,
344,training(5).webm,False,right,2,dmp_npsi(30)_final(4).webm,0,25,25,109,,,,,,,,11:18:01:361,11:18:02:017,11:18:05:020,right,11:18:05:136,,2013_Jan_11_1038,59.9494278358,MP-Perception Experiment,xx28m21,
345,dmp_npsi(25)_final(1).webm,True,left,2,training(40).webm,0,26,26,70,,,,,,,,11:18:05:810,11:18:06:637,11:18:09:640,left,11:18:10:041,,2013_Jan_11_1038,59.9494278358,MP-Perception Experiment,xx28m21,
346,training(25).webm,False,right,2,vgpdm_dyn(30)-lvm(15)_final(7).webm,0,27,27,105,,,,,,,,11:18:10:717,11:18:11:542,11:18:14:545,right,11:18:14:762,,2013_Jan_11_1038,59.9494278358,MP-Perception Experiment,xx28m21,
347,vcgpdm_dyn(15)-lvm(30)_final(6).webm,False,left,2,training(20).webm,0,28,28,54,,,,,,,,11:18:15:496,11:18:16:263,11:18:19:265,left,11:18:19:516,,2013_Jan_11_1038,59.9494278358,MP-Perception Experiment,xx28m21,
348,vcgpdm_dyn(15)-lvm(5)_final(7).webm,False,left,2,training(36).webm,0,29,29,28,,,,,,,,11:18:20:192,11:18:21:017,11:18:24:019,left,11:18:24:453,,2013_Jan_11_1038,59.9494278358,MP-Perception Experiment,xx28m21,
349,vcgpdm_dyn(10)-lvm(30)_final(8).webm,True,left,2,training(11).webm,0,30,30,150,,,,,,,,11:18:25:179,11:18:25:954,11:18:28:957,left,11:18:29:141,,2013_Jan_11_1038,59.9494278358,MP-Perception Experiment,xx28m21,
350,vgpdm_dyn(5)-lvm(20)_final(5).webm,False,left,2,training(22).webm,0,31,31,62,,,,,,,,11:18:29:820,11:18:30:642,11:18:33:645,left,11:18:35:111,,2013_Jan_11_1038,59.9494278358,MP-Perception Experiment,xx28m21,
351,training(4).webm,True,right,2,vcgpdm_dyn(25)-lvm(20)_final(0).webm,0,32,32,3,,,,,,,,11:18:35:955,11:18:36:612,11:18:39:614,left,11:18:39:915,,2013_Jan_11_1038,59.9494278358,MP-Perception Experiment,xx28m21,
352,training(35).webm,False,right,2,vcgpdm_dyn(20)-lvm(10)_final(6).webm,0,33,33,4,,,,,,,,11:18:40:759,11:18:41:416,11:18:44:418,right,11:18:44:618,,2013_Jan_11_1038,59.9494278358,MP-Perception Experiment,xx28m21,
353,vgpdm_dyn(15)-lvm(15)_final(9).webm,True,left,2,training(21).webm,0,34,34,135,,,,,,,,11:18:45:303,11:18:46:122,11:18:49:108,left,11:18:49:158,,2013_Jan_11_1038,59.9494278358,MP-Perception Experiment,xx28m21,
354,vcgpdm_dyn(10)-lvm(35)_final(1).webm,True,left,2,training(22).webm,0,35,35,91,,,,,,,,11:18:49:885,11:18:50:659,11:18:53:662,left,11:18:53:995,,2013_Jan_11_1038,59.9494278358,MP-Perception Experiment,xx28m21,
355,dmp_npsi(15)_final(8).webm,False,left,2,training(5).webm,0,36,36,9,,,,,,,,11:18:54:677,11:18:55:496,11:18:58:499,left,11:18:58:532,,2013_Jan_11_1038,59.9494278358,MP-Perception Experiment,xx28m21,
356,training(17).webm,False,right,2,vcgpdm_dyn(25)-lvm(20)_final(2).webm,0,37,37,61,,,,,,,,11:18:59:209,11:19:00:033,11:19:03:037,right,11:19:05:689,,2013_Jan_11_1038,59.9494278358,MP-Perception Experiment,xx28m21,
357,training(30).webm,False,right,2,vgpdm_dyn(35)-lvm(10)_final(9).webm,0,38,38,0,,,,,,,,11:19:06:364,11:19:07:190,11:19:10:193,right,11:19:10:243,,2013_Jan_11_1038,59.9494278358,MP-Perception Experiment,xx28m21,
358,vgpdm_dyn(25)-lvm(5)_final(1).webm,False,left,2,training(40).webm,0,39,39,86,,,,,,,,11:19:10:917,11:19:11:744,11:19:14:747,right,11:19:15:130,,2013_Jan_11_1038,59.9494278358,MP-Perception Experiment,xx28m21,
359,training(25).webm,True,right,2,vgpdm_dyn(30)-lvm(25)_final(8).webm,0,40,40,132,,,,,,,,11:19:15:806,11:19:16:631,11:19:19:634,right,11:19:19:852,,2013_Jan_11_1038,59.9494278358,MP-Perception Experiment,xx28m21,
360,vcgpdm_dyn(35)-lvm(30)_final(0).webm,False,left,2,training(15).webm,0,41,41,63,,,,,,,,11:19:20:529,11:19:21:353,11:19:24:353,left,11:19:24:470,,2013_Jan_11_1038,59.9494278358,MP-Perception Experiment,xx28m21,
361,vcgpdm_dyn(15)-lvm(15)_final(6).webm,False,left,2,training(34).webm,0,42,42,92,,,,,,,,11:19:25:311,11:19:25:971,11:19:28:974,left,11:19:29:024,,2013_Jan_11_1038,59.9494278358,MP-Perception Experiment,xx28m21,
362,training(27).webm,True,right,2,vgpdm_dyn(25)-lvm(30)_final(1).webm,0,43,43,127,,,,,,,,11:19:29:872,11:19:30:525,11:19:33:527,right,11:19:33:728,,2013_Jan_11_1038,59.9494278358,MP-Perception Experiment,xx28m21,
363,training(41).webm,True,right,2,dmp_npsi(45)_final(9).webm,0,44,44,65,,,,,,,,11:19:34:575,11:19:35:229,11:19:38:232,right,11:19:38:449,,2013_Jan_11_1038,59.9494278358,MP-Perception Experiment,xx28m21,
364,vcgpdm_dyn(35)-lvm(5)_final(6).webm,True,left,2,training(2).webm,0,45,45,93,,,,,,,,11:19:39:140,11:19:39:952,11:19:42:955,left,11:19:44:005,,2013_Jan_11_1038,59.9494278358,MP-Perception Experiment,xx28m21,
365,training(2).webm,True,right,2,map_gpdm_final(2).webm,0,46,46,49,,,,,,,,11:19:44:833,11:19:45:506,11:19:48:509,right,11:19:48:709,,2013_Jan_11_1038,59.9494278358,MP-Perception Experiment,xx28m21,
366,vgpdm_dyn(30)-lvm(5)_final(3).webm,True,left,2,training(27).webm,0,47,47,40,,,,,,,,11:19:49:390,11:19:50:227,11:19:53:213,left,11:19:53:413,,2013_Jan_11_1038,59.9494278358,MP-Perception Experiment,xx28m21,
367,vgpdm_dyn(15)-lvm(30)_final(6).webm,True,left,2,training(6).webm,0,48,48,77,,,,,,,,11:19:54:096,11:19:54:915,11:19:57:918,left,11:19:58:201,,2013_Jan_11_1038,59.9494278358,MP-Perception Experiment,xx28m21,
368,training(40).webm,False,right,2,tmp_numprim(8)_final(1).webm,0,49,49,147,,,,,,,,11:19:58:885,11:19:59:702,11:20:02:705,right,11:20:02:922,,2013_Jan_11_1038,59.9494278358,MP-Perception Experiment,xx28m21,
369,training(28).webm,False,right,2,vcgpdm_dyn(10)-lvm(20)_final(1).webm,0,50,50,52,,,,,,,,11:20:03:604,11:20:04:439,11:20:07:425,right,11:20:07:709,,2013_Jan_11_1038,59.9494278358,MP-Perception Experiment,xx28m21,
370,training(3).webm,True,right,2,vcgpdm_dyn(10)-lvm(5)_final(5).webm,0,51,51,6,,,,,,,,11:20:08:388,11:20:09:210,11:20:12:214,right,11:20:12:530,,2013_Jan_11_1038,59.9494278358,MP-Perception Experiment,xx28m21,
371,vcgpdm_dyn(10)-lvm(25)_final(5).webm,False,left,2,training(23).webm,0,52,52,110,,,,,,,,11:20:13:211,11:20:14:032,11:20:17:032,left,11:20:17:049,,2013_Jan_11_1038,59.9494278358,MP-Perception Experiment,xx28m21,
372,training(33).webm,False,right,2,vcgpdm_dyn(15)-lvm(10)_final(5).webm,0,53,53,149,,,,,,,,11:20:17:864,11:20:18:550,11:20:21:553,right,11:20:21:719,,2013_Jan_11_1038,59.9494278358,MP-Perception Experiment,xx28m21,
373,vcgpdm_dyn(25)-lvm(35)_final(6).webm,True,left,2,training(35).webm,0,54,54,17,,,,,,,,11:20:22:401,11:20:23:220,11:20:26:208,left,11:20:26:475,,2013_Jan_11_1038,59.9494278358,MP-Perception Experiment,xx28m21,
374,dmp_npsi(40)_final(2).webm,True,left,2,training(9).webm,0,55,55,25,,,,,,,,11:20:27:294,11:20:27:976,11:20:30:980,right,11:20:31:430,,2013_Jan_11_1038,59.9494278358,MP-Perception Experiment,xx28m21,
375,training(6).webm,True,right,2,vcgpdm_dyn(35)-lvm(10)_final(6).webm,0,56,56,97,,,,,,,,11:20:32:107,11:20:32:931,11:20:35:934,right,11:20:35:950,,2013_Jan_11_1038,59.9494278358,MP-Perception Experiment,xx28m21,
376,training(16).webm,True,right,2,dmp_npsi(30)_final(4).webm,0,57,57,84,,,,,,,,11:20:36:625,11:20:37:451,11:20:40:454,right,11:20:40:571,,2013_Jan_11_1038,59.9494278358,MP-Perception Experiment,xx28m21,
377,vgpdm_dyn(20)-lvm(5)_final(2).webm,True,left,2,training(12).webm,0,58,58,103,,,,,,,,11:20:41:246,11:20:42:072,11:20:45:074,left,11:20:45:325,,2013_Jan_11_1038,59.9494278358,MP-Perception Experiment,xx28m21,
378,vgpdm_dyn(5)-lvm(10)_final(1).webm,True,left,2,training(13).webm,0,59,59,133,,,,,,,,11:20:46:004,11:20:46:826,11:20:49:829,left,11:20:49:863,,2013_Jan_11_1038,59.9494278358,MP-Perception Experiment,xx28m21,
379,training(18).webm,False,right,2,vcgpdm_dyn(25)-lvm(10)_final(3).webm,0,60,60,46,,,,,,,,11:20:50:706,11:20:51:364,11:20:54:366,right,11:20:54:583,,2013_Jan_11_1038,59.9494278358,MP-Perception Experiment,xx28m21,
380,vgpdm_dyn(10)-lvm(20)_final(0).webm,False,left,2,training(2).webm,0,61,61,68,,,,,,,,11:20:55:258,11:20:56:084,11:20:59:087,right,11:20:59:387,,2013_Jan_11_1038,59.9494278358,MP-Perception Experiment,xx28m21,
381,vcgpdm_dyn(25)-lvm(25)_final(8).webm,True,left,2,training(17).webm,0,62,62,15,,,,,,,,11:21:00:064,11:21:00:888,11:21:03:891,left,11:21:03:974,,2013_Jan_11_1038,59.9494278358,MP-Perception Experiment,xx28m21,
382,vgpdm_dyn(25)-lvm(20)_final(8).webm,True,left,2,training(36).webm,0,63,63,47,,,,,,,,11:21:04:670,11:21:05:491,11:21:08:493,left,11:21:08:861,,2013_Jan_11_1038,59.9494278358,MP-Perception Experiment,xx28m21,
383,vcgpdm_dyn(35)-lvm(20)_final(8).webm,True,left,2,training(13).webm,0,64,64,89,,,,,,,,11:21:09:543,11:21:10:362,11:21:13:364,right,11:21:14:465,,2013_Jan_11_1038,59.9494278358,MP-Perception Experiment,xx28m21,
384,tmp_numprim(10)_final(3).webm,True,left,2,training(24).webm,0,65,65,11,,,,,,,,11:21:15:143,11:21:15:968,11:21:18:954,left,11:21:19:271,,2013_Jan_11_1038,59.9494278358,MP-Perception Experiment,xx28m21,
385,training(38).webm,True,right,2,vcgpdm_dyn(10)-lvm(35)_final(2).webm,0,66,66,118,,,,,,,,11:21:19:959,11:21:20:772,11:21:23:775,right,11:21:24:009,,2013_Jan_11_1038,59.9494278358,MP-Perception Experiment,xx28m21,
386,vcgpdm_dyn(30)-lvm(30)_final(5).webm,True,left,2,training(7).webm,0,67,67,26,,,,,,,,11:21:24:687,11:21:25:510,11:21:28:512,left,11:21:28:663,,2013_Jan_11_1038,59.9494278358,MP-Perception Experiment,xx28m21,
387,training(14).webm,True,right,2,vcgpdm_dyn(10)-lvm(30)_final(7).webm,0,68,68,67,,,,,,,,11:21:29:337,11:21:30:164,11:21:33:166,right,11:21:33:366,,2013_Jan_11_1038,59.9494278358,MP-Perception Experiment,xx28m21,
388,training(31).webm,False,right,2,dmp_npsi(20)_final(1).webm,0,69,69,21,,,,,,,,11:21:34:073,11:21:34:867,11:21:37:870,right,11:21:38:103,,2013_Jan_11_1038,59.9494278358,MP-Perception Experiment,xx28m21,
389,training(24).webm,True,right,2,vgpdm_dyn(15)-lvm(35)_final(1).webm,0,70,70,32,,,,,,,,11:21:38:952,11:21:39:606,11:21:42:608,right,11:21:42:875,,2013_Jan_11_1038,59.9494278358,MP-Perception Experiment,xx28m21,
390,training(13).webm,False,right,2,vgpdm_dyn(30)-lvm(10)_final(8).webm,0,71,71,80,,,,,,,,11:21:43:556,11:21:44:376,11:21:47:379,right,11:21:47:645,,2013_Jan_11_1038,59.9494278358,MP-Perception Experiment,xx28m21,
391,training(20).webm,True,right,2,vgpdm_dyn(25)-lvm(30)_final(6).webm,0,72,72,58,,,,,,,,11:21:48:470,11:21:49:147,11:21:52:149,right,11:21:52:583,,2013_Jan_11_1038,59.9494278358,MP-Perception Experiment,xx28m21,
392,vgpdm_dyn(35)-lvm(25)_final(8).webm,True,left,2,training(30).webm,0,73,73,43,,,,,,,,11:21:53:261,11:21:54:084,11:21:57:086,left,11:21:57:486,,2013_Jan_11_1038,59.9494278358,MP-Perception Experiment,xx28m21,
393,training(20).webm,True,right,2,vgpdm_dyn(30)-lvm(25)_final(7).webm,0,74,74,35,,,,,,,,11:21:58:334,11:21:58:987,11:22:01:990,right,11:22:02:623,,2013_Jan_11_1038,59.9494278358,MP-Perception Experiment,xx28m21,
394,tmp_numprim(6)_final(9).webm,True,left,2,training(41).webm,0,75,75,90,,,,,,,,11:22:03:301,11:22:04:125,11:22:07:112,left,11:22:07:412,,2013_Jan_11_1038,59.9494278358,MP-Perception Experiment,xx28m21,
395,tmp_numprim(7)_final(8).webm,False,left,2,training(16).webm,0,76,76,152,,,,,,,,11:22:08:155,11:22:08:914,11:22:11:916,left,11:22:12:183,,2013_Jan_11_1038,59.9494278358,MP-Perception Experiment,xx28m21,
396,training(1).webm,False,right,2,tmp_numprim(2)_final(9).webm,0,77,77,41,,,,,,,,11:22:12:869,11:22:13:684,11:22:16:688,right,11:22:16:904,,2013_Jan_11_1038,59.9494278358,MP-Perception Experiment,xx28m21,
397,vgpdm_dyn(15)-lvm(30)_final(3).webm,False,left,2,training(28).webm,0,78,78,121,,,,,,,,11:22:17:580,11:22:18:406,11:22:21:408,left,11:22:21:792,,2013_Jan_11_1038,59.9494278358,MP-Perception Experiment,xx28m21,
398,training(31).webm,False,right,2,vgpdm_dyn(10)-lvm(5)_final(0).webm,0,79,79,151,,,,,,,,11:22:22:491,11:22:23:293,11:22:26:295,right,11:22:26:512,,2013_Jan_11_1038,59.9494278358,MP-Perception Experiment,xx28m21,
399,training(38).webm,False,right,2,vcgpdm_dyn(5)-lvm(15)_final(9).webm,0,80,80,8,,,,,,,,11:22:27:362,11:22:28:013,11:22:31:016,right,11:22:31:049,,2013_Jan_11_1038,59.9494278358,MP-Perception Experiment,xx28m21,
400,training(1).webm,True,right,2,vcgpdm_dyn(20)-lvm(5)_final(6).webm,0,81,81,116,,,,,,,,11:22:31:901,11:22:32:551,11:22:35:554,right,11:22:36:955,,2013_Jan_11_1038,59.9494278358,MP-Perception Experiment,xx28m21,
401,vgpdm_dyn(25)-lvm(20)_final(6).webm,False,left,2,training(3).webm,0,82,82,126,,,,,,,,11:22:37:780,11:22:38:456,11:22:41:459,left,11:22:41:826,,2013_Jan_11_1038,59.9494278358,MP-Perception Experiment,xx28m21,
402,vgpdm_dyn(20)-lvm(35)_final(7).webm,True,left,2,training(48).webm,0,83,83,153,,,,,,,,11:22:42:507,11:22:43:327,11:22:46:328,left,11:22:46:661,,2013_Jan_11_1038,59.9494278358,MP-Perception Experiment,xx28m21,
403,training(26).webm,True,right,2,vcgpdm_dyn(30)-lvm(25)_final(0).webm,0,84,84,104,,,,,,,,11:22:47:468,11:22:48:162,11:22:51:166,right,11:22:51:416,,2013_Jan_11_1038,59.9494278358,MP-Perception Experiment,xx28m21,
404,training(29).webm,False,right,2,vgpdm_dyn(30)-lvm(15)_final(0).webm,0,85,85,155,,,,,,,,11:22:52:267,11:22:52:917,11:22:55:919,right,11:22:56:020,,2013_Jan_11_1038,59.9494278358,MP-Perception Experiment,xx28m21,
405,training(6).webm,True,right,2,vgpdm_dyn(10)-lvm(30)_final(5).webm,0,86,86,138,,,,,,,,11:22:56:878,11:22:57:521,11:23:00:508,right,11:23:00:809,,2013_Jan_11_1038,59.9494278358,MP-Perception Experiment,xx28m21,
406,tmp_numprim(8)_final(7).webm,True,left,2,training(39).webm,0,87,87,99,,,,,,,,11:23:01:655,11:23:02:310,11:23:05:312,left,11:23:05:512,,2013_Jan_11_1038,59.9494278358,MP-Perception Experiment,xx28m21,
407,vgpdm_dyn(20)-lvm(20)_final(3).webm,False,left,2,training(12).webm,0,88,88,57,,,,,,,,11:23:06:191,11:23:07:013,11:23:10:017,left,11:23:10:200,,2013_Jan_11_1038,59.9494278358,MP-Perception Experiment,xx28m21,
408,vcgpdm_dyn(30)-lvm(20)_final(8).webm,True,left,2,training(17).webm,0,89,89,66,,,,,,,,11:23:10:882,11:23:11:702,11:23:14:704,left,11:23:14:954,,2013_Jan_11_1038,59.9494278358,MP-Perception Experiment,xx28m21,
409,training(34).webm,True,right,2,vcgpdm_dyn(35)-lvm(30)_final(5).webm,0,90,90,145,,,,,,,,11:23:15:640,11:23:16:455,11:23:19:458,right,11:23:19:691,,2013_Jan_11_1038,59.9494278358,MP-Perception Experiment,xx28m21,
410,training(23).webm,True,right,2,vgpdm_dyn(30)-lvm(30)_final(7).webm,0,91,91,137,,,,,,,,11:23:20:371,11:23:21:193,11:23:24:195,right,11:23:26:398,,2013_Jan_11_1038,59.9494278358,MP-Perception Experiment,xx28m21,
411,training(17).webm,True,right,2,vcgpdm_dyn(30)-lvm(15)_final(8).webm,0,92,92,20,,,,,,,,11:23:27:068,11:23:27:899,11:23:30:902,right,11:23:31:135,,2013_Jan_11_1038,59.9494278358,MP-Perception Experiment,xx28m21,
412,vcgpdm_dyn(30)-lvm(10)_final(2).webm,False,left,2,training(30).webm,0,93,93,146,,,,,,,,11:23:31:816,11:23:32:636,11:23:35:637,right,11:23:35:870,,2013_Jan_11_1038,59.9494278358,MP-Perception Experiment,xx28m21,
413,training(8).webm,True,right,2,vcgpdm_dyn(5)-lvm(5)_final(0).webm,0,94,94,98,,,,,,,,11:23:36:546,11:23:37:372,11:23:40:374,right,11:23:40:541,,2013_Jan_11_1038,59.9494278358,MP-Perception Experiment,xx28m21,
414,vcgpdm_dyn(10)-lvm(25)_final(3).webm,False,left,2,training(19).webm,0,95,95,141,,,,,,,,11:23:41:218,11:23:42:043,11:23:45:062,left,11:23:45:546,,2013_Jan_11_1038,59.9494278358,MP-Perception Experiment,xx28m21,
415,vgpdm_dyn(25)-lvm(35)_final(5).webm,False,left,2,training(31).webm,0,96,96,50,,,,,,,,11:23:46:225,11:23:47:049,11:23:50:051,left,11:23:50:485,,2013_Jan_11_1038,59.9494278358,MP-Perception Experiment,xx28m21,
416,training(16).webm,True,right,2,vgpdm_dyn(10)-lvm(35)_final(6).webm,0,97,97,74,,,,,,,,11:23:51:256,11:23:51:986,11:23:54:989,right,11:23:55:272,,2013_Jan_11_1038,59.9494278358,MP-Perception Experiment,xx28m21,
417,vgpdm_dyn(10)-lvm(35)_final(0).webm,False,left,2,training(34).webm,0,98,98,44,,,,,,,,11:23:55:959,11:23:56:773,11:23:59:777,left,11:23:59:894,,2013_Jan_11_1038,59.9494278358,MP-Perception Experiment,xx28m21,
418,vgpdm_dyn(25)-lvm(30)_final(9).webm,True,left,2,training(48).webm,0,99,99,1,,,,,,,,11:24:00:660,11:24:01:395,11:24:04:397,left,11:24:04:581,,2013_Jan_11_1038,59.9494278358,MP-Perception Experiment,xx28m21,
419,training(10).webm,False,right,2,vgpdm_dyn(5)-lvm(30)_final(1).webm,0,100,100,34,,,,,,,,11:24:05:440,11:24:06:082,11:24:09:084,right,11:24:09:134,,2013_Jan_11_1038,59.9494278358,MP-Perception Experiment,xx28m21,
420,vgpdm_dyn(30)-lvm(5)_final(5).webm,False,left,2,training(36).webm,0,101,101,112,,,,,,,,11:24:09:902,11:24:10:635,11:24:13:638,left,11:24:13:838,,2013_Jan_11_1038,59.9494278358,MP-Perception Experiment,xx28m21,
421,training(38).webm,True,right,2,vcgpdm_dyn(30)-lvm(5)_final(4).webm,0,102,102,12,,,,,,,,11:24:14:512,11:24:15:339,11:24:18:343,right,11:24:18:710,,2013_Jan_11_1038,59.9494278358,MP-Perception Experiment,xx28m21,
422,training(24).webm,True,right,2,vcgpdm_dyn(15)-lvm(20)_final(3).webm,0,103,103,19,,,,,,,,11:24:19:562,11:24:20:211,11:24:23:213,right,11:24:23:447,,2013_Jan_11_1038,59.9494278358,MP-Perception Experiment,xx28m21,
423,training(19).webm,True,right,2,tmp_numprim(5)_final(2).webm,0,104,104,30,,,,,,,,11:24:24:132,11:24:24:963,11:24:27:949,right,11:24:28:082,,2013_Jan_11_1038,59.9494278358,MP-Perception Experiment,xx28m21,
424,vcgpdm_dyn(20)-lvm(30)_final(5).webm,False,left,2,training(17).webm,0,105,105,79,,,,,,,,11:24:28:768,11:24:29:583,11:24:32:586,left,11:24:32:753,,2013_Jan_11_1038,59.9494278358,MP-Perception Experiment,xx28m21,
425,vcgpdm_dyn(15)-lvm(20)_final(3).webm,True,left,2,training(36).webm,0,106,106,95,,,,,,,,11:24:33:430,11:24:34:254,11:24:37:242,left,11:24:37:443,,2013_Jan_11_1038,59.9494278358,MP-Perception Experiment,xx28m21,
426,vgpdm_dyn(30)-lvm(15)_final(7).webm,True,left,2,training(13).webm,0,107,107,75,,,,,,,,11:24:38:119,11:24:38:944,11:24:41:963,left,11:24:42:296,,2013_Jan_11_1038,59.9494278358,MP-Perception Experiment,xx28m21,
427,training(14).webm,True,right,2,tmp_numprim(10)_final(5).webm,0,108,108,55,,,,,,,,11:24:42:972,11:24:43:798,11:24:46:800,left,11:24:47:034,,2013_Jan_11_1038,59.9494278358,MP-Perception Experiment,xx28m21,
428,vcgpdm_dyn(30)-lvm(5)_final(1).webm,True,left,2,training(28).webm,0,109,109,102,,,,,,,,11:24:47:771,11:24:48:535,11:24:51:537,left,11:24:51:754,,2013_Jan_11_1038,59.9494278358,MP-Perception Experiment,xx28m21,
429,training(33).webm,True,right,2,vcgpdm_dyn(30)-lvm(35)_final(5).webm,0,110,110,39,,,,,,,,11:24:52:466,11:24:53:256,11:24:56:259,left,11:24:56:392,,2013_Jan_11_1038,59.9494278358,MP-Perception Experiment,xx28m21,
430,training(18).webm,False,right,2,vgpdm_dyn(5)-lvm(15)_final(8).webm,0,111,111,24,,,,,,,,11:24:57:072,11:24:57:893,11:25:00:896,right,11:25:00:946,,2013_Jan_11_1038,59.9494278358,MP-Perception Experiment,xx28m21,
431,training(1).webm,False,right,2,dmp_npsi(30)_final(0).webm,0,112,112,16,,,,,,,,11:25:01:627,11:25:02:447,11:25:05:450,right,11:25:05:550,,2013_Jan_11_1038,59.9494278358,MP-Perception Experiment,xx28m21,
432,training(48).webm,False,right,2,dmp_npsi(50)_final(4).webm,0,113,113,72,,,,,,,,11:25:06:369,11:25:07:051,11:25:10:054,right,11:25:10:254,,2013_Jan_11_1038,59.9494278358,MP-Perception Experiment,xx28m21,
433,training(10).webm,False,right,2,vcgpdm_dyn(5)-lvm(10)_final(0).webm,0,114,114,64,,,,,,,,11:25:11:115,11:25:11:755,11:25:14:756,right,11:25:14:906,,2013_Jan_11_1038,59.9494278358,MP-Perception Experiment,xx28m21,
434,vcgpdm_dyn(25)-lvm(25)_final(6).webm,False,left,2,training(22).webm,0,115,115,142,,,,,,,,11:25:15:586,11:25:16:407,11:25:19:410,right,11:25:19:977,,2013_Jan_11_1038,59.9494278358,MP-Perception Experiment,xx28m21,
435,vgpdm_dyn(25)-lvm(35)_final(9).webm,True,left,2,training(13).webm,0,116,116,59,,,,,,,,11:25:20:660,11:25:21:478,11:25:24:481,left,11:25:24:514,,2013_Jan_11_1038,59.9494278358,MP-Perception Experiment,xx28m21,
436,vgpdm_dyn(20)-lvm(5)_final(9).webm,True,left,2,training(7).webm,0,117,117,10,,,,,,,,11:25:25:197,11:25:26:015,11:25:29:004,left,11:25:29:121,,2013_Jan_11_1038,59.9494278358,MP-Perception Experiment,xx28m21,
437,dmp_npsi(25)_final(9).webm,False,left,2,training(7).webm,0,118,118,81,,,,,,,,11:25:29:808,11:25:30:622,11:25:33:624,left,11:25:33:908,,2013_Jan_11_1038,59.9494278358,MP-Perception Experiment,xx28m21,
438,training(36).webm,True,right,2,vcgpdm_dyn(20)-lvm(25)_final(4).webm,0,119,119,83,,,,,,,,11:25:34:591,11:25:35:409,11:25:38:412,right,11:25:38:645,,2013_Jan_11_1038,59.9494278358,MP-Perception Experiment,xx28m21,
439,dmp_npsi(25)_final(8).webm,False,left,2,training(24).webm,0,120,120,18,,,,,,,,11:25:39:413,11:25:40:146,11:25:43:149,left,11:25:43:516,,2013_Jan_11_1038,59.9494278358,MP-Perception Experiment,xx28m21,
440,vcgpdm_dyn(30)-lvm(35)_final(1).webm,True,left,2,training(6).webm,0,121,121,5,,,,,,,,11:25:44:150,11:25:45:018,11:25:48:020,left,11:25:48:037,,2013_Jan_11_1038,59.9494278358,MP-Perception Experiment,xx28m21,
441,vcgpdm_dyn(35)-lvm(5)_final(7).webm,False,left,2,training(13).webm,0,122,122,14,,,,,,,,11:25:48:715,11:25:49:538,11:25:52:541,left,11:25:52:757,,2013_Jan_11_1038,59.9494278358,MP-Perception Experiment,xx28m21,
442,map_cgpdm_final(5).webm,False,left,2,training(11).webm,0,123,123,139,,,,,,,,11:25:53:454,11:25:54:258,11:25:57:261,left,11:25:57:378,,2013_Jan_11_1038,59.9494278358,MP-Perception Experiment,xx28m21,
443,training(39).webm,False,right,2,vgpdm_dyn(20)-lvm(20)_final(6).webm,0,124,124,101,,,,,,,,11:25:58:058,11:25:58:879,11:26:01:882,right,11:26:02:149,,2013_Jan_11_1038,59.9494278358,MP-Perception Experiment,xx28m21,
444,vgpdm_dyn(20)-lvm(20)_final(7).webm,False,left,2,training(48).webm,0,125,125,56,,,,,,,,11:26:02:785,11:26:03:650,11:26:06:651,left,11:26:06:668,,2013_Jan_11_1038,59.9494278358,MP-Perception Experiment,xx28m21,
445,training(11).webm,False,right,2,vcgpdm_dyn(10)-lvm(5)_final(8).webm,0,126,126,119,,,,,,,,11:26:07:356,11:26:08:169,11:26:11:171,right,11:26:11:205,,2013_Jan_11_1038,59.9494278358,MP-Perception Experiment,xx28m21,
446,vcgpdm_dyn(20)-lvm(35)_final(9).webm,False,left,2,training(26).webm,0,127,127,85,,,,,,,,11:26:11:887,11:26:12:706,11:26:15:708,right,11:26:15:859,,2013_Jan_11_1038,59.9494278358,MP-Perception Experiment,xx28m21,
447,vcgpdm_dyn(20)-lvm(10)_final(6).webm,True,left,2,training(39).webm,0,128,128,106,,,,,,,,11:26:16:537,11:26:17:360,11:26:20:348,left,11:26:20:765,,2013_Jan_11_1038,59.9494278358,MP-Perception Experiment,xx28m21,
448,training(17).webm,False,right,2,vcgpdm_dyn(25)-lvm(35)_final(8).webm,0,129,129,124,,,,,,,,11:26:21:447,11:26:22:266,11:26:25:269,right,11:26:25:436,,2013_Jan_11_1038,59.9494278358,MP-Perception Experiment,xx28m21,
449,vcgpdm_dyn(10)-lvm(15)_final(4).webm,True,left,2,training(12).webm,0,130,130,122,,,,,,,,11:26:26:116,11:26:26:937,11:26:29:939,left,11:26:30:073,,2013_Jan_11_1038,59.9494278358,MP-Perception Experiment,xx28m21,
450,training(15).webm,True,right,2,dmp_npsi(30)_final(4).webm,0,131,131,53,,,,,,,,11:26:30:751,11:26:31:574,11:26:34:577,right,11:26:34:893,,2013_Jan_11_1038,59.9494278358,MP-Perception Experiment,xx28m21,
451,training(24).webm,False,right,2,map_cgpdm_final(8).webm,0,132,132,73,,,,,,,,11:26:35:579,11:26:36:394,11:26:39:398,right,11:26:39:665,,2013_Jan_11_1038,59.9494278358,MP-Perception Experiment,xx28m21,
452,tmp_numprim(2)_final(2).webm,True,left,2,training(28).webm,0,133,133,157,,,,,,,,11:26:40:342,11:26:41:166,11:26:44:169,left,11:26:44:402,,2013_Jan_11_1038,59.9494278358,MP-Perception Experiment,xx28m21,
453,training(6).webm,True,right,2,vgpdm_dyn(10)-lvm(20)_final(0).webm,0,134,134,7,,,,,,,,11:26:45:076,11:26:45:903,11:26:48:906,left,11:26:48:972,,2013_Jan_11_1038,59.9494278358,MP-Perception Experiment,xx28m21,
454,training(25).webm,True,right,2,tmp_numprim(3)_final(4).webm,0,135,135,60,,,,,,,,11:26:49:820,11:26:50:473,11:26:53:476,right,11:26:53:660,,2013_Jan_11_1038,59.9494278358,MP-Perception Experiment,xx28m21,
455,training(27).webm,False,right,2,vgpdm_dyn(25)-lvm(35)_final(6).webm,0,136,136,148,,,,,,,,11:26:54:338,11:26:55:177,11:26:58:162,right,11:26:58:279,,2013_Jan_11_1038,59.9494278358,MP-Perception Experiment,xx28m21,
456,vcgpdm_dyn(35)-lvm(20)_final(7).webm,False,left,2,training(13).webm,0,137,137,51,,,,,,,,11:26:59:040,11:26:59:780,11:27:02:783,left,11:27:02:799,,2013_Jan_11_1038,59.9494278358,MP-Perception Experiment,xx28m21,
457,training(0).webm,False,right,2,vgpdm_dyn(10)-lvm(15)_final(5).webm,0,138,138,2,,,,,,,,11:27:03:483,11:27:04:301,11:27:07:288,right,11:27:07:488,,2013_Jan_11_1038,59.9494278358,MP-Perception Experiment,xx28m21,
458,training(34).webm,True,right,2,tmp_numprim(8)_final(8).webm,0,139,139,37,,,,,,,,11:27:08:173,11:27:08:989,11:27:11:993,right,11:27:12:427,,2013_Jan_11_1038,59.9494278358,MP-Perception Experiment,xx28m21,
459,training(9).webm,False,right,2,vcgpdm_dyn(15)-lvm(25)_final(9).webm,0,140,140,107,,,,,,,,11:27:13:107,11:27:13:928,11:27:16:930,right,11:27:17:197,,2013_Jan_11_1038,59.9494278358,MP-Perception Experiment,xx28m21,
460,vcgpdm_dyn(10)-lvm(30)_final(1).webm,True,left,2,training(40).webm,0,141,141,156,,,,,,,,11:27:17:878,11:27:18:698,11:27:21:701,left,11:27:22:034,,2013_Jan_11_1038,59.9494278358,MP-Perception Experiment,xx28m21,
461,vgpdm_dyn(35)-lvm(35)_final(9).webm,True,left,2,training(15).webm,0,142,142,76,,,,,,,,11:27:22:707,11:27:23:536,11:27:26:538,left,11:27:26:805,,2013_Jan_11_1038,59.9494278358,MP-Perception Experiment,xx28m21,
462,vgpdm_dyn(20)-lvm(15)_final(0).webm,True,left,2,training(32).webm,0,143,143,13,,,,,,,,11:27:27:482,11:27:28:306,11:27:31:310,right,11:27:32:711,,2013_Jan_11_1038,59.9494278358,MP-Perception Experiment,xx28m21,
463,vcgpdm_dyn(15)-lvm(10)_final(7).webm,True,left,2,training(33).webm,0,144,144,71,,,,,,,,11:27:33:393,11:27:34:212,11:27:37:214,left,11:27:37:548,,2013_Jan_11_1038,59.9494278358,MP-Perception Experiment,xx28m21,
464,tmp_numprim(3)_final(0).webm,True,left,2,training(20).webm,0,145,145,129,,,,,,,,11:27:38:232,11:27:39:049,11:27:42:052,left,11:27:42:352,,2013_Jan_11_1038,59.9494278358,MP-Perception Experiment,xx28m21,
465,vgpdm_dyn(20)-lvm(5)_final(4).webm,True,left,2,training(7).webm,0,146,146,100,,,,,,,,11:27:43:043,11:27:43:870,11:27:46:855,left,11:27:47:105,,2013_Jan_11_1038,59.9494278358,MP-Perception Experiment,xx28m21,
466,training(4).webm,False,right,2,vcgpdm_dyn(20)-lvm(35)_final(5).webm,0,147,147,113,,,,,,,,11:27:47:936,11:27:48:606,11:27:51:608,right,11:27:51:875,,2013_Jan_11_1038,59.9494278358,MP-Perception Experiment,xx28m21,
467,vcgpdm_dyn(20)-lvm(35)_final(2).webm,False,left,2,training(41).webm,0,148,148,36,,,,,,,,11:27:52:561,11:27:53:376,11:27:56:364,right,11:27:56:548,,2013_Jan_11_1038,59.9494278358,MP-Perception Experiment,xx28m21,
468,vcgpdm_dyn(25)-lvm(35)_final(0).webm,True,left,2,training(35).webm,0,149,149,130,,,,,,,,11:27:57:231,11:27:58:049,11:28:01:051,left,11:28:01:318,,2013_Jan_11_1038,59.9494278358,MP-Perception Experiment,xx28m21,
469,tmp_numprim(4)_final(3).webm,False,left,2,training(27).webm,0,150,150,45,,,,,,,,11:28:02:046,11:28:02:819,11:28:05:823,left,11:28:06:140,,2013_Jan_11_1038,59.9494278358,MP-Perception Experiment,xx28m21,
