trial_number,right,flipped,correct,block,left,trials.thisRepN,trials.thisTrialN,trials.thisN,trials.thisIndex,flipwelcome.keys,flipwelcome.corr,flipwelcome.rt,flippreparations.keys,flippreparations.rt,flipInstructions.keys,flipInstructions.rt,time_at_fixation_cross_onset,time_at_videoonset,time_at_videoend,participant_key_response,time_at_key_response,key_resp_4.keys,date,frameRate,expName,participant,
,,,,,,,,,,space,0,42.0544165361,,,,,,,,,,,2013_Jan_12_1333,59.9556699969,MP-Perception Experiment,xx29w25,
,,,,,,,,,,,,,space,53.4456149365,,,,,,,,,2013_Jan_12_1333,59.9556699969,MP-Perception Experiment,xx29w25,
,,,,,,,,,,,,,,,space,7.02101795864,,,,,,,2013_Jan_12_1333,59.9556699969,MP-Perception Experiment,xx29w25,
1,vcgpdm_dyn(20)-lvm(20)_final(7).webm,False,left,0,training(9).webm,0,0,0,35,,,,,,,,13:34:58:231,13:34:58:739,13:35:01:276,left,13:35:01:459,,2013_Jan_12_1333,59.9556699969,MP-Perception Experiment,xx29w25,
2,vcgpdm_dyn(10)-lvm(30)_final(2).webm,True,left,0,training(8).webm,0,1,1,139,,,,,,,,13:35:02:140,13:35:02:960,13:35:05:948,right,13:35:06:698,,2013_Jan_12_1333,59.9556699969,MP-Perception Experiment,xx29w25,
3,training(21).webm,True,right,0,vgpdm_dyn(5)-lvm(10)_final(3).webm,0,2,2,146,,,,,,,,13:35:07:381,13:35:08:200,13:35:11:202,right,13:35:11:502,,2013_Jan_12_1333,59.9556699969,MP-Perception Experiment,xx29w25,
4,vcgpdm_dyn(20)-lvm(5)_final(4).webm,True,left,0,training(9).webm,0,3,3,121,,,,,,,,13:35:12:225,13:35:13:003,13:35:16:006,left,13:35:16:290,,2013_Jan_12_1333,59.9556699969,MP-Perception Experiment,xx29w25,
5,training(0).webm,False,right,0,vgpdm_dyn(5)-lvm(10)_final(7).webm,0,4,4,154,,,,,,,,13:35:16:974,13:35:17:791,13:35:20:794,right,13:35:21:111,,2013_Jan_12_1333,59.9556699969,MP-Perception Experiment,xx29w25,
6,training(34).webm,False,right,0,tmp_numprim(5)_final(1).webm,0,5,5,119,,,,,,,,13:35:21:925,13:35:22:612,13:35:25:615,right,13:35:25:998,,2013_Jan_12_1333,59.9556699969,MP-Perception Experiment,xx29w25,
7,training(20).webm,True,right,0,vcgpdm_dyn(5)-lvm(10)_final(5).webm,0,6,6,26,,,,,,,,13:35:26:684,13:35:27:499,13:35:30:502,right,13:35:30:819,,2013_Jan_12_1333,59.9556699969,MP-Perception Experiment,xx29w25,
8,dmp_npsi(15)_final(7).webm,False,left,0,training(18).webm,0,7,7,77,,,,,,,,13:35:31:664,13:35:32:320,13:35:35:324,left,13:35:35:857,,2013_Jan_12_1333,59.9556699969,MP-Perception Experiment,xx29w25,
9,training(37).webm,False,right,0,vcgpdm_dyn(25)-lvm(10)_final(8).webm,0,8,8,81,,,,,,,,13:35:36:543,13:35:37:358,13:35:40:361,right,13:35:40:711,,2013_Jan_12_1333,59.9556699969,MP-Perception Experiment,xx29w25,
10,vcgpdm_dyn(30)-lvm(10)_final(7).webm,True,left,0,training(10).webm,0,9,9,36,,,,,,,,13:35:41:557,13:35:42:212,13:35:45:213,right,13:35:45:647,,2013_Jan_12_1333,59.9556699969,MP-Perception Experiment,xx29w25,
11,vcgpdm_dyn(35)-lvm(10)_final(8).webm,False,left,0,training(0).webm,0,10,10,131,,,,,,,,13:35:46:323,13:35:47:148,13:35:50:150,right,13:35:50:751,,2013_Jan_12_1333,59.9556699969,MP-Perception Experiment,xx29w25,
12,training(27).webm,False,right,0,vcgpdm_dyn(25)-lvm(15)_final(0).webm,0,11,11,74,,,,,,,,13:35:51:583,13:35:52:252,13:35:55:256,right,13:35:56:290,,2013_Jan_12_1333,59.9556699969,MP-Perception Experiment,xx29w25,
13,training(4).webm,True,right,0,vgpdm_dyn(30)-lvm(10)_final(4).webm,0,12,12,48,,,,,,,,13:35:56:975,13:35:57:793,13:36:00:778,left,13:36:01:195,,2013_Jan_12_1333,59.9556699969,MP-Perception Experiment,xx29w25,
14,dmp_npsi(40)_final(8).webm,True,left,0,training(12).webm,0,13,13,128,,,,,,,,13:36:02:058,13:36:02:697,13:36:05:699,left,13:36:07:000,,2013_Jan_12_1333,59.9556699969,MP-Perception Experiment,xx29w25,
15,training(4).webm,False,right,0,dmp_npsi(45)_final(1).webm,0,14,14,157,,,,,,,,13:36:07:669,13:36:08:501,13:36:11:505,right,13:36:13:473,,2013_Jan_12_1333,59.9556699969,MP-Perception Experiment,xx29w25,
16,tmp_numprim(7)_final(3).webm,True,left,0,training(35).webm,0,15,15,49,,,,,,,,13:36:14:284,13:36:14:974,13:36:17:977,right,13:36:19:962,,2013_Jan_12_1333,59.9556699969,MP-Perception Experiment,xx29w25,
17,training(9).webm,False,right,0,vgpdm_dyn(10)-lvm(10)_final(2).webm,0,16,16,91,,,,,,,,13:36:20:641,13:36:21:463,13:36:24:465,right,13:36:25:016,,2013_Jan_12_1333,59.9556699969,MP-Perception Experiment,xx29w25,
18,vgpdm_dyn(5)-lvm(10)_final(3).webm,False,left,0,training(33).webm,0,17,17,13,,,,,,,,13:36:25:693,13:36:26:517,13:36:29:520,left,13:36:29:904,,2013_Jan_12_1333,59.9556699969,MP-Perception Experiment,xx29w25,
19,vcgpdm_dyn(30)-lvm(20)_final(2).webm,True,left,0,training(2).webm,0,18,18,54,,,,,,,,13:36:30:587,13:36:31:405,13:36:34:406,left,13:36:34:756,,2013_Jan_12_1333,59.9556699969,MP-Perception Experiment,xx29w25,
20,dmp_npsi(40)_final(8).webm,False,left,0,training(48).webm,0,19,19,16,,,,,,,,13:36:35:491,13:36:36:257,13:36:39:260,left,13:36:39:627,,2013_Jan_12_1333,59.9556699969,MP-Perception Experiment,xx29w25,
21,dmp_npsi(20)_final(4).webm,True,left,0,training(5).webm,0,20,20,44,,,,,,,,13:36:40:478,13:36:41:128,13:36:44:130,left,13:36:44:531,,2013_Jan_12_1333,59.9556699969,MP-Perception Experiment,xx29w25,
22,training(11).webm,False,right,0,vgpdm_dyn(25)-lvm(5)_final(1).webm,0,21,21,141,,,,,,,,13:36:45:375,13:36:46:033,13:36:49:020,right,13:36:49:521,,2013_Jan_12_1333,59.9556699969,MP-Perception Experiment,xx29w25,
23,vgpdm_dyn(5)-lvm(30)_final(3).webm,True,left,0,training(40).webm,0,22,22,1,,,,,,,,13:36:50:370,13:36:51:022,13:36:54:024,left,13:36:54:325,,2013_Jan_12_1333,59.9556699969,MP-Perception Experiment,xx29w25,
24,training(3).webm,True,right,0,vcgpdm_dyn(30)-lvm(10)_final(9).webm,0,23,23,65,,,,,,,,13:36:55:009,13:36:55:826,13:36:58:828,right,13:36:59:112,,2013_Jan_12_1333,59.9556699969,MP-Perception Experiment,xx29w25,
25,training(30).webm,False,right,0,tmp_numprim(7)_final(6).webm,0,24,24,107,,,,,,,,13:36:59:962,13:37:00:613,13:37:03:617,left,13:37:04:017,,2013_Jan_12_1333,59.9556699969,MP-Perception Experiment,xx29w25,
26,vcgpdm_dyn(30)-lvm(15)_final(7).webm,False,left,0,training(19).webm,0,25,25,94,,,,,,,,13:37:04:890,13:37:05:518,13:37:08:521,left,13:37:08:821,,2013_Jan_12_1333,59.9556699969,MP-Perception Experiment,xx29w25,
27,training(40).webm,True,right,0,dmp_npsi(30)_final(2).webm,0,26,26,124,,,,,,,,13:37:09:665,13:37:10:322,13:37:13:324,right,13:37:14:292,,2013_Jan_12_1333,59.9556699969,MP-Perception Experiment,xx29w25,
28,training(21).webm,True,right,0,tmp_numprim(6)_final(8).webm,0,27,27,50,,,,,,,,13:37:15:109,13:37:15:793,13:37:18:795,right,13:37:19:079,,2013_Jan_12_1333,59.9556699969,MP-Perception Experiment,xx29w25,
29,vgpdm_dyn(20)-lvm(5)_final(9).webm,True,left,0,training(6).webm,0,28,28,8,,,,,,,,13:37:19:909,13:37:20:581,13:37:23:582,left,13:37:23:899,,2013_Jan_12_1333,59.9556699969,MP-Perception Experiment,xx29w25,
30,vgpdm_dyn(25)-lvm(30)_final(2).webm,True,left,0,training(22).webm,0,29,29,18,,,,,,,,13:37:24:584,13:37:25:400,13:37:28:402,left,13:37:28:753,,2013_Jan_12_1333,59.9556699969,MP-Perception Experiment,xx29w25,
31,vcgpdm_dyn(30)-lvm(30)_final(0).webm,False,left,0,training(21).webm,0,30,30,114,,,,,,,,13:37:29:490,13:37:30:254,13:37:33:256,left,13:37:33:557,,2013_Jan_12_1333,59.9556699969,MP-Perception Experiment,xx29w25,
32,training(16).webm,True,right,0,vgpdm_dyn(25)-lvm(20)_final(8).webm,0,31,31,39,,,,,,,,13:37:34:247,13:37:35:058,13:37:38:046,left,13:37:39:381,,2013_Jan_12_1333,59.9556699969,MP-Perception Experiment,xx29w25,
33,vcgpdm_dyn(10)-lvm(20)_final(6).webm,False,left,0,training(27).webm,0,32,32,149,,,,,,,,13:37:40:140,13:37:40:882,13:37:43:884,left,13:37:44:201,,2013_Jan_12_1333,59.9556699969,MP-Perception Experiment,xx29w25,
34,training(32).webm,False,right,0,vcgpdm_dyn(15)-lvm(35)_final(9).webm,0,33,33,106,,,,,,,,13:37:44:879,13:37:45:702,13:37:48:705,right,13:37:49:022,,2013_Jan_12_1333,59.9556699969,MP-Perception Experiment,xx29w25,
35,training(23).webm,True,right,0,vgpdm_dyn(35)-lvm(35)_final(9).webm,0,34,34,110,,,,,,,,13:37:49:866,13:37:50:523,13:37:53:525,right,13:37:54:793,,2013_Jan_12_1333,59.9556699969,MP-Perception Experiment,xx29w25,
36,vgpdm_dyn(20)-lvm(5)_final(6).webm,True,left,0,training(39).webm,0,35,35,9,,,,,,,,13:37:55:493,13:37:56:295,13:37:59:298,left,13:37:59:581,,2013_Jan_12_1333,59.9556699969,MP-Perception Experiment,xx29w25,
37,training(13).webm,False,right,0,vcgpdm_dyn(10)-lvm(5)_final(6).webm,0,36,36,75,,,,,,,,13:38:00:407,13:38:01:082,13:38:04:085,right,13:38:04:335,,2013_Jan_12_1333,59.9556699969,MP-Perception Experiment,xx29w25,
38,vgpdm_dyn(10)-lvm(10)_final(5).webm,False,left,0,training(40).webm,0,37,37,14,,,,,,,,13:38:05:029,13:38:05:836,13:38:08:839,right,13:38:09:206,,2013_Jan_12_1333,59.9556699969,MP-Perception Experiment,xx29w25,
39,training(8).webm,True,right,0,vcgpdm_dyn(30)-lvm(35)_final(9).webm,0,38,38,105,,,,,,,,13:38:09:884,13:38:10:707,13:38:13:709,right,13:38:13:975,,2013_Jan_12_1333,59.9556699969,MP-Perception Experiment,xx29w25,
40,vgpdm_dyn(10)-lvm(25)_final(4).webm,True,left,0,training(16).webm,0,39,39,71,,,,,,,,13:38:14:655,13:38:15:477,13:38:18:479,left,13:38:18:863,,2013_Jan_12_1333,59.9556699969,MP-Perception Experiment,xx29w25,
41,training(0).webm,True,right,0,vcgpdm_dyn(20)-lvm(30)_final(6).webm,0,40,40,56,,,,,,,,13:38:19:545,13:38:20:364,13:38:23:366,right,13:38:23:767,,2013_Jan_12_1333,59.9556699969,MP-Perception Experiment,xx29w25,
42,vcgpdm_dyn(35)-lvm(5)_final(3).webm,True,left,0,training(14).webm,0,41,41,133,,,,,,,,13:38:24:451,13:38:25:268,13:38:28:255,left,13:38:28:722,,2013_Jan_12_1333,59.9556699969,MP-Perception Experiment,xx29w25,
43,tmp_numprim(10)_final(1).webm,False,left,0,training(20).webm,0,42,42,112,,,,,,,,13:38:29:399,13:38:30:225,13:38:33:227,left,13:38:33:477,,2013_Jan_12_1333,59.9556699969,MP-Perception Experiment,xx29w25,
44,training(6).webm,True,right,0,vgpdm_dyn(25)-lvm(5)_final(5).webm,0,43,43,96,,,,,,,,13:38:34:239,13:38:34:978,13:38:37:981,right,13:38:38:264,,2013_Jan_12_1333,59.9556699969,MP-Perception Experiment,xx29w25,
45,vcgpdm_dyn(15)-lvm(25)_final(0).webm,False,left,0,training(11).webm,0,44,44,117,,,,,,,,13:38:39:083,13:38:39:766,13:38:42:768,left,13:38:43:052,,2013_Jan_12_1333,59.9556699969,MP-Perception Experiment,xx29w25,
46,dmp_npsi(15)_final(8).webm,False,left,0,training(12).webm,0,45,45,51,,,,,,,,13:38:43:892,13:38:44:553,13:38:47:555,left,13:38:47:907,,2013_Jan_12_1333,59.9556699969,MP-Perception Experiment,xx29w25,
47,training(8).webm,True,right,0,dmp_npsi(15)_final(1).webm,0,46,46,132,,,,,,,,13:38:48:584,13:38:49:408,13:38:52:410,right,13:38:52:694,,2013_Jan_12_1333,59.9556699969,MP-Perception Experiment,xx29w25,
48,tmp_numprim(5)_final(6).webm,False,left,0,training(24).webm,0,47,47,32,,,,,,,,13:38:53:375,13:38:54:195,13:38:57:198,left,13:38:57:564,,2013_Jan_12_1333,59.9556699969,MP-Perception Experiment,xx29w25,
49,vcgpdm_dyn(35)-lvm(30)_final(5).webm,True,left,0,training(18).webm,0,48,48,142,,,,,,,,13:38:58:319,13:38:59:066,13:39:02:068,left,13:39:02:352,,2013_Jan_12_1333,59.9556699969,MP-Perception Experiment,xx29w25,
50,training(1).webm,False,right,0,vcgpdm_dyn(25)-lvm(30)_final(4).webm,0,49,49,60,,,,,,,,13:39:03:039,13:39:03:868,13:39:06:854,right,13:39:07:171,,2013_Jan_12_1333,59.9556699969,MP-Perception Experiment,xx29w25,
51,training(23).webm,True,right,0,vcgpdm_dyn(5)-lvm(5)_final(0).webm,0,50,50,98,,,,,,,,13:39:07:878,13:39:08:673,13:39:11:675,right,13:39:12:009,,2013_Jan_12_1333,59.9556699969,MP-Perception Experiment,xx29w25,
52,training(37).webm,True,right,0,vcgpdm_dyn(10)-lvm(5)_final(2).webm,0,51,51,42,,,,,,,,13:39:12:854,13:39:13:510,13:39:16:497,right,13:39:18:015,,2013_Jan_12_1333,59.9556699969,MP-Perception Experiment,xx29w25,
53,training(39).webm,True,right,0,vgpdm_dyn(15)-lvm(30)_final(1).webm,0,52,52,134,,,,,,,,13:39:18:845,13:39:19:516,13:39:22:519,right,13:39:22:887,,2013_Jan_12_1333,59.9556699969,MP-Perception Experiment,xx29w25,
54,training(3).webm,False,right,0,vgpdm_dyn(30)-lvm(25)_final(8).webm,0,53,53,33,,,,,,,,13:39:23:730,13:39:24:388,13:39:27:391,right,13:39:27:724,,2013_Jan_12_1333,59.9556699969,MP-Perception Experiment,xx29w25,
55,vcgpdm_dyn(25)-lvm(10)_final(6).webm,True,left,0,training(14).webm,0,54,54,69,,,,,,,,13:39:28:568,13:39:29:225,13:39:32:228,left,13:39:32:528,,2013_Jan_12_1333,59.9556699969,MP-Perception Experiment,xx29w25,
56,training(33).webm,False,right,0,vgpdm_dyn(10)-lvm(30)_final(5).webm,0,55,55,78,,,,,,,,13:39:33:369,13:39:34:029,13:39:37:032,right,13:39:37:382,,2013_Jan_12_1333,59.9556699969,MP-Perception Experiment,xx29w25,
57,vcgpdm_dyn(20)-lvm(10)_final(3).webm,True,left,0,training(13).webm,0,56,56,21,,,,,,,,13:39:38:225,13:39:38:883,13:39:41:887,left,13:39:42:203,,2013_Jan_12_1333,59.9556699969,MP-Perception Experiment,xx29w25,
58,vgpdm_dyn(30)-lvm(35)_final(9).webm,False,left,0,training(24).webm,0,57,57,89,,,,,,,,13:39:42:887,13:39:43:705,13:39:46:707,right,13:39:47:024,,2013_Jan_12_1333,59.9556699969,MP-Perception Experiment,xx29w25,
59,vcgpdm_dyn(30)-lvm(15)_final(2).webm,False,left,0,training(19).webm,0,58,58,88,,,,,,,,13:39:47:703,13:39:48:525,13:39:51:527,right,13:39:51:845,,2013_Jan_12_1333,59.9556699969,MP-Perception Experiment,xx29w25,
60,vcgpdm_dyn(10)-lvm(10)_final(2).webm,False,left,0,training(6).webm,0,59,59,101,,,,,,,,13:39:52:615,13:39:53:346,13:39:56:346,left,13:39:56:630,,2013_Jan_12_1333,59.9556699969,MP-Perception Experiment,xx29w25,
61,training(20).webm,True,right,0,vcgpdm_dyn(30)-lvm(20)_final(7).webm,0,60,60,47,,,,,,,,13:39:57:319,13:39:58:132,13:40:01:135,right,13:40:01:735,,2013_Jan_12_1333,59.9556699969,MP-Perception Experiment,xx29w25,
62,vcgpdm_dyn(35)-lvm(10)_final(9).webm,False,left,0,training(24).webm,0,61,61,152,,,,,,,,13:40:02:412,13:40:03:236,13:40:06:239,right,13:40:06:606,,2013_Jan_12_1333,59.9556699969,MP-Perception Experiment,xx29w25,
63,training(40).webm,False,right,0,vgpdm_dyn(5)-lvm(30)_final(7).webm,0,62,62,25,,,,,,,,13:40:07:288,13:40:08:109,13:40:11:094,right,13:40:11:461,,2013_Jan_12_1333,59.9556699969,MP-Perception Experiment,xx29w25,
64,training(48).webm,True,right,0,vgpdm_dyn(5)-lvm(10)_final(2).webm,0,63,63,53,,,,,,,,13:40:12:326,13:40:12:962,13:40:15:966,right,13:40:16:366,,2013_Jan_12_1333,59.9556699969,MP-Perception Experiment,xx29w25,
65,training(20).webm,True,right,0,map_gpdm_final(6).webm,0,64,64,72,,,,,,,,13:40:17:042,13:40:17:867,13:40:20:870,right,13:40:21:287,,2013_Jan_12_1333,59.9556699969,MP-Perception Experiment,xx29w25,
66,training(29).webm,False,right,0,vgpdm_dyn(10)-lvm(30)_final(5).webm,0,65,65,90,,,,,,,,13:40:21:959,13:40:22:788,13:40:25:791,right,13:40:26:191,,2013_Jan_12_1333,59.9556699969,MP-Perception Experiment,xx29w25,
67,training(27).webm,True,right,0,vgpdm_dyn(15)-lvm(15)_final(5).webm,0,66,66,67,,,,,,,,13:40:26:866,13:40:27:692,13:40:30:695,right,13:40:31:012,,2013_Jan_12_1333,59.9556699969,MP-Perception Experiment,xx29w25,
68,vgpdm_dyn(30)-lvm(25)_final(8).webm,False,left,0,training(11).webm,0,67,67,87,,,,,,,,13:40:31:682,13:40:32:514,13:40:35:516,left,13:40:35:866,,2013_Jan_12_1333,59.9556699969,MP-Perception Experiment,xx29w25,
69,vcgpdm_dyn(20)-lvm(35)_final(9).webm,False,left,0,training(34).webm,0,68,68,136,,,,,,,,13:40:36:544,13:40:37:368,13:40:40:370,left,13:40:40:787,,2013_Jan_12_1333,59.9556699969,MP-Perception Experiment,xx29w25,
70,tmp_numprim(10)_final(4).webm,True,left,0,training(30).webm,0,69,69,113,,,,,,,,13:40:41:627,13:40:42:288,13:40:45:289,left,13:40:45:723,,2013_Jan_12_1333,59.9556699969,MP-Perception Experiment,xx29w25,
71,vcgpdm_dyn(5)-lvm(5)_final(7).webm,False,left,0,training(8).webm,0,70,70,37,,,,,,,,13:40:46:402,13:40:47:224,13:40:50:227,left,13:40:50:611,,2013_Jan_12_1333,59.9556699969,MP-Perception Experiment,xx29w25,
72,training(37).webm,False,right,0,vcgpdm_dyn(25)-lvm(10)_final(3).webm,0,71,71,126,,,,,,,,13:40:51:290,13:40:52:112,13:40:55:114,right,13:40:56:649,,2013_Jan_12_1333,59.9556699969,MP-Perception Experiment,xx29w25,
73,training(38).webm,False,right,0,vgpdm_dyn(5)-lvm(10)_final(7).webm,0,72,72,27,,,,,,,,13:40:57:321,13:40:58:152,13:41:01:138,right,13:41:01:572,,2013_Jan_12_1333,59.9556699969,MP-Perception Experiment,xx29w25,
74,dmp_npsi(40)_final(8).webm,False,left,0,training(15).webm,0,73,73,145,,,,,,,,13:41:02:254,13:41:03:073,13:41:06:075,right,13:41:07:627,,2013_Jan_12_1333,59.9556699969,MP-Perception Experiment,xx29w25,
75,vcgpdm_dyn(15)-lvm(30)_final(6).webm,True,left,0,training(41).webm,0,74,74,93,,,,,,,,13:41:08:474,13:41:09:129,13:41:12:131,left,13:41:12:498,,2013_Jan_12_1333,59.9556699969,MP-Perception Experiment,xx29w25,
76,vcgpdm_dyn(30)-lvm(20)_final(4).webm,False,left,0,training(27).webm,0,75,75,7,,,,,,,,13:41:13:269,13:41:13:999,13:41:17:001,left,13:41:17:419,,2013_Jan_12_1333,59.9556699969,MP-Perception Experiment,xx29w25,
77,dmp_npsi(15)_final(5).webm,True,left,0,training(22).webm,0,76,76,22,,,,,,,,13:41:18:264,13:41:18:920,13:41:21:922,left,13:41:22:439,,2013_Jan_12_1333,59.9556699969,MP-Perception Experiment,xx29w25,
78,training(14).webm,False,right,0,tmp_numprim(4)_final(3).webm,0,77,77,127,,,,,,,,13:41:23:248,13:41:23:940,13:41:26:944,right,13:41:27:244,,2013_Jan_12_1333,59.9556699969,MP-Perception Experiment,xx29w25,
79,vgpdm_dyn(30)-lvm(10)_final(4).webm,False,left,0,training(19).webm,0,78,78,55,,,,,,,,13:41:27:920,13:41:28:745,13:41:31:748,left,13:41:32:015,,2013_Jan_12_1333,59.9556699969,MP-Perception Experiment,xx29w25,
80,training(27).webm,False,right,0,vcgpdm_dyn(10)-lvm(15)_final(7).webm,0,79,79,52,,,,,,,,13:41:32:698,13:41:33:516,13:41:36:517,right,13:41:37:017,,2013_Jan_12_1333,59.9556699969,MP-Perception Experiment,xx29w25,
81,training(36).webm,False,right,0,dmp_npsi(35)_final(9).webm,0,80,80,109,,,,,,,,13:41:37:867,13:41:38:518,13:41:41:521,right,13:41:41:788,,2013_Jan_12_1333,59.9556699969,MP-Perception Experiment,xx29w25,
82,training(37).webm,True,right,0,vcgpdm_dyn(15)-lvm(20)_final(0).webm,0,81,81,5,,,,,,,,13:41:42:632,13:41:43:290,13:41:46:277,left,13:41:46:561,,2013_Jan_12_1333,59.9556699969,MP-Perception Experiment,xx29w25,
83,vcgpdm_dyn(25)-lvm(5)_final(4).webm,True,left,0,training(0).webm,0,82,82,46,,,,,,,,13:41:47:242,13:41:48:062,13:41:51:064,right,13:41:52:382,,2013_Jan_12_1333,59.9556699969,MP-Perception Experiment,xx29w25,
84,training(17).webm,False,right,0,vgpdm_dyn(10)-lvm(15)_final(2).webm,0,83,83,111,,,,,,,,13:41:53:199,13:41:53:883,13:41:56:886,right,13:41:57:303,,2013_Jan_12_1333,59.9556699969,MP-Perception Experiment,xx29w25,
85,vgpdm_dyn(5)-lvm(15)_final(6).webm,True,left,0,training(41).webm,0,84,84,143,,,,,,,,13:41:57:979,13:41:58:804,13:42:01:808,left,13:42:02:141,,2013_Jan_12_1333,59.9556699969,MP-Perception Experiment,xx29w25,
86,vcgpdm_dyn(15)-lvm(20)_final(7).webm,True,left,0,training(34).webm,0,85,85,11,,,,,,,,13:42:02:828,13:42:03:642,13:42:06:645,left,13:42:07:012,,2013_Jan_12_1333,59.9556699969,MP-Perception Experiment,xx29w25,
87,training(19).webm,True,right,0,vcgpdm_dyn(25)-lvm(20)_final(6).webm,0,86,86,0,,,,,,,,13:42:07:690,13:42:08:513,13:42:11:515,right,13:42:11:982,,2013_Jan_12_1333,59.9556699969,MP-Perception Experiment,xx29w25,
88,vcgpdm_dyn(25)-lvm(20)_final(0).webm,True,left,0,training(21).webm,0,87,87,30,,,,,,,,13:42:12:658,13:42:13:483,13:42:16:486,left,13:42:16:886,,2013_Jan_12_1333,59.9556699969,MP-Perception Experiment,xx29w25,
89,training(30).webm,True,right,0,vcgpdm_dyn(25)-lvm(30)_final(4).webm,0,88,88,28,,,,,,,,13:42:17:567,13:42:18:405,13:42:21:391,right,13:42:21:674,,2013_Jan_12_1333,59.9556699969,MP-Perception Experiment,xx29w25,
90,tmp_numprim(8)_final(6).webm,True,left,0,training(31).webm,0,89,89,102,,,,,,,,13:42:22:378,13:42:23:176,13:42:26:176,left,13:42:26:710,,2013_Jan_12_1333,59.9556699969,MP-Perception Experiment,xx29w25,
91,training(13).webm,True,right,0,vcgpdm_dyn(25)-lvm(5)_final(2).webm,0,90,90,95,,,,,,,,13:42:27:387,13:42:28:211,13:42:31:214,left,13:42:31:481,,2013_Jan_12_1333,59.9556699969,MP-Perception Experiment,xx29w25,
92,training(4).webm,False,right,0,tmp_numprim(3)_final(8).webm,0,91,91,85,,,,,,,,13:42:32:326,13:42:32:982,13:42:35:970,right,13:42:36:554,,2013_Jan_12_1333,59.9556699969,MP-Perception Experiment,xx29w25,
93,training(41).webm,False,right,0,vcgpdm_dyn(25)-lvm(20)_final(3).webm,0,92,92,115,,,,,,,,13:42:37:233,13:42:38:055,13:42:41:058,right,13:42:41:375,,2013_Jan_12_1333,59.9556699969,MP-Perception Experiment,xx29w25,
94,vcgpdm_dyn(35)-lvm(30)_final(9).webm,True,left,0,training(11).webm,0,93,93,86,,,,,,,,13:42:42:111,13:42:42:876,13:42:45:878,left,13:42:46:262,,2013_Jan_12_1333,59.9556699969,MP-Perception Experiment,xx29w25,
95,training(23).webm,True,right,0,vgpdm_dyn(10)-lvm(5)_final(2).webm,0,94,94,58,,,,,,,,13:42:46:939,13:42:47:763,13:42:50:766,left,13:42:51:900,,2013_Jan_12_1333,59.9556699969,MP-Perception Experiment,xx29w25,
96,training(39).webm,False,right,0,vcgpdm_dyn(25)-lvm(35)_final(1).webm,0,95,95,153,,,,,,,,13:42:52:750,13:42:53:402,13:42:56:405,right,13:42:56:738,,2013_Jan_12_1333,59.9556699969,MP-Perception Experiment,xx29w25,
97,training(19).webm,False,right,0,dmp_npsi(10)_final(2)_bad.webm,0,96,96,40,,,,,,,,13:42:57:582,13:42:58:239,13:43:01:242,right,13:43:01:675,,2013_Jan_12_1333,59.9556699969,MP-Perception Experiment,xx29w25,
98,vcgpdm_dyn(35)-lvm(30)_final(4).webm,True,left,0,training(22).webm,0,97,97,57,,,,,,,,13:43:02:358,13:43:03:177,13:43:06:179,left,13:43:06:596,,2013_Jan_12_1333,59.9556699969,MP-Perception Experiment,xx29w25,
99,training(19).webm,False,right,0,vcgpdm_dyn(15)-lvm(15)_final(1).webm,0,98,98,63,,,,,,,,13:43:07:270,13:43:08:097,13:43:11:101,right,13:43:12:902,,2013_Jan_12_1333,59.9556699969,MP-Perception Experiment,xx29w25,
100,training(29).webm,True,right,0,vgpdm_dyn(10)-lvm(20)_final(7).webm,0,99,99,84,,,,,,,,13:43:13:583,13:43:14:418,13:43:17:404,right,13:43:18:205,,2013_Jan_12_1333,59.9556699969,MP-Perception Experiment,xx29w25,
101,training(19).webm,True,right,0,vgpdm_dyn(30)-lvm(5)_final(4).webm,0,100,100,158,,,,,,,,13:43:18:882,13:43:19:706,13:43:22:708,right,13:43:25:561,,2013_Jan_12_1333,59.9556699969,MP-Perception Experiment,xx29w25,
102,training(40).webm,True,right,0,tmp_numprim(2)_final(4).webm,0,101,101,103,,,,,,,,13:43:26:260,13:43:27:064,13:43:30:067,right,13:43:30:968,,2013_Jan_12_1333,59.9556699969,MP-Perception Experiment,xx29w25,
103,training(31).webm,True,right,0,vgpdm_dyn(15)-lvm(15)_final(9).webm,0,102,102,4,,,,,,,,13:43:31:816,13:43:32:469,13:43:35:471,right,13:43:35:805,,2013_Jan_12_1333,59.9556699969,MP-Perception Experiment,xx29w25,
104,training(31).webm,True,right,0,dmp_npsi(5)_final(9)_bad.webm,0,103,103,12,,,,,,,,13:43:36:487,13:43:37:306,13:43:40:308,right,13:43:40:892,,2013_Jan_12_1333,59.9556699969,MP-Perception Experiment,xx29w25,
105,training(34).webm,False,right,0,tmp_numprim(5)_final(3).webm,0,104,104,122,,,,,,,,13:43:41:566,13:43:42:394,13:43:45:397,right,13:43:45:831,,2013_Jan_12_1333,59.9556699969,MP-Perception Experiment,xx29w25,
106,training(5).webm,True,right,0,vgpdm_dyn(30)-lvm(20)_final(5).webm,0,105,105,70,,,,,,,,13:43:46:508,13:43:47:332,13:43:50:334,right,13:43:51:152,,2013_Jan_12_1333,59.9556699969,MP-Perception Experiment,xx29w25,
107,training(39).webm,True,right,0,vcgpdm_dyn(10)-lvm(25)_final(4).webm,0,106,106,135,,,,,,,,13:43:51:995,13:43:52:653,13:43:55:655,right,13:43:56:156,,2013_Jan_12_1333,59.9556699969,MP-Perception Experiment,xx29w25,
108,dmp_npsi(40)_final(3).webm,False,left,0,training(36).webm,0,107,107,83,,,,,,,,13:43:56:833,13:43:57:657,13:44:00:659,left,13:44:01:343,,2013_Jan_12_1333,59.9556699969,MP-Perception Experiment,xx29w25,
109,training(3).webm,False,right,0,tmp_numprim(6)_final(4).webm,0,108,108,82,,,,,,,,13:44:02:186,13:44:02:845,13:44:05:846,left,13:44:06:230,,2013_Jan_12_1333,59.9556699969,MP-Perception Experiment,xx29w25,
110,training(15).webm,True,right,0,vcgpdm_dyn(5)-lvm(15)_final(9).webm,0,109,109,97,,,,,,,,13:44:06:912,13:44:07:731,13:44:10:733,right,13:44:11:000,,2013_Jan_12_1333,59.9556699969,MP-Perception Experiment,xx29w25,
111,map_gpdm_final(4).webm,False,left,0,training(29).webm,0,110,110,41,,,,,,,,13:44:11:679,13:44:12:501,13:44:15:504,left,13:44:15:804,,2013_Jan_12_1333,59.9556699969,MP-Perception Experiment,xx29w25,
112,training(36).webm,True,right,0,vcgpdm_dyn(15)-lvm(25)_final(1).webm,0,111,111,23,,,,,,,,13:44:16:490,13:44:17:307,13:44:20:310,right,13:44:20:911,,2013_Jan_12_1333,59.9556699969,MP-Perception Experiment,xx29w25,
113,training(5).webm,False,right,0,dmp_npsi(35)_final(1).webm,0,112,112,62,,,,,,,,13:44:21:599,13:44:22:429,13:44:25:431,right,13:44:25:765,,2013_Jan_12_1333,59.9556699969,MP-Perception Experiment,xx29w25,
114,training(25).webm,False,right,0,vgpdm_dyn(10)-lvm(25)_final(6).webm,0,113,113,156,,,,,,,,13:44:26:479,13:44:27:266,13:44:30:268,left,13:44:30:902,,2013_Jan_12_1333,59.9556699969,MP-Perception Experiment,xx29w25,
115,vcgpdm_dyn(20)-lvm(35)_final(7).webm,False,left,0,training(27).webm,0,114,114,137,,,,,,,,13:44:31:587,13:44:32:404,13:44:35:406,left,13:44:37:392,,2013_Jan_12_1333,59.9556699969,MP-Perception Experiment,xx29w25,
116,training(32).webm,True,right,0,vcgpdm_dyn(35)-lvm(25)_final(4).webm,0,115,115,147,,,,,,,,13:44:38:243,13:44:38:893,13:44:41:896,right,13:44:42:329,,2013_Jan_12_1333,59.9556699969,MP-Perception Experiment,xx29w25,
117,vcgpdm_dyn(20)-lvm(10)_final(3).webm,True,left,0,training(28).webm,0,116,116,138,,,,,,,,13:44:43:178,13:44:43:830,13:44:46:833,left,13:44:47:267,,2013_Jan_12_1333,59.9556699969,MP-Perception Experiment,xx29w25,
118,training(35).webm,False,right,0,vcgpdm_dyn(35)-lvm(25)_final(0).webm,0,117,117,99,,,,,,,,13:44:47:955,13:44:48:768,13:44:51:770,right,13:44:52:204,,2013_Jan_12_1333,59.9556699969,MP-Perception Experiment,xx29w25,
119,training(38).webm,True,right,0,vcgpdm_dyn(20)-lvm(25)_final(3).webm,0,118,118,15,,,,,,,,13:44:52:887,13:44:53:705,13:44:56:707,right,13:44:57:007,,2013_Jan_12_1333,59.9556699969,MP-Perception Experiment,xx29w25,
120,training(26).webm,True,right,0,vcgpdm_dyn(30)-lvm(20)_final(2).webm,0,119,119,6,,,,,,,,13:44:57:686,13:44:58:508,13:45:01:511,left,13:45:01:778,,2013_Jan_12_1333,59.9556699969,MP-Perception Experiment,xx29w25,
121,training(38).webm,False,right,0,vgpdm_dyn(30)-lvm(20)_final(0).webm,0,120,120,130,,,,,,,,13:45:02:456,13:45:03:279,13:45:06:281,left,13:45:07:432,,2013_Jan_12_1333,59.9556699969,MP-Perception Experiment,xx29w25,
122,training(24).webm,False,right,0,vgpdm_dyn(20)-lvm(35)_final(5).webm,0,121,121,100,,,,,,,,13:45:08:125,13:45:08:935,13:45:11:921,right,13:45:12:372,,2013_Jan_12_1333,59.9556699969,MP-Perception Experiment,xx29w25,
123,training(14).webm,False,right,0,vcgpdm_dyn(20)-lvm(15)_final(0).webm,0,122,122,24,,,,,,,,13:45:13:057,13:45:13:873,13:45:16:876,right,13:45:17:276,,2013_Jan_12_1333,59.9556699969,MP-Perception Experiment,xx29w25,
124,training(14).webm,False,right,0,tmp_numprim(3)_final(7).webm,0,123,123,104,,,,,,,,13:45:17:956,13:45:18:777,13:45:21:780,right,13:45:22:247,,2013_Jan_12_1333,59.9556699969,MP-Perception Experiment,xx29w25,
125,dmp_npsi(20)_final(2).webm,True,left,0,training(13).webm,0,124,124,34,,,,,,,,13:45:22:928,13:45:23:748,13:45:26:750,left,13:45:27:168,,2013_Jan_12_1333,59.9556699969,MP-Perception Experiment,xx29w25,
126,training(1).webm,False,right,0,vcgpdm_dyn(5)-lvm(25)_final(8).webm,0,125,125,140,,,,,,,,13:45:27:878,13:45:28:669,13:45:31:672,right,13:45:32:356,,2013_Jan_12_1333,59.9556699969,MP-Perception Experiment,xx29w25,
127,training(37).webm,False,right,0,vcgpdm_dyn(5)-lvm(10)_final(9).webm,0,126,126,17,,,,,,,,13:45:33:037,13:45:33:857,13:45:36:860,right,13:45:37:193,,2013_Jan_12_1333,59.9556699969,MP-Perception Experiment,xx29w25,
128,vcgpdm_dyn(10)-lvm(5)_final(6).webm,True,left,0,training(29).webm,0,127,127,20,,,,,,,,13:45:37:864,13:45:38:694,13:45:41:697,left,13:45:42:047,,2013_Jan_12_1333,59.9556699969,MP-Perception Experiment,xx29w25,
129,vgpdm_dyn(10)-lvm(5)_final(8).webm,False,left,0,training(0).webm,0,128,128,68,,,,,,,,13:45:42:830,13:45:43:548,13:45:46:549,left,13:45:46:866,,2013_Jan_12_1333,59.9556699969,MP-Perception Experiment,xx29w25,
130,dmp_npsi(45)_final(6).webm,False,left,0,training(10).webm,0,129,129,79,,,,,,,,13:45:47:632,13:45:48:368,13:45:51:371,left,13:45:51:621,,2013_Jan_12_1333,59.9556699969,MP-Perception Experiment,xx29w25,
131,training(8).webm,False,right,0,tmp_numprim(9)_final(5).webm,0,130,130,19,,,,,,,,13:45:52:431,13:45:53:122,13:45:56:110,right,13:45:56:426,,2013_Jan_12_1333,59.9556699969,MP-Perception Experiment,xx29w25,
132,vgpdm_dyn(20)-lvm(10)_final(3)_out_of_screen.webm,False,left,0,training(41).webm,0,131,131,43,,,,,,,,13:45:57:110,13:45:57:928,13:46:00:930,left,13:46:01:281,,2013_Jan_12_1333,59.9556699969,MP-Perception Experiment,xx29w25,
133,training(7).webm,False,right,0,vcgpdm_dyn(20)-lvm(10)_final(0).webm,0,132,132,66,,,,,,,,13:46:02:137,13:46:02:781,13:46:05:785,right,13:46:06:135,,2013_Jan_12_1333,59.9556699969,MP-Perception Experiment,xx29w25,
134,dmp_npsi(30)_final(0).webm,False,left,0,training(30).webm,0,133,133,38,,,,,,,,13:46:06:817,13:46:07:636,13:46:10:639,left,13:46:11:156,,2013_Jan_12_1333,59.9556699969,MP-Perception Experiment,xx29w25,
135,vgpdm_dyn(30)-lvm(35)_final(0).webm,False,left,0,training(14).webm,0,134,134,2,,,,,,,,13:46:11:882,13:46:12:657,13:46:15:660,right,13:46:16:277,,2013_Jan_12_1333,59.9556699969,MP-Perception Experiment,xx29w25,
136,training(15).webm,False,right,0,vgpdm_dyn(10)-lvm(30)_final(9).webm,0,135,135,64,,,,,,,,13:46:16:964,13:46:17:778,13:46:20:781,right,13:46:21:431,,2013_Jan_12_1333,59.9556699969,MP-Perception Experiment,xx29w25,
137,vcgpdm_dyn(15)-lvm(15)_final(0).webm,False,left,0,training(17).webm,0,136,136,155,,,,,,,,13:46:22:179,13:46:22:933,13:46:25:935,left,13:46:27:270,,2013_Jan_12_1333,59.9556699969,MP-Perception Experiment,xx29w25,
138,vcgpdm_dyn(10)-lvm(30)_final(5).webm,True,left,0,training(20).webm,0,137,137,118,,,,,,,,13:46:28:139,13:46:28:771,13:46:31:774,left,13:46:32:257,,2013_Jan_12_1333,59.9556699969,MP-Perception Experiment,xx29w25,
139,vcgpdm_dyn(5)-lvm(5)_final(3).webm,False,left,0,training(22).webm,0,138,138,151,,,,,,,,13:46:33:029,13:46:33:759,13:46:36:759,left,13:46:37:060,,2013_Jan_12_1333,59.9556699969,MP-Perception Experiment,xx29w25,
140,tmp_numprim(3)_final(1).webm,True,left,0,training(2).webm,0,139,139,76,,,,,,,,13:46:37:746,13:46:38:561,13:46:41:564,left,13:46:41:964,,2013_Jan_12_1333,59.9556699969,MP-Perception Experiment,xx29w25,
141,training(14).webm,False,right,0,vcgpdm_dyn(20)-lvm(5)_final(3).webm,0,140,140,148,,,,,,,,13:46:42:648,13:46:43:466,13:46:46:468,left,13:46:46:735,,2013_Jan_12_1333,59.9556699969,MP-Perception Experiment,xx29w25,
142,vcgpdm_dyn(30)-lvm(35)_final(0).webm,True,left,0,training(15).webm,0,141,141,45,,,,,,,,13:46:47:419,13:46:48:236,13:46:51:224,left,13:46:51:474,,2013_Jan_12_1333,59.9556699969,MP-Perception Experiment,xx29w25,
143,training(1).webm,False,right,0,vcgpdm_dyn(25)-lvm(5)_final(3).webm,0,142,142,59,,,,,,,,13:46:52:161,13:46:52:975,13:46:55:977,right,13:46:56:428,,2013_Jan_12_1333,59.9556699969,MP-Perception Experiment,xx29w25,
144,vgpdm_dyn(10)-lvm(10)_final(2).webm,False,left,0,training(35).webm,0,143,143,61,,,,,,,,13:46:57:101,13:46:57:930,13:47:00:932,left,13:47:01:366,,2013_Jan_12_1333,59.9556699969,MP-Perception Experiment,xx29w25,
145,training(8).webm,True,right,0,vcgpdm_dyn(15)-lvm(15)_final(1).webm,0,144,144,80,,,,,,,,13:47:02:045,13:47:02:867,13:47:05:870,right,13:47:06:170,,2013_Jan_12_1333,59.9556699969,MP-Perception Experiment,xx29w25,
146,training(28).webm,False,right,0,vgpdm_dyn(35)-lvm(10)_final(2).webm,0,145,145,10,,,,,,,,13:47:06:849,13:47:07:671,13:47:10:674,right,13:47:11:524,,2013_Jan_12_1333,59.9556699969,MP-Perception Experiment,xx29w25,
147,vgpdm_dyn(25)-lvm(30)_final(7).webm,False,left,0,training(15).webm,0,146,146,73,,,,,,,,13:47:12:252,13:47:13:026,13:47:16:046,left,13:47:16:479,,2013_Jan_12_1333,59.9556699969,MP-Perception Experiment,xx29w25,
148,training(6).webm,True,right,0,vgpdm_dyn(10)-lvm(20)_final(2).webm,0,147,147,120,,,,,,,,13:47:17:166,13:47:17:981,13:47:20:983,right,13:47:21:667,,2013_Jan_12_1333,59.9556699969,MP-Perception Experiment,xx29w25,
149,training(35).webm,False,right,0,vcgpdm_dyn(20)-lvm(10)_final(1).webm,0,148,148,129,,,,,,,,13:47:22:485,13:47:23:168,13:47:26:169,right,13:47:26:702,,2013_Jan_12_1333,59.9556699969,MP-Perception Experiment,xx29w25,
150,vcgpdm_dyn(10)-lvm(15)_final(3).webm,True,left,0,training(18).webm,0,149,149,123,,,,,,,,13:47:27:384,13:47:28:204,13:47:31:206,left,13:47:31:506,,2013_Jan_12_1333,59.9556699969,MP-Perception Experiment,xx29w25,
151,vgpdm_dyn(30)-lvm(25)_final(8).webm,True,left,0,training(19).webm,0,150,150,29,,,,,,,,13:47:32:186,13:47:33:009,13:47:35:996,left,13:47:36:430,,2013_Jan_12_1333,59.9556699969,MP-Perception Experiment,xx29w25,
152,training(1).webm,False,right,0,vcgpdm_dyn(25)-lvm(35)_final(0).webm,0,151,151,144,,,,,,,,13:47:37:139,13:47:37:931,13:47:40:934,right,13:47:41:317,,2013_Jan_12_1333,59.9556699969,MP-Perception Experiment,xx29w25,
153,vgpdm_dyn(30)-lvm(5)_final(7).webm,True,left,0,training(21).webm,0,152,152,116,,,,,,,,13:47:42:148,13:47:42:818,13:47:45:821,right,13:47:46:054,,2013_Jan_12_1333,59.9556699969,MP-Perception Experiment,xx29w25,
154,vcgpdm_dyn(35)-lvm(30)_final(1).webm,False,left,0,training(17).webm,0,153,153,3,,,,,,,,13:47:46:743,13:47:47:555,13:47:50:559,left,13:47:50:909,,2013_Jan_12_1333,59.9556699969,MP-Perception Experiment,xx29w25,
155,vgpdm_dyn(10)-lvm(15)_final(7).webm,False,left,0,training(31).webm,0,154,154,108,,,,,,,,13:47:51:659,13:47:52:410,13:47:55:413,left,13:47:55:746,,2013_Jan_12_1333,59.9556699969,MP-Perception Experiment,xx29w25,
156,training(32).webm,False,right,0,vcgpdm_dyn(15)-lvm(5)_final(5).webm,0,155,155,31,,,,,,,,13:47:56:502,13:47:57:248,13:48:00:250,right,13:48:00:534,,2013_Jan_12_1333,59.9556699969,MP-Perception Experiment,xx29w25,
157,training(5).webm,False,right,0,vcgpdm_dyn(25)-lvm(25)_final(0).webm,0,156,156,150,,,,,,,,13:48:01:384,13:48:02:035,13:48:05:037,right,13:48:05:354,,2013_Jan_12_1333,59.9556699969,MP-Perception Experiment,xx29w25,
158,vgpdm_dyn(35)-lvm(25)_final(9).webm,True,left,0,training(9).webm,0,157,157,125,,,,,,,,13:48:06:084,13:48:06:855,13:48:09:859,left,13:48:10:192,,2013_Jan_12_1333,59.9556699969,MP-Perception Experiment,xx29w25,
159,training(24).webm,False,right,0,vcgpdm_dyn(15)-lvm(20)_final(7).webm,0,158,158,92,,,,,,,,13:48:10:869,13:48:11:694,13:48:14:694,left,13:48:15:128,,2013_Jan_12_1333,59.9556699969,MP-Perception Experiment,xx29w25,
160,training(9).webm,True,right,1,vcgpdm_dyn(15)-lvm(5)_final(3).webm,0,0,0,154,,,,,,,,13:50:19:687,13:50:20:505,13:50:23:507,right,13:50:24:174,,2013_Jan_12_1333,59.9556699969,MP-Perception Experiment,xx29w25,
161,map_gpdm_final(8).webm,False,left,1,training(15).webm,0,1,1,101,,,,,,,,13:50:24:853,13:50:25:675,13:50:28:679,left,13:50:28:962,,2013_Jan_12_1333,59.9556699969,MP-Perception Experiment,xx29w25,
162,training(16).webm,True,right,1,vcgpdm_dyn(5)-lvm(5)_final(6).webm,0,2,2,64,,,,,,,,13:50:29:747,13:50:30:464,13:50:33:466,left,13:50:33:850,,2013_Jan_12_1333,59.9556699969,MP-Perception Experiment,xx29w25,
163,training(22).webm,True,right,1,vcgpdm_dyn(20)-lvm(35)_final(7).webm,0,3,3,70,,,,,,,,13:50:34:529,13:50:35:351,13:50:38:353,left,13:50:38:720,,2013_Jan_12_1333,59.9556699969,MP-Perception Experiment,xx29w25,
164,vcgpdm_dyn(10)-lvm(25)_final(6).webm,True,left,1,training(3).webm,0,4,4,95,,,,,,,,13:50:39:403,13:50:40:221,13:50:43:224,left,13:50:43:541,,2013_Jan_12_1333,59.9556699969,MP-Perception Experiment,xx29w25,
165,training(5).webm,True,right,1,vcgpdm_dyn(15)-lvm(25)_final(1).webm,0,5,5,7,,,,,,,,13:50:44:219,13:50:45:058,13:50:48:044,right,13:50:48:294,,2013_Jan_12_1333,59.9556699969,MP-Perception Experiment,xx29w25,
166,training(28).webm,True,right,1,tmp_numprim(9)_final(3).webm,0,6,6,17,,,,,,,,13:50:48:978,13:50:49:795,13:50:52:798,right,13:50:53:148,,2013_Jan_12_1333,59.9556699969,MP-Perception Experiment,xx29w25,
167,vgpdm_dyn(10)-lvm(5)_final(3).webm,False,left,1,training(33).webm,0,7,7,118,,,,,,,,13:50:53:895,13:50:54:649,13:50:57:637,left,13:50:57:920,,2013_Jan_12_1333,59.9556699969,MP-Perception Experiment,xx29w25,
168,vcgpdm_dyn(15)-lvm(5)_final(1).webm,True,left,1,training(33).webm,0,8,8,68,,,,,,,,13:50:58:767,13:50:59:421,13:51:02:425,left,13:51:02:725,,2013_Jan_12_1333,59.9556699969,MP-Perception Experiment,xx29w25,
169,training(26).webm,False,right,1,vcgpdm_dyn(30)-lvm(10)_final(4).webm,0,9,9,100,,,,,,,,13:51:03:412,13:51:04:226,13:51:07:228,right,13:51:08:029,,2013_Jan_12_1333,59.9556699969,MP-Perception Experiment,xx29w25,
170,vgpdm_dyn(20)-lvm(35)_final(7).webm,True,left,1,training(13).webm,0,10,10,92,,,,,,,,13:51:08:708,13:51:09:530,13:51:12:533,left,13:51:12:967,,2013_Jan_12_1333,59.9556699969,MP-Perception Experiment,xx29w25,
171,vcgpdm_dyn(10)-lvm(35)_final(6).webm,False,left,1,training(15).webm,0,11,11,138,,,,,,,,13:51:13:747,13:51:14:468,13:51:17:470,left,13:51:17:871,,2013_Jan_12_1333,59.9556699969,MP-Perception Experiment,xx29w25,
172,training(25).webm,True,right,1,vgpdm_dyn(20)-lvm(15)_final(2).webm,0,12,12,27,,,,,,,,13:51:18:717,13:51:19:388,13:51:22:375,left,13:51:22:692,,2013_Jan_12_1333,59.9556699969,MP-Perception Experiment,xx29w25,
173,training(33).webm,False,right,1,vcgpdm_dyn(30)-lvm(20)_final(1).webm,0,13,13,67,,,,,,,,13:51:23:564,13:51:24:193,13:51:27:196,left,13:51:27:579,,2013_Jan_12_1333,59.9556699969,MP-Perception Experiment,xx29w25,
174,training(19).webm,False,right,1,vgpdm_dyn(35)-lvm(35)_final(2).webm,0,14,14,41,,,,,,,,13:51:28:265,13:51:29:081,13:51:32:083,right,13:51:32:400,,2013_Jan_12_1333,59.9556699969,MP-Perception Experiment,xx29w25,
175,vcgpdm_dyn(35)-lvm(10)_final(2).webm,False,left,1,training(6).webm,0,15,15,13,,,,,,,,13:51:33:078,13:51:33:901,13:51:36:903,left,13:51:37:220,,2013_Jan_12_1333,59.9556699969,MP-Perception Experiment,xx29w25,
176,training(6).webm,False,right,1,vgpdm_dyn(20)-lvm(30)_final(8).webm,0,16,16,112,,,,,,,,13:51:37:904,13:51:38:721,13:51:41:723,left,13:51:42:157,,2013_Jan_12_1333,59.9556699969,MP-Perception Experiment,xx29w25,
177,training(39).webm,True,right,1,vgpdm_dyn(25)-lvm(20)_final(2).webm,0,17,17,44,,,,,,,,13:51:42:837,13:51:43:658,13:51:46:661,right,13:51:47:011,,2013_Jan_12_1333,59.9556699969,MP-Perception Experiment,xx29w25,
178,training(24).webm,True,right,1,vcgpdm_dyn(25)-lvm(15)_final(8).webm,0,18,18,150,,,,,,,,13:51:47:693,13:51:48:512,13:51:51:499,right,13:51:51:983,,2013_Jan_12_1333,59.9556699969,MP-Perception Experiment,xx29w25,
179,vcgpdm_dyn(15)-lvm(30)_final(6).webm,True,left,1,training(6).webm,0,19,19,20,,,,,,,,13:51:52:657,13:51:53:485,13:51:56:488,left,13:51:56:738,,2013_Jan_12_1333,59.9556699969,MP-Perception Experiment,xx29w25,
180,training(1).webm,True,right,1,vgpdm_dyn(10)-lvm(20)_final(0).webm,0,20,20,131,,,,,,,,13:51:57:422,13:51:58:239,13:52:01:242,right,13:52:01:559,,2013_Jan_12_1333,59.9556699969,MP-Perception Experiment,xx29w25,
181,training(31).webm,False,right,1,vcgpdm_dyn(5)-lvm(10)_final(9).webm,0,21,21,97,,,,,,,,13:52:02:236,13:52:03:060,13:52:06:063,right,13:52:06:396,,2013_Jan_12_1333,59.9556699969,MP-Perception Experiment,xx29w25,
182,training(36).webm,False,right,1,vgpdm_dyn(25)-lvm(35)_final(6).webm,0,22,22,103,,,,,,,,13:52:07:079,13:52:07:897,13:52:10:900,left,13:52:11:267,,2013_Jan_12_1333,59.9556699969,MP-Perception Experiment,xx29w25,
183,training(30).webm,True,right,1,vcgpdm_dyn(10)-lvm(30)_final(3).webm,0,23,23,139,,,,,,,,13:52:12:115,13:52:12:769,13:52:15:771,right,13:52:16:188,,2013_Jan_12_1333,59.9556699969,MP-Perception Experiment,xx29w25,
184,vgpdm_dyn(35)-lvm(25)_final(1).webm,True,left,1,training(5).webm,0,24,24,32,,,,,,,,13:52:16:870,13:52:17:689,13:52:20:692,left,13:52:20:959,,2013_Jan_12_1333,59.9556699969,MP-Perception Experiment,xx29w25,
185,training(16).webm,True,right,1,vgpdm_dyn(25)-lvm(30)_final(3).webm,0,25,25,125,,,,,,,,13:52:21:793,13:52:22:460,13:52:25:461,right,13:52:25:944,,2013_Jan_12_1333,59.9556699969,MP-Perception Experiment,xx29w25,
186,training(14).webm,True,right,1,tmp_numprim(9)_final(2).webm,0,26,26,9,,,,,,,,13:52:26:649,13:52:27:446,13:52:30:449,right,13:52:30:749,,2013_Jan_12_1333,59.9556699969,MP-Perception Experiment,xx29w25,
187,training(12).webm,True,right,1,vgpdm_dyn(10)-lvm(10)_final(1).webm,0,27,27,54,,,,,,,,13:52:31:601,13:52:32:250,13:52:35:253,left,13:52:35:620,,2013_Jan_12_1333,59.9556699969,MP-Perception Experiment,xx29w25,
188,training(5).webm,True,right,1,vgpdm_dyn(20)-lvm(35)_final(0).webm,0,28,28,50,,,,,,,,13:52:36:309,13:52:37:123,13:52:40:125,left,13:52:40:492,,2013_Jan_12_1333,59.9556699969,MP-Perception Experiment,xx29w25,
189,training(13).webm,True,right,1,vcgpdm_dyn(10)-lvm(30)_final(3).webm,0,29,29,148,,,,,,,,13:52:41:166,13:52:41:993,13:52:44:996,right,13:52:45:346,,2013_Jan_12_1333,59.9556699969,MP-Perception Experiment,xx29w25,
190,training(23).webm,True,right,1,vgpdm_dyn(35)-lvm(30)_final(1).webm,0,30,30,94,,,,,,,,13:52:46:156,13:52:46:848,13:52:49:851,right,13:52:50:752,,2013_Jan_12_1333,59.9556699969,MP-Perception Experiment,xx29w25,
191,vcgpdm_dyn(35)-lvm(20)_final(0).webm,True,left,1,training(34).webm,0,31,31,145,,,,,,,,13:52:51:513,13:52:52:253,13:52:55:255,left,13:52:55:639,,2013_Jan_12_1333,59.9556699969,MP-Perception Experiment,xx29w25,
192,dmp_npsi(30)_final(7).webm,False,left,1,training(32).webm,0,32,32,149,,,,,,,,13:52:56:410,13:52:57:140,13:53:00:143,left,13:53:00:443,,2013_Jan_12_1333,59.9556699969,MP-Perception Experiment,xx29w25,
193,vcgpdm_dyn(30)-lvm(30)_final(6).webm,False,left,1,training(15).webm,0,33,33,0,,,,,,,,13:53:01:172,13:53:01:944,13:53:04:947,left,13:53:05:181,,2013_Jan_12_1333,59.9556699969,MP-Perception Experiment,xx29w25,
194,training(0).webm,False,right,1,vcgpdm_dyn(35)-lvm(10)_final(8).webm,0,34,34,57,,,,,,,,13:53:05:859,13:53:06:682,13:53:09:685,right,13:53:10:051,,2013_Jan_12_1333,59.9556699969,MP-Perception Experiment,xx29w25,
195,training(16).webm,False,right,1,vgpdm_dyn(20)-lvm(20)_final(1).webm,0,35,35,52,,,,,,,,13:53:10:732,13:53:11:553,13:53:14:553,right,13:53:14:904,,2013_Jan_12_1333,59.9556699969,MP-Perception Experiment,xx29w25,
196,training(24).webm,True,right,1,vcgpdm_dyn(5)-lvm(25)_final(1).webm,0,36,36,127,,,,,,,,13:53:15:591,13:53:16:405,13:53:19:407,right,13:53:20:175,,2013_Jan_12_1333,59.9556699969,MP-Perception Experiment,xx29w25,
197,vgpdm_dyn(10)-lvm(35)_final(2).webm,False,left,1,training(28).webm,0,37,37,11,,,,,,,,13:53:20:852,13:53:21:676,13:53:24:679,left,13:53:24:979,,2013_Jan_12_1333,59.9556699969,MP-Perception Experiment,xx29w25,
198,training(1).webm,False,right,1,tmp_numprim(8)_final(8).webm,0,38,38,122,,,,,,,,13:53:25:665,13:53:26:481,13:53:29:468,right,13:53:29:585,,2013_Jan_12_1333,59.9556699969,MP-Perception Experiment,xx29w25,
199,vcgpdm_dyn(10)-lvm(20)_final(6).webm,True,left,1,training(40).webm,0,39,39,22,,,,,,,,13:53:30:266,13:53:31:086,13:53:34:089,left,13:53:34:439,,2013_Jan_12_1333,59.9556699969,MP-Perception Experiment,xx29w25,
200,dmp_npsi(25)_final(0).webm,True,left,1,training(36).webm,0,40,40,77,,,,,,,,13:53:35:143,13:53:35:940,13:53:38:943,left,13:53:39:327,,2013_Jan_12_1333,59.9556699969,MP-Perception Experiment,xx29w25,
201,training(17).webm,False,right,1,vcgpdm_dyn(20)-lvm(10)_final(7).webm,0,41,41,151,,,,,,,,13:53:40:009,13:53:40:828,13:53:43:831,right,13:53:44:214,,2013_Jan_12_1333,59.9556699969,MP-Perception Experiment,xx29w25,
202,training(14).webm,False,right,1,vgpdm_dyn(10)-lvm(15)_final(4).webm,0,42,42,83,,,,,,,,13:53:44:997,13:53:45:716,13:53:48:718,right,13:53:49:035,,2013_Jan_12_1333,59.9556699969,MP-Perception Experiment,xx29w25,
203,training(37).webm,False,right,1,tmp_numprim(8)_final(9).webm,0,43,43,99,,,,,,,,13:53:49:719,13:53:50:536,13:53:53:539,left,13:53:54:523,,2013_Jan_12_1333,59.9556699969,MP-Perception Experiment,xx29w25,
204,training(28).webm,True,right,1,vgpdm_dyn(10)-lvm(5)_final(8).webm,0,44,44,31,,,,,,,,13:53:55:203,13:53:56:024,13:53:59:027,right,13:54:01:162,,2013_Jan_12_1333,59.9556699969,MP-Perception Experiment,xx29w25,
205,training(18).webm,False,right,1,vgpdm_dyn(10)-lvm(10)_final(2).webm,0,45,45,5,,,,,,,,13:54:01:839,13:54:02:664,13:54:05:664,right,13:54:06:281,,2013_Jan_12_1333,59.9556699969,MP-Perception Experiment,xx29w25,
206,training(20).webm,False,right,1,vcgpdm_dyn(20)-lvm(15)_final(1).webm,0,46,46,98,,,,,,,,13:54:06:959,13:54:07:783,13:54:10:785,left,13:54:12:286,,2013_Jan_12_1333,59.9556699969,MP-Perception Experiment,xx29w25,
207,vcgpdm_dyn(30)-lvm(35)_final(3).webm,False,left,1,training(18).webm,0,47,47,120,,,,,,,,13:54:12:975,13:54:13:787,13:54:16:776,left,13:54:17:093,,2013_Jan_12_1333,59.9556699969,MP-Perception Experiment,xx29w25,
208,vcgpdm_dyn(10)-lvm(10)_final(7).webm,True,left,1,training(6).webm,0,48,48,37,,,,,,,,13:54:17:779,13:54:18:594,13:54:21:596,left,13:54:21:897,,2013_Jan_12_1333,59.9556699969,MP-Perception Experiment,xx29w25,
209,training(28).webm,True,right,1,vcgpdm_dyn(20)-lvm(30)_final(0).webm,0,49,49,81,,,,,,,,13:54:22:574,13:54:23:398,13:54:26:401,right,13:54:26:701,,2013_Jan_12_1333,59.9556699969,MP-Perception Experiment,xx29w25,
210,training(14).webm,False,right,1,vgpdm_dyn(25)-lvm(30)_final(4).webm,0,50,50,1,,,,,,,,13:54:27:386,13:54:28:202,13:54:31:204,right,13:54:31:621,,2013_Jan_12_1333,59.9556699969,MP-Perception Experiment,xx29w25,
211,vcgpdm_dyn(10)-lvm(5)_final(3).webm,True,left,1,training(2).webm,0,51,51,157,,,,,,,,13:54:32:353,13:54:33:123,13:54:36:126,left,13:54:36:693,,2013_Jan_12_1333,59.9556699969,MP-Perception Experiment,xx29w25,
212,training(25).webm,False,right,1,vcgpdm_dyn(5)-lvm(5)_final(0).webm,0,52,52,116,,,,,,,,13:54:37:365,13:54:38:194,13:54:41:197,right,13:54:41:580,,2013_Jan_12_1333,59.9556699969,MP-Perception Experiment,xx29w25,
213,vcgpdm_dyn(5)-lvm(15)_final(6).webm,False,left,1,training(13).webm,0,53,53,62,,,,,,,,13:54:42:352,13:54:43:081,13:54:46:084,left,13:54:46:368,,2013_Jan_12_1333,59.9556699969,MP-Perception Experiment,xx29w25,
214,vgpdm_dyn(15)-lvm(15)_final(9).webm,True,left,1,training(4).webm,0,54,54,35,,,,,,,,13:54:47:047,13:54:47:869,13:54:50:872,left,13:54:51:239,,2013_Jan_12_1333,59.9556699969,MP-Perception Experiment,xx29w25,
215,training(40).webm,False,right,1,vcgpdm_dyn(30)-lvm(30)_final(4).webm,0,55,55,126,,,,,,,,13:54:52:071,13:54:52:740,13:54:55:741,right,13:54:56:025,,2013_Jan_12_1333,59.9556699969,MP-Perception Experiment,xx29w25,
216,training(30).webm,True,right,1,vcgpdm_dyn(15)-lvm(10)_final(1).webm,0,56,56,153,,,,,,,,13:54:56:708,13:54:57:526,13:55:00:528,right,13:55:00:812,,2013_Jan_12_1333,59.9556699969,MP-Perception Experiment,xx29w25,
217,vcgpdm_dyn(15)-lvm(15)_final(5).webm,True,left,1,training(25).webm,0,57,57,65,,,,,,,,13:55:01:628,13:55:02:313,13:55:05:315,left,13:55:05:666,,2013_Jan_12_1333,59.9556699969,MP-Perception Experiment,xx29w25,
218,vcgpdm_dyn(20)-lvm(35)_final(2).webm,False,left,1,training(2).webm,0,58,58,82,,,,,,,,13:55:06:411,13:55:07:168,13:55:10:155,right,13:55:10:773,,2013_Jan_12_1333,59.9556699969,MP-Perception Experiment,xx29w25,
219,training(12).webm,False,right,1,vcgpdm_dyn(30)-lvm(25)_final(6).webm,0,59,59,23,,,,,,,,13:55:11:590,13:55:12:274,13:55:15:276,right,13:55:15:743,,2013_Jan_12_1333,59.9556699969,MP-Perception Experiment,xx29w25,
220,training(36).webm,True,right,1,map_gpdm_final(2).webm,0,60,60,115,,,,,,,,13:55:16:501,13:55:17:244,13:55:20:247,right,13:55:20:547,,2013_Jan_12_1333,59.9556699969,MP-Perception Experiment,xx29w25,
221,training(16).webm,False,right,1,vgpdm_dyn(25)-lvm(5)_final(7).webm,0,61,61,47,,,,,,,,13:55:21:402,13:55:22:048,13:55:25:052,right,13:55:25:402,,2013_Jan_12_1333,59.9556699969,MP-Perception Experiment,xx29w25,
222,training(18).webm,True,right,1,tmp_numprim(4)_final(0).webm,0,62,62,39,,,,,,,,13:55:26:236,13:55:26:903,13:55:29:906,right,13:55:30:273,,2013_Jan_12_1333,59.9556699969,MP-Perception Experiment,xx29w25,
223,vgpdm_dyn(35)-lvm(30)_final(5).webm,False,left,1,training(30).webm,0,63,63,86,,,,,,,,13:55:30:956,13:55:31:774,13:55:34:793,right,13:55:35:243,,2013_Jan_12_1333,59.9556699969,MP-Perception Experiment,xx29w25,
224,vgpdm_dyn(20)-lvm(25)_final(8).webm,True,left,1,training(36).webm,0,64,64,24,,,,,,,,13:55:35:922,13:55:36:744,13:55:39:747,left,13:55:40:481,,2013_Jan_12_1333,59.9556699969,MP-Perception Experiment,xx29w25,
225,vcgpdm_dyn(15)-lvm(5)_final(0).webm,True,left,1,training(27).webm,0,65,65,48,,,,,,,,13:55:41:166,13:55:41:983,13:55:44:984,right,13:55:45:317,,2013_Jan_12_1333,59.9556699969,MP-Perception Experiment,xx29w25,
226,vgpdm_dyn(15)-lvm(5)_final(5).webm,True,left,1,training(0).webm,0,66,66,38,,,,,,,,13:55:46:029,13:55:46:818,13:55:49:821,left,13:55:50:138,,2013_Jan_12_1333,59.9556699969,MP-Perception Experiment,xx29w25,
227,vcgpdm_dyn(30)-lvm(5)_final(9).webm,True,left,1,training(5).webm,0,67,67,78,,,,,,,,13:55:50:822,13:55:51:639,13:55:54:642,left,13:55:54:942,,2013_Jan_12_1333,59.9556699969,MP-Perception Experiment,xx29w25,
228,vgpdm_dyn(15)-lvm(30)_final(3).webm,True,left,1,training(32).webm,0,68,68,15,,,,,,,,13:55:55:683,13:55:56:445,13:55:59:432,left,13:55:59:815,,2013_Jan_12_1333,59.9556699969,MP-Perception Experiment,xx29w25,
229,vcgpdm_dyn(10)-lvm(15)_final(5).webm,False,left,1,training(22).webm,0,69,69,106,,,,,,,,13:56:00:662,13:56:01:316,13:56:04:319,left,13:56:04:636,,2013_Jan_12_1333,59.9556699969,MP-Perception Experiment,xx29w25,
230,dmp_npsi(25)_final(6).webm,True,left,1,training(40).webm,0,70,70,25,,,,,,,,13:56:05:484,13:56:06:137,13:56:09:139,left,13:56:10:040,,2013_Jan_12_1333,59.9556699969,MP-Perception Experiment,xx29w25,
231,vcgpdm_dyn(20)-lvm(30)_final(3).webm,True,left,1,training(2).webm,0,71,71,156,,,,,,,,13:56:10:888,13:56:11:541,13:56:14:561,left,13:56:14:961,,2013_Jan_12_1333,59.9556699969,MP-Perception Experiment,xx29w25,
232,vcgpdm_dyn(15)-lvm(10)_final(2).webm,True,left,1,training(20).webm,0,72,72,135,,,,,,,,13:56:15:703,13:56:16:462,13:56:19:465,left,13:56:19:832,,2013_Jan_12_1333,59.9556699969,MP-Perception Experiment,xx29w25,
233,training(16).webm,True,right,1,vgpdm_dyn(5)-lvm(20)_final(0).webm,0,73,73,152,,,,,,,,13:56:20:519,13:56:21:333,13:56:24:336,left,13:56:24:770,,2013_Jan_12_1333,59.9556699969,MP-Perception Experiment,xx29w25,
234,training(34).webm,False,right,1,vcgpdm_dyn(35)-lvm(10)_final(7).webm,0,74,74,6,,,,,,,,13:56:25:588,13:56:26:271,13:56:29:273,right,13:56:29:590,,2013_Jan_12_1333,59.9556699969,MP-Perception Experiment,xx29w25,
235,vcgpdm_dyn(35)-lvm(5)_final(6).webm,True,left,1,training(13).webm,0,75,75,51,,,,,,,,13:56:30:442,13:56:31:091,13:56:34:112,left,13:56:34:477,,2013_Jan_12_1333,59.9556699969,MP-Perception Experiment,xx29w25,
236,vgpdm_dyn(10)-lvm(25)_final(6).webm,True,left,1,training(30).webm,0,76,76,142,,,,,,,,13:56:35:154,13:56:35:978,13:56:38:980,left,13:56:39:364,,2013_Jan_12_1333,59.9556699969,MP-Perception Experiment,xx29w25,
237,training(0).webm,False,right,1,vgpdm_dyn(10)-lvm(35)_final(8).webm,0,77,77,42,,,,,,,,13:56:40:177,13:56:40:865,13:56:43:868,right,13:56:44:251,,2013_Jan_12_1333,59.9556699969,MP-Perception Experiment,xx29w25,
238,training(10).webm,False,right,1,vcgpdm_dyn(10)-lvm(15)_final(4).webm,0,78,78,123,,,,,,,,13:56:45:103,13:56:45:752,13:56:48:740,right,13:56:49:090,,2013_Jan_12_1333,59.9556699969,MP-Perception Experiment,xx29w25,
239,vcgpdm_dyn(10)-lvm(10)_final(1).webm,False,left,1,training(17).webm,0,79,79,10,,,,,,,,13:56:49:961,13:56:50:591,13:56:53:595,left,13:56:54:295,,2013_Jan_12_1333,59.9556699969,MP-Perception Experiment,xx29w25,
240,training(33).webm,False,right,1,vcgpdm_dyn(15)-lvm(30)_final(9).webm,0,80,80,40,,,,,,,,13:56:55:139,13:56:55:797,13:56:58:799,right,13:56:59:216,,2013_Jan_12_1333,59.9556699969,MP-Perception Experiment,xx29w25,
241,vgpdm_dyn(30)-lvm(5)_final(5).webm,True,left,1,training(3).webm,0,81,81,19,,,,,,,,13:56:59:899,13:57:00:717,13:57:03:720,left,13:57:04:070,,2013_Jan_12_1333,59.9556699969,MP-Perception Experiment,xx29w25,
242,vgpdm_dyn(10)-lvm(10)_final(4).webm,True,left,1,training(26).webm,0,82,82,58,,,,,,,,13:57:04:747,13:57:05:571,13:57:08:573,left,13:57:08:974,,2013_Jan_12_1333,59.9556699969,MP-Perception Experiment,xx29w25,
243,training(33).webm,False,right,1,vcgpdm_dyn(35)-lvm(30)_final(5).webm,0,83,83,93,,,,,,,,13:57:09:648,13:57:10:476,13:57:13:479,right,13:57:13:846,,2013_Jan_12_1333,59.9556699969,MP-Perception Experiment,xx29w25,
244,training(27).webm,True,right,1,vgpdm_dyn(35)-lvm(10)_final(0).webm,0,84,84,102,,,,,,,,13:57:14:533,13:57:15:347,13:57:18:349,left,13:57:18:766,,2013_Jan_12_1333,59.9556699969,MP-Perception Experiment,xx29w25,
245,vcgpdm_dyn(30)-lvm(15)_final(9).webm,False,left,1,training(1).webm,0,85,85,88,,,,,,,,13:57:19:444,13:57:20:267,13:57:23:270,left,13:57:23:570,,2013_Jan_12_1333,59.9556699969,MP-Perception Experiment,xx29w25,
246,training(2).webm,False,right,1,vgpdm_dyn(5)-lvm(20)_final(0).webm,0,86,86,46,,,,,,,,13:57:24:251,13:57:25:086,13:57:28:073,right,13:57:28:373,,2013_Jan_12_1333,59.9556699969,MP-Perception Experiment,xx29w25,
247,training(21).webm,False,right,1,vgpdm_dyn(15)-lvm(35)_final(3).webm,0,87,87,109,,,,,,,,13:57:29:058,13:57:29:874,13:57:32:877,right,13:57:33:344,,2013_Jan_12_1333,59.9556699969,MP-Perception Experiment,xx29w25,
248,vgpdm_dyn(30)-lvm(20)_final(0).webm,False,left,1,training(7).webm,0,88,88,76,,,,,,,,13:57:34:019,13:57:34:845,13:57:37:833,right,13:57:38:200,,2013_Jan_12_1333,59.9556699969,MP-Perception Experiment,xx29w25,
249,training(25).webm,False,right,1,vcgpdm_dyn(5)-lvm(20)_final(4).webm,0,89,89,61,,,,,,,,13:57:38:878,13:57:39:701,13:57:42:703,right,13:57:43:270,,2013_Jan_12_1333,59.9556699969,MP-Perception Experiment,xx29w25,
250,training(32).webm,False,right,1,vgpdm_dyn(30)-lvm(35)_final(9).webm,0,90,90,55,,,,,,,,13:57:43:946,13:57:44:772,13:57:47:775,right,13:57:48:259,,2013_Jan_12_1333,59.9556699969,MP-Perception Experiment,xx29w25,
251,training(40).webm,True,right,1,vcgpdm_dyn(10)-lvm(25)_final(2).webm,0,91,91,53,,,,,,,,13:57:48:944,13:57:49:760,13:57:52:762,right,13:57:53:163,,2013_Jan_12_1333,59.9556699969,MP-Perception Experiment,xx29w25,
252,vgpdm_dyn(5)-lvm(30)_final(7).webm,True,left,1,training(24).webm,0,92,92,119,,,,,,,,13:57:53:840,13:57:54:664,13:57:57:666,left,13:57:58:067,,2013_Jan_12_1333,59.9556699969,MP-Perception Experiment,xx29w25,
253,training(11).webm,False,right,1,vgpdm_dyn(15)-lvm(25)_final(0).webm,0,93,93,28,,,,,,,,13:57:58:777,13:57:59:568,13:58:02:571,right,13:58:02:855,,2013_Jan_12_1333,59.9556699969,MP-Perception Experiment,xx29w25,
254,vgpdm_dyn(35)-lvm(20)_final(4)_out_of_screen.webm,True,left,1,training(6).webm,0,94,94,111,,,,,,,,13:58:03:535,13:58:04:356,13:58:07:359,left,13:58:07:659,,2013_Jan_12_1333,59.9556699969,MP-Perception Experiment,xx29w25,
255,training(23).webm,True,right,1,vcgpdm_dyn(20)-lvm(5)_final(3).webm,0,95,95,134,,,,,,,,13:58:08:336,13:58:09:160,13:58:12:162,left,13:58:12:513,,2013_Jan_12_1333,59.9556699969,MP-Perception Experiment,xx29w25,
256,vgpdm_dyn(30)-lvm(20)_final(2).webm,False,left,1,training(18).webm,0,96,96,59,,,,,,,,13:58:13:347,13:58:14:014,13:58:17:014,left,13:58:17:515,,2013_Jan_12_1333,59.9556699969,MP-Perception Experiment,xx29w25,
257,training(32).webm,True,right,1,vcgpdm_dyn(5)-lvm(30)_final(0)_bad.webm,0,97,97,21,,,,,,,,13:58:18:201,13:58:19:017,13:58:22:020,right,13:58:22:370,,2013_Jan_12_1333,59.9556699969,MP-Perception Experiment,xx29w25,
258,vcgpdm_dyn(5)-lvm(25)_final(0).webm,False,left,1,training(34).webm,0,98,98,2,,,,,,,,13:58:23:052,13:58:23:871,13:58:26:875,left,13:58:27:276,,2013_Jan_12_1333,59.9556699969,MP-Perception Experiment,xx29w25,
259,vcgpdm_dyn(30)-lvm(15)_final(5).webm,True,left,1,training(17).webm,0,99,99,91,,,,,,,,13:58:27:962,13:58:28:777,13:58:31:779,left,13:58:32:146,,2013_Jan_12_1333,59.9556699969,MP-Perception Experiment,xx29w25,
260,vgpdm_dyn(25)-lvm(5)_final(5).webm,False,left,1,training(6).webm,0,100,100,137,,,,,,,,13:58:32:822,13:58:33:647,13:58:36:651,left,13:58:37:151,,2013_Jan_12_1333,59.9556699969,MP-Perception Experiment,xx29w25,
261,training(9).webm,False,right,1,vcgpdm_dyn(15)-lvm(30)_final(8).webm,0,101,101,89,,,,,,,,13:58:37:837,13:58:38:652,13:58:41:655,right,13:58:41:972,,2013_Jan_12_1333,59.9556699969,MP-Perception Experiment,xx29w25,
262,training(0).webm,False,right,1,vcgpdm_dyn(35)-lvm(5)_final(9).webm,0,102,102,45,,,,,,,,13:58:42:822,13:58:43:473,13:58:46:475,right,13:58:46:726,,2013_Jan_12_1333,59.9556699969,MP-Perception Experiment,xx29w25,
263,vgpdm_dyn(35)-lvm(15)_final(2)_out_of_screen.webm,False,left,1,training(22).webm,0,103,103,132,,,,,,,,13:58:47:416,13:58:48:227,13:58:51:229,left,13:58:51:596,,2013_Jan_12_1333,59.9556699969,MP-Perception Experiment,xx29w25,
264,vgpdm_dyn(15)-lvm(25)_final(7).webm,False,left,1,training(20).webm,0,104,104,29,,,,,,,,13:58:52:440,13:58:53:097,13:58:56:101,left,13:58:56:534,,2013_Jan_12_1333,59.9556699969,MP-Perception Experiment,xx29w25,
265,vcgpdm_dyn(25)-lvm(30)_final(5).webm,False,left,1,training(34).webm,0,105,105,117,,,,,,,,13:58:57:278,13:58:58:036,13:59:01:055,left,13:59:01:372,,2013_Jan_12_1333,59.9556699969,MP-Perception Experiment,xx29w25,
266,training(9).webm,True,right,1,vgpdm_dyn(15)-lvm(25)_final(3).webm,0,106,106,56,,,,,,,,13:59:02:188,13:59:02:873,13:59:05:874,right,13:59:06:191,,2013_Jan_12_1333,59.9556699969,MP-Perception Experiment,xx29w25,
267,training(17).webm,False,right,1,vcgpdm_dyn(15)-lvm(20)_final(5).webm,0,107,107,108,,,,,,,,13:59:06:877,13:59:07:692,13:59:10:694,right,13:59:11:028,,2013_Jan_12_1333,59.9556699969,MP-Perception Experiment,xx29w25,
268,vgpdm_dyn(5)-lvm(35)_final(0)_bad.webm,True,left,1,training(10).webm,0,108,108,36,,,,,,,,13:59:11:868,13:59:12:530,13:59:15:532,left,13:59:15:816,,2013_Jan_12_1333,59.9556699969,MP-Perception Experiment,xx29w25,
269,vgpdm_dyn(30)-lvm(30)_final(9).webm,False,left,1,training(5).webm,0,109,109,141,,,,,,,,13:59:16:562,13:59:17:317,13:59:20:305,right,13:59:20:555,,2013_Jan_12_1333,59.9556699969,MP-Perception Experiment,xx29w25,
270,vgpdm_dyn(15)-lvm(15)_final(7).webm,False,left,1,training(38).webm,0,110,110,69,,,,,,,,13:59:21:302,13:59:22:056,13:59:25:059,left,13:59:25:359,,2013_Jan_12_1333,59.9556699969,MP-Perception Experiment,xx29w25,
271,training(35).webm,True,right,1,tmp_numprim(5)_final(9).webm,0,111,111,87,,,,,,,,13:59:26:219,13:59:26:860,13:59:29:863,right,13:59:30:180,,2013_Jan_12_1333,59.9556699969,MP-Perception Experiment,xx29w25,
272,vgpdm_dyn(30)-lvm(30)_final(5).webm,True,left,1,training(48).webm,0,112,112,33,,,,,,,,13:59:31:028,13:59:31:681,13:59:34:684,left,13:59:35:101,,2013_Jan_12_1333,59.9556699969,MP-Perception Experiment,xx29w25,
273,vgpdm_dyn(15)-lvm(10)_final(7)_out_of_screen.webm,True,left,1,training(41).webm,0,113,113,3,,,,,,,,13:59:35:788,13:59:36:602,13:59:39:605,left,13:59:39:955,,2013_Jan_12_1333,59.9556699969,MP-Perception Experiment,xx29w25,
274,dmp_npsi(30)_final(6).webm,False,left,1,training(24).webm,0,114,114,60,,,,,,,,13:59:40:637,13:59:41:456,13:59:44:458,left,13:59:44:942,,2013_Jan_12_1333,59.9556699969,MP-Perception Experiment,xx29w25,
275,training(29).webm,True,right,1,tmp_numprim(7)_final(2).webm,0,115,115,133,,,,,,,,13:59:45:573,13:59:46:444,13:59:49:447,left,13:59:49:814,,2013_Jan_12_1333,59.9556699969,MP-Perception Experiment,xx29w25,
276,vgpdm_dyn(35)-lvm(30)_final(4).webm,True,left,1,training(39).webm,0,116,116,73,,,,,,,,13:59:50:493,13:59:51:315,13:59:54:317,left,13:59:55:567,,2013_Jan_12_1333,59.9556699969,MP-Perception Experiment,xx29w25,
277,training(41).webm,False,right,1,dmp_npsi(25)_final(3).webm,0,117,117,85,,,,,,,,13:59:56:247,13:59:57:068,14:00:00:087,right,14:00:00:387,,2013_Jan_12_1333,59.9556699969,MP-Perception Experiment,xx29w25,
278,vgpdm_dyn(20)-lvm(15)_final(2).webm,True,left,1,training(33).webm,0,118,118,130,,,,,,,,14:00:01:062,14:00:01:888,14:00:04:892,left,14:00:05:226,,2013_Jan_12_1333,59.9556699969,MP-Perception Experiment,xx29w25,
279,vgpdm_dyn(15)-lvm(25)_final(7).webm,True,left,1,training(17).webm,0,119,119,113,,,,,,,,14:00:05:909,14:00:06:728,14:00:09:714,left,14:00:10:065,,2013_Jan_12_1333,59.9556699969,MP-Perception Experiment,xx29w25,
280,vgpdm_dyn(35)-lvm(5)_final(6).webm,True,left,1,training(4).webm,0,120,120,75,,,,,,,,14:00:10:754,14:00:11:566,14:00:14:568,left,14:00:14:968,,2013_Jan_12_1333,59.9556699969,MP-Perception Experiment,xx29w25,
281,map_cgpdm_final(1).webm,False,left,1,training(27).webm,0,121,121,8,,,,,,,,14:00:15:818,14:00:16:470,14:00:19:472,left,14:00:19:756,,2013_Jan_12_1333,59.9556699969,MP-Perception Experiment,xx29w25,
282,training(4).webm,True,right,1,vcgpdm_dyn(15)-lvm(25)_final(0).webm,0,122,122,63,,,,,,,,14:00:20:437,14:00:21:257,14:00:24:277,right,14:00:24:561,,2013_Jan_12_1333,59.9556699969,MP-Perception Experiment,xx29w25,
283,training(15).webm,False,right,1,vcgpdm_dyn(10)-lvm(35)_final(3).webm,0,123,123,96,,,,,,,,14:00:25:246,14:00:26:062,14:00:29:064,right,14:00:29:381,,2013_Jan_12_1333,59.9556699969,MP-Perception Experiment,xx29w25,
284,vgpdm_dyn(5)-lvm(5)_final(7)_out_of_screen.webm,True,left,1,training(13).webm,0,124,124,158,,,,,,,,14:00:30:067,14:00:30:882,14:00:33:885,left,14:00:34:185,,2013_Jan_12_1333,59.9556699969,MP-Perception Experiment,xx29w25,
285,map_cgpdm_final(2).webm,True,left,1,training(40).webm,0,125,125,140,,,,,,,,14:00:34:866,14:00:35:686,14:00:38:689,left,14:00:39:007,,2013_Jan_12_1333,59.9556699969,MP-Perception Experiment,xx29w25,
286,vgpdm_dyn(10)-lvm(15)_final(3).webm,True,left,1,training(5).webm,0,126,126,129,,,,,,,,14:00:39:856,14:00:40:508,14:00:43:510,left,14:00:43:794,,2013_Jan_12_1333,59.9556699969,MP-Perception Experiment,xx29w25,
287,training(17).webm,True,right,1,vcgpdm_dyn(25)-lvm(25)_final(2).webm,0,127,127,90,,,,,,,,14:00:44:644,14:00:45:310,14:00:48:296,right,14:00:48:612,,2013_Jan_12_1333,59.9556699969,MP-Perception Experiment,xx29w25,
288,training(18).webm,False,right,1,vgpdm_dyn(35)-lvm(5)_final(6).webm,0,128,128,114,,,,,,,,14:00:49:293,14:00:50:114,14:00:53:116,right,14:00:53:567,,2013_Jan_12_1333,59.9556699969,MP-Perception Experiment,xx29w25,
289,training(11).webm,False,right,1,dmp_npsi(50)_final(8).webm,0,129,129,80,,,,,,,,14:00:54:413,14:00:55:068,14:00:58:056,right,14:00:58:440,,2013_Jan_12_1333,59.9556699969,MP-Perception Experiment,xx29w25,
290,tmp_numprim(10)_final(9).webm,True,left,1,training(9).webm,0,130,130,79,,,,,,,,14:00:59:119,14:00:59:941,14:01:02:944,left,14:01:03:361,,2013_Jan_12_1333,59.9556699969,MP-Perception Experiment,xx29w25,
291,dmp_npsi(30)_final(0).webm,False,left,1,training(40).webm,0,131,131,143,,,,,,,,14:01:04:039,14:01:04:862,14:01:07:864,left,14:01:08:064,,2013_Jan_12_1333,59.9556699969,MP-Perception Experiment,xx29w25,
292,training(24).webm,True,right,1,vgpdm_dyn(30)-lvm(25)_final(8).webm,0,132,132,121,,,,,,,,14:01:08:742,14:01:09:565,14:01:12:568,right,14:01:12:985,,2013_Jan_12_1333,59.9556699969,MP-Perception Experiment,xx29w25,
293,vgpdm_dyn(5)-lvm(15)_final(7).webm,False,left,1,training(34).webm,0,133,133,146,,,,,,,,14:01:13:674,14:01:14:487,14:01:17:490,left,14:01:17:857,,2013_Jan_12_1333,59.9556699969,MP-Perception Experiment,xx29w25,
294,training(36).webm,False,right,1,vcgpdm_dyn(15)-lvm(20)_final(2).webm,0,134,134,4,,,,,,,,14:01:18:539,14:01:19:358,14:01:22:360,left,14:01:22:677,,2013_Jan_12_1333,59.9556699969,MP-Perception Experiment,xx29w25,
295,vcgpdm_dyn(20)-lvm(35)_final(4).webm,False,left,1,training(48).webm,0,135,135,12,,,,,,,,14:01:23:358,14:01:24:178,14:01:27:181,left,14:01:27:548,,2013_Jan_12_1333,59.9556699969,MP-Perception Experiment,xx29w25,
296,training(2).webm,False,right,1,vcgpdm_dyn(20)-lvm(25)_final(4).webm,0,136,136,30,,,,,,,,14:01:28:228,14:01:29:049,14:01:32:052,right,14:01:32:453,,2013_Jan_12_1333,59.9556699969,MP-Perception Experiment,xx29w25,
297,vgpdm_dyn(10)-lvm(25)_final(2).webm,True,left,1,training(33).webm,0,137,137,26,,,,,,,,14:01:33:129,14:01:33:954,14:01:36:955,right,14:01:37:705,,2013_Jan_12_1333,59.9556699969,MP-Perception Experiment,xx29w25,
298,training(25).webm,True,right,1,tmp_numprim(9)_final(4).webm,0,138,138,16,,,,,,,,14:01:38:384,14:01:39:206,14:01:42:209,left,14:01:42:576,,2013_Jan_12_1333,59.9556699969,MP-Perception Experiment,xx29w25,
299,vcgpdm_dyn(5)-lvm(20)_final(4).webm,False,left,1,training(1).webm,0,139,139,74,,,,,,,,14:01:43:255,14:01:44:077,14:01:47:064,left,14:01:47:715,,2013_Jan_12_1333,59.9556699969,MP-Perception Experiment,xx29w25,
300,training(19).webm,True,right,1,vgpdm_dyn(30)-lvm(5)_final(7).webm,0,140,140,72,,,,,,,,14:01:48:390,14:01:49:234,14:01:52:220,right,14:01:52:520,,2013_Jan_12_1333,59.9556699969,MP-Perception Experiment,xx29w25,
301,training(10).webm,True,right,1,tmp_numprim(10)_final(7).webm,0,141,141,128,,,,,,,,14:01:53:368,14:01:54:021,14:01:57:023,left,14:01:57:424,,2013_Jan_12_1333,59.9556699969,MP-Perception Experiment,xx29w25,
302,training(27).webm,False,right,1,dmp_npsi(50)_final(7).webm,0,142,142,84,,,,,,,,14:01:58:239,14:01:58:925,14:02:01:927,left,14:02:02:511,,2013_Jan_12_1333,59.9556699969,MP-Perception Experiment,xx29w25,
303,vcgpdm_dyn(30)-lvm(30)_final(3).webm,False,left,1,training(7).webm,0,143,143,43,,,,,,,,14:02:03:195,14:02:04:012,14:02:07:016,left,14:02:07:283,,2013_Jan_12_1333,59.9556699969,MP-Perception Experiment,xx29w25,
304,vcgpdm_dyn(25)-lvm(5)_final(6).webm,True,left,1,training(16).webm,0,144,144,18,,,,,,,,14:02:08:107,14:02:08:784,14:02:11:786,left,14:02:12:087,,2013_Jan_12_1333,59.9556699969,MP-Perception Experiment,xx29w25,
305,vgpdm_dyn(20)-lvm(35)_final(1).webm,True,left,1,training(31).webm,0,145,145,105,,,,,,,,14:02:12:869,14:02:13:588,14:02:16:590,left,14:02:16:857,,2013_Jan_12_1333,59.9556699969,MP-Perception Experiment,xx29w25,
306,training(1).webm,True,right,1,vgpdm_dyn(20)-lvm(25)_final(7).webm,0,146,146,136,,,,,,,,14:02:17:564,14:02:18:358,14:02:21:361,left,14:02:21:694,,2013_Jan_12_1333,59.9556699969,MP-Perception Experiment,xx29w25,
307,training(5).webm,False,right,1,vgpdm_dyn(20)-lvm(15)_final(0).webm,0,147,147,147,,,,,,,,14:02:22:385,14:02:23:196,14:02:26:197,right,14:02:26:514,,2013_Jan_12_1333,59.9556699969,MP-Perception Experiment,xx29w25,
308,vcgpdm_dyn(25)-lvm(35)_final(9).webm,False,left,1,training(9).webm,0,148,148,49,,,,,,,,14:02:27:239,14:02:28:015,14:02:31:018,left,14:02:31:301,,2013_Jan_12_1333,59.9556699969,MP-Perception Experiment,xx29w25,
309,vcgpdm_dyn(15)-lvm(25)_final(9).webm,False,left,1,training(8).webm,0,149,149,34,,,,,,,,14:02:32:154,14:02:32:803,14:02:35:805,left,14:02:37:023,,2013_Jan_12_1333,59.9556699969,MP-Perception Experiment,xx29w25,
310,vcgpdm_dyn(15)-lvm(20)_final(4).webm,True,left,1,training(9).webm,0,150,150,104,,,,,,,,14:02:37:708,14:02:38:524,14:02:41:512,left,14:02:41:813,,2013_Jan_12_1333,59.9556699969,MP-Perception Experiment,xx29w25,
311,tmp_numprim(8)_final(0).webm,False,left,1,training(28).webm,0,151,151,71,,,,,,,,14:02:42:583,14:02:43:314,14:02:46:316,left,14:02:46:600,,2013_Jan_12_1333,59.9556699969,MP-Perception Experiment,xx29w25,
312,vcgpdm_dyn(5)-lvm(20)_final(1).webm,True,left,1,training(26).webm,0,152,152,124,,,,,,,,14:02:47:285,14:02:48:101,14:02:51:104,left,14:02:51:671,,2013_Jan_12_1333,59.9556699969,MP-Perception Experiment,xx29w25,
313,training(35).webm,False,right,1,vcgpdm_dyn(25)-lvm(25)_final(3).webm,0,153,153,14,,,,,,,,14:02:52:523,14:02:53:172,14:02:56:191,right,14:02:56:508,,2013_Jan_12_1333,59.9556699969,MP-Perception Experiment,xx29w25,
314,vgpdm_dyn(5)-lvm(25)_final(0)_out_of_screen.webm,True,left,1,training(1).webm,0,154,154,110,,,,,,,,14:02:57:189,14:02:58:009,14:03:01:012,left,14:03:01:313,,2013_Jan_12_1333,59.9556699969,MP-Perception Experiment,xx29w25,
315,training(37).webm,False,right,1,tmp_numprim(4)_final(2).webm,0,155,155,107,,,,,,,,14:03:01:997,14:03:02:814,14:03:05:816,right,14:03:06:400,,2013_Jan_12_1333,59.9556699969,MP-Perception Experiment,xx29w25,
316,training(18).webm,False,right,1,vgpdm_dyn(35)-lvm(10)_final(7).webm,0,156,156,144,,,,,,,,14:03:07:044,14:03:07:901,14:03:10:904,right,14:03:11:538,,2013_Jan_12_1333,59.9556699969,MP-Perception Experiment,xx29w25,
317,training(3).webm,False,right,1,vcgpdm_dyn(15)-lvm(30)_final(5).webm,0,157,157,66,,,,,,,,14:03:12:385,14:03:13:039,14:03:16:039,right,14:03:16:341,,2013_Jan_12_1333,59.9556699969,MP-Perception Experiment,xx29w25,
318,training(27).webm,False,right,1,vcgpdm_dyn(35)-lvm(25)_final(5).webm,0,158,158,155,,,,,,,,14:03:17:027,14:03:17:842,14:03:20:844,right,14:03:21:145,,2013_Jan_12_1333,59.9556699969,MP-Perception Experiment,xx29w25,
319,training(18).webm,False,right,2,vcgpdm_dyn(30)-lvm(30)_final(8).webm,0,0,0,145,,,,,,,,14:05:34:030,14:05:34:828,14:05:37:814,right,14:05:38:282,,2013_Jan_12_1333,59.9556699969,MP-Perception Experiment,xx29w25,
320,training(7).webm,True,right,2,vgpdm_dyn(30)-lvm(35)_final(2).webm,0,1,1,46,,,,,,,,14:05:38:962,14:05:39:783,14:05:42:785,left,14:05:43:086,,2013_Jan_12_1333,59.9556699969,MP-Perception Experiment,xx29w25,
321,vcgpdm_dyn(5)-lvm(15)_final(2).webm,False,left,2,training(4).webm,0,2,2,77,,,,,,,,14:05:43:773,14:05:44:603,14:05:47:587,left,14:05:47:888,,2013_Jan_12_1333,59.9556699969,MP-Perception Experiment,xx29w25,
322,training(30).webm,True,right,2,map_gpdm_final(3).webm,0,3,3,154,,,,,,,,14:05:48:571,14:05:49:389,14:05:52:391,right,14:05:52:758,,2013_Jan_12_1333,59.9556699969,MP-Perception Experiment,xx29w25,
323,tmp_numprim(3)_final(6).webm,True,left,2,training(35).webm,0,4,4,60,,,,,,,,14:05:53:449,14:05:54:260,14:05:57:263,left,14:05:57:613,,2013_Jan_12_1333,59.9556699969,MP-Perception Experiment,xx29w25,
324,vcgpdm_dyn(30)-lvm(25)_final(2).webm,False,left,2,training(23).webm,0,5,5,38,,,,,,,,14:05:58:294,14:05:59:114,14:06:02:102,left,14:06:02:869,,2013_Jan_12_1333,59.9556699969,MP-Perception Experiment,xx29w25,
325,training(3).webm,True,right,2,tmp_numprim(6)_final(8).webm,0,6,6,27,,,,,,,,14:06:03:546,14:06:04:370,14:06:07:390,left,14:06:07:656,,2013_Jan_12_1333,59.9556699969,MP-Perception Experiment,xx29w25,
326,vcgpdm_dyn(25)-lvm(10)_final(6).webm,True,left,2,training(8).webm,0,7,7,141,,,,,,,,14:06:08:334,14:06:09:158,14:06:12:161,left,14:06:12:528,,2013_Jan_12_1333,59.9556699969,MP-Perception Experiment,xx29w25,
327,training(17).webm,True,right,2,vcgpdm_dyn(10)-lvm(20)_final(6).webm,0,8,8,69,,,,,,,,14:06:13:207,14:06:14:029,14:06:17:031,right,14:06:17:482,,2013_Jan_12_1333,59.9556699969,MP-Perception Experiment,xx29w25,
328,vcgpdm_dyn(30)-lvm(5)_final(7).webm,True,left,2,training(11).webm,0,9,9,134,,,,,,,,14:06:18:330,14:06:18:983,14:06:21:985,left,14:06:22:303,,2013_Jan_12_1333,59.9556699969,MP-Perception Experiment,xx29w25,
329,training(6).webm,False,right,2,tmp_numprim(7)_final(2).webm,0,10,10,142,,,,,,,,14:06:22:988,14:06:23:804,14:06:26:806,right,14:06:28:057,,2013_Jan_12_1333,59.9556699969,MP-Perception Experiment,xx29w25,
330,training(35).webm,True,right,2,dmp_npsi(50)_final(3).webm,0,11,11,1,,,,,,,,14:06:28:739,14:06:29:559,14:06:32:562,left,14:06:34:430,,2013_Jan_12_1333,59.9556699969,MP-Perception Experiment,xx29w25,
331,dmp_npsi(25)_final(3).webm,False,left,2,training(32).webm,0,12,12,140,,,,,,,,14:06:35:104,14:06:35:946,14:06:38:932,left,14:06:39:499,,2013_Jan_12_1333,59.9556699969,MP-Perception Experiment,xx29w25,
332,vcgpdm_dyn(30)-lvm(20)_final(6).webm,False,left,2,training(40).webm,0,13,13,58,,,,,,,,14:06:40:207,14:06:41:000,14:06:44:003,left,14:06:44:336,,2013_Jan_12_1333,59.9556699969,MP-Perception Experiment,xx29w25,
333,training(13).webm,False,right,2,vgpdm_dyn(5)-lvm(30)_final(2).webm,0,14,14,118,,,,,,,,14:06:45:018,14:06:45:837,14:06:48:826,right,14:06:49:160,,2013_Jan_12_1333,59.9556699969,MP-Perception Experiment,xx29w25,
334,training(29).webm,True,right,2,vcgpdm_dyn(15)-lvm(10)_final(6).webm,0,15,15,64,,,,,,,,14:06:49:846,14:06:50:661,14:06:53:663,right,14:06:54:064,,2013_Jan_12_1333,59.9556699969,MP-Perception Experiment,xx29w25,
335,dmp_npsi(35)_final(5).webm,True,left,2,training(26).webm,0,16,16,2,,,,,,,,14:06:54:851,14:06:55:565,14:06:58:567,left,14:06:58:834,,2013_Jan_12_1333,59.9556699969,MP-Perception Experiment,xx29w25,
336,vcgpdm_dyn(25)-lvm(15)_final(8).webm,False,left,2,training(5).webm,0,17,17,22,,,,,,,,14:06:59:516,14:07:00:335,14:07:03:338,left,14:07:03:622,,2013_Jan_12_1333,59.9556699969,MP-Perception Experiment,xx29w25,
337,training(20).webm,False,right,2,vcgpdm_dyn(35)-lvm(15)_final(4)_out_of_screen.webm,0,18,18,113,,,,,,,,14:07:04:481,14:07:05:123,14:07:08:126,right,14:07:08:493,,2013_Jan_12_1333,59.9556699969,MP-Perception Experiment,xx29w25,
338,tmp_numprim(10)_final(4).webm,True,left,2,training(15).webm,0,19,19,49,,,,,,,,14:07:09:175,14:07:09:994,14:07:12:997,left,14:07:13:263,,2013_Jan_12_1333,59.9556699969,MP-Perception Experiment,xx29w25,
339,training(48).webm,True,right,2,vcgpdm_dyn(10)-lvm(20)_final(1).webm,0,20,20,54,,,,,,,,14:07:14:083,14:07:14:765,14:07:17:767,right,14:07:18:134,,2013_Jan_12_1333,59.9556699969,MP-Perception Experiment,xx29w25,
340,training(1).webm,False,right,2,vcgpdm_dyn(10)-lvm(35)_final(8).webm,0,21,21,147,,,,,,,,14:07:18:821,14:07:19:635,14:07:22:639,right,14:07:22:906,,2013_Jan_12_1333,59.9556699969,MP-Perception Experiment,xx29w25,
341,vgpdm_dyn(25)-lvm(5)_final(2).webm,False,left,2,training(15).webm,0,22,22,127,,,,,,,,14:07:23:651,14:07:24:407,14:07:27:407,left,14:07:27:724,,2013_Jan_12_1333,59.9556699969,MP-Perception Experiment,xx29w25,
342,training(25).webm,False,right,2,map_cgpdm_final(6).webm,0,23,23,104,,,,,,,,14:07:28:575,14:07:29:225,14:07:32:228,right,14:07:32:545,,2013_Jan_12_1333,59.9556699969,MP-Perception Experiment,xx29w25,
343,vcgpdm_dyn(20)-lvm(25)_final(5).webm,False,left,2,training(27).webm,0,24,24,103,,,,,,,,14:07:33:229,14:07:34:046,14:07:37:034,left,14:07:37:334,,2013_Jan_12_1333,59.9556699969,MP-Perception Experiment,xx29w25,
344,dmp_npsi(35)_final(3).webm,True,left,2,training(14).webm,0,25,25,44,,,,,,,,14:07:38:023,14:07:38:836,14:07:41:838,left,14:07:42:072,,2013_Jan_12_1333,59.9556699969,MP-Perception Experiment,xx29w25,
345,vcgpdm_dyn(25)-lvm(25)_final(8).webm,True,left,2,training(22).webm,0,26,26,149,,,,,,,,14:07:42:783,14:07:43:573,14:07:46:575,left,14:07:46:976,,2013_Jan_12_1333,59.9556699969,MP-Perception Experiment,xx29w25,
346,training(7).webm,True,right,2,tmp_numprim(4)_final(2).webm,0,27,27,10,,,,,,,,14:07:47:657,14:07:48:477,14:07:51:480,right,14:07:51:797,,2013_Jan_12_1333,59.9556699969,MP-Perception Experiment,xx29w25,
347,training(12).webm,False,right,2,vgpdm_dyn(30)-lvm(30)_final(6).webm,0,28,28,3,,,,,,,,14:07:52:485,14:07:53:298,14:07:56:301,right,14:07:56:968,,2013_Jan_12_1333,59.9556699969,MP-Perception Experiment,xx29w25,
348,training(18).webm,True,right,2,vcgpdm_dyn(25)-lvm(25)_final(0).webm,0,29,29,86,,,,,,,,14:07:57:649,14:07:58:469,14:08:01:472,right,14:08:01:672,,2013_Jan_12_1333,59.9556699969,MP-Perception Experiment,xx29w25,
349,training(33).webm,False,right,2,vcgpdm_dyn(35)-lvm(5)_final(1).webm,0,30,30,6,,,,,,,,14:08:02:356,14:08:03:173,14:08:06:176,right,14:08:06:559,,2013_Jan_12_1333,59.9556699969,MP-Perception Experiment,xx29w25,
350,training(4).webm,False,right,2,vgpdm_dyn(20)-lvm(15)_final(7).webm,0,31,31,82,,,,,,,,14:08:07:380,14:08:08:061,14:08:11:063,right,14:08:11:347,,2013_Jan_12_1333,59.9556699969,MP-Perception Experiment,xx29w25,
351,vcgpdm_dyn(25)-lvm(20)_final(8).webm,True,left,2,training(41).webm,0,32,32,143,,,,,,,,14:08:12:161,14:08:12:848,14:08:15:849,left,14:08:16:066,,2013_Jan_12_1333,59.9556699969,MP-Perception Experiment,xx29w25,
352,training(14).webm,True,right,2,vgpdm_dyn(20)-lvm(5)_final(8).webm,0,33,33,21,,,,,,,,14:08:16:748,14:08:17:567,14:08:20:570,right,14:08:20:870,,2013_Jan_12_1333,59.9556699969,MP-Perception Experiment,xx29w25,
353,vgpdm_dyn(30)-lvm(25)_final(5).webm,False,left,2,training(23).webm,0,34,34,144,,,,,,,,14:08:21:612,14:08:22:371,14:08:25:374,left,14:08:25:741,,2013_Jan_12_1333,59.9556699969,MP-Perception Experiment,xx29w25,
354,vgpdm_dyn(20)-lvm(25)_final(7).webm,True,left,2,training(11).webm,0,35,35,158,,,,,,,,14:08:26:420,14:08:27:242,14:08:30:230,left,14:08:30:496,,2013_Jan_12_1333,59.9556699969,MP-Perception Experiment,xx29w25,
355,vgpdm_dyn(35)-lvm(25)_final(3).webm,True,left,2,training(29).webm,0,36,36,31,,,,,,,,14:08:31:180,14:08:31:999,14:08:35:001,left,14:08:35:351,,2013_Jan_12_1333,59.9556699969,MP-Perception Experiment,xx29w25,
356,training(15).webm,True,right,2,vgpdm_dyn(30)-lvm(10)_final(1).webm,0,37,37,112,,,,,,,,14:08:36:205,14:08:36:852,14:08:39:855,left,14:08:40:139,,2013_Jan_12_1333,59.9556699969,MP-Perception Experiment,xx29w25,
357,vgpdm_dyn(15)-lvm(25)_final(1).webm,True,left,2,training(8).webm,0,38,38,18,,,,,,,,14:08:40:822,14:08:41:640,14:08:44:642,left,14:08:45:009,,2013_Jan_12_1333,59.9556699969,MP-Perception Experiment,xx29w25,
358,training(33).webm,True,right,2,vcgpdm_dyn(5)-lvm(35)_final(2)_bad.webm,0,39,39,43,,,,,,,,14:08:45:712,14:08:46:510,14:08:49:514,right,14:08:49:914,,2013_Jan_12_1333,59.9556699969,MP-Perception Experiment,xx29w25,
359,vcgpdm_dyn(20)-lvm(5)_final(8).webm,False,left,2,training(5).webm,0,40,40,48,,,,,,,,14:08:50:597,14:08:51:415,14:08:54:418,left,14:08:54:801,,2013_Jan_12_1333,59.9556699969,MP-Perception Experiment,xx29w25,
360,training(38).webm,False,right,2,vcgpdm_dyn(25)-lvm(35)_final(4).webm,0,41,41,157,,,,,,,,14:08:55:489,14:08:56:303,14:08:59:305,right,14:08:59:855,,2013_Jan_12_1333,59.9556699969,MP-Perception Experiment,xx29w25,
361,training(38).webm,True,right,2,vgpdm_dyn(15)-lvm(30)_final(6).webm,0,42,42,135,,,,,,,,14:09:00:540,14:09:01:357,14:09:04:376,right,14:09:04:793,,2013_Jan_12_1333,59.9556699969,MP-Perception Experiment,xx29w25,
362,vcgpdm_dyn(15)-lvm(35)_final(1).webm,False,left,2,training(37).webm,0,43,43,33,,,,,,,,14:09:05:482,14:09:06:310,14:09:09:296,left,14:09:09:646,,2013_Jan_12_1333,59.9556699969,MP-Perception Experiment,xx29w25,
363,tmp_numprim(10)_final(2).webm,False,left,2,training(14).webm,0,44,44,119,,,,,,,,14:09:10:330,14:09:11:147,14:09:14:150,left,14:09:14:567,,2013_Jan_12_1333,59.9556699969,MP-Perception Experiment,xx29w25,
364,training(1).webm,True,right,2,vgpdm_dyn(30)-lvm(10)_final(1).webm,0,45,45,84,,,,,,,,14:09:15:244,14:09:16:068,14:09:19:055,right,14:09:19:389,,2013_Jan_12_1333,59.9556699969,MP-Perception Experiment,xx29w25,
365,vgpdm_dyn(25)-lvm(5)_final(6).webm,False,left,2,training(31).webm,0,46,46,11,,,,,,,,14:09:20:073,14:09:20:890,14:09:23:910,left,14:09:24:210,,2013_Jan_12_1333,59.9556699969,MP-Perception Experiment,xx29w25,
366,training(28).webm,False,right,2,map_cgpdm_final(5).webm,0,47,47,106,,,,,,,,14:09:25:060,14:09:25:712,14:09:28:714,right,14:09:29:198,,2013_Jan_12_1333,59.9556699969,MP-Perception Experiment,xx29w25,
367,training(48).webm,False,right,2,dmp_npsi(50)_final(3).webm,0,48,48,32,,,,,,,,14:09:29:874,14:09:30:699,14:09:33:702,right,14:09:34:135,,2013_Jan_12_1333,59.9556699969,MP-Perception Experiment,xx29w25,
368,tmp_numprim(8)_final(1).webm,False,left,2,training(34).webm,0,49,49,129,,,,,,,,14:09:34:950,14:09:35:636,14:09:38:639,left,14:09:39:039,,2013_Jan_12_1333,59.9556699969,MP-Perception Experiment,xx29w25,
369,vgpdm_dyn(30)-lvm(20)_final(3).webm,False,left,2,training(11).webm,0,50,50,116,,,,,,,,14:09:39:720,14:09:40:540,14:09:43:544,left,14:09:44:428,,2013_Jan_12_1333,59.9556699969,MP-Perception Experiment,xx29w25,
370,vgpdm_dyn(5)-lvm(15)_final(3).webm,False,left,2,training(28).webm,0,51,51,131,,,,,,,,14:09:45:271,14:09:45:929,14:09:48:931,left,14:09:49:415,,2013_Jan_12_1333,59.9556699969,MP-Perception Experiment,xx29w25,
371,training(24).webm,False,right,2,vcgpdm_dyn(10)-lvm(35)_final(6).webm,0,52,52,19,,,,,,,,14:09:50:095,14:09:50:916,14:09:53:919,right,14:09:54:336,,2013_Jan_12_1333,59.9556699969,MP-Perception Experiment,xx29w25,
372,vgpdm_dyn(35)-lvm(30)_final(6).webm,False,left,2,training(18).webm,0,53,53,153,,,,,,,,14:09:55:049,14:09:55:837,14:09:58:839,right,14:09:59:656,,2013_Jan_12_1333,59.9556699969,MP-Perception Experiment,xx29w25,
373,training(12).webm,False,right,2,tmp_numprim(6)_final(4).webm,0,54,54,146,,,,,,,,14:10:00:337,14:10:01:157,14:10:04:160,right,14:10:04:410,,2013_Jan_12_1333,59.9556699969,MP-Perception Experiment,xx29w25,
374,training(1).webm,False,right,2,vgpdm_dyn(35)-lvm(30)_final(9).webm,0,55,55,26,,,,,,,,14:10:05:259,14:10:05:911,14:10:08:913,left,14:10:09:214,,2013_Jan_12_1333,59.9556699969,MP-Perception Experiment,xx29w25,
375,training(19).webm,False,right,2,vgpdm_dyn(20)-lvm(35)_final(1).webm,0,56,56,76,,,,,,,,14:10:09:901,14:10:10:717,14:10:13:702,right,14:10:14:086,,2013_Jan_12_1333,59.9556699969,MP-Perception Experiment,xx29w25,
376,training(41).webm,True,right,2,vcgpdm_dyn(15)-lvm(30)_final(6).webm,0,57,57,111,,,,,,,,14:10:14:769,14:10:15:587,14:10:18:591,right,14:10:20:159,,2013_Jan_12_1333,59.9556699969,MP-Perception Experiment,xx29w25,
377,training(32).webm,True,right,2,vcgpdm_dyn(5)-lvm(15)_final(9).webm,0,58,58,20,,,,,,,,14:10:20:844,14:10:21:660,14:10:24:662,right,14:10:25:029,,2013_Jan_12_1333,59.9556699969,MP-Perception Experiment,xx29w25,
378,training(31).webm,True,right,2,vcgpdm_dyn(35)-lvm(35)_final(3)_bad.webm,0,59,59,91,,,,,,,,14:10:25:716,14:10:26:530,14:10:29:533,right,14:10:30:083,,2013_Jan_12_1333,59.9556699969,MP-Perception Experiment,xx29w25,
379,tmp_numprim(2)_final(4).webm,False,left,2,training(28).webm,0,60,60,56,,,,,,,,14:10:30:766,14:10:31:584,14:10:34:588,left,14:10:35:055,,2013_Jan_12_1333,59.9556699969,MP-Perception Experiment,xx29w25,
380,training(9).webm,False,right,2,vgpdm_dyn(20)-lvm(25)_final(0).webm,0,61,61,45,,,,,,,,14:10:35:741,14:10:36:556,14:10:39:559,right,14:10:39:842,,2013_Jan_12_1333,59.9556699969,MP-Perception Experiment,xx29w25,
381,training(0).webm,False,right,2,vgpdm_dyn(20)-lvm(5)_final(0).webm,0,62,62,110,,,,,,,,14:10:40:530,14:10:41:343,14:10:44:346,right,14:10:44:729,,2013_Jan_12_1333,59.9556699969,MP-Perception Experiment,xx29w25,
382,training(0).webm,True,right,2,vcgpdm_dyn(10)-lvm(30)_final(7).webm,0,63,63,7,,,,,,,,14:10:45:546,14:10:46:245,14:10:49:231,right,14:10:49:615,,2013_Jan_12_1333,59.9556699969,MP-Perception Experiment,xx29w25,
383,training(7).webm,False,right,2,vgpdm_dyn(25)-lvm(10)_final(6)_out_of_screen.webm,0,64,64,101,,,,,,,,14:10:50:305,14:10:51:117,14:10:54:120,right,14:10:54:587,,2013_Jan_12_1333,59.9556699969,MP-Perception Experiment,xx29w25,
384,vcgpdm_dyn(15)-lvm(5)_final(0).webm,False,left,2,training(3).webm,0,65,65,138,,,,,,,,14:10:55:271,14:10:56:088,14:10:59:075,left,14:10:59:409,,2013_Jan_12_1333,59.9556699969,MP-Perception Experiment,xx29w25,
385,vgpdm_dyn(5)-lvm(30)_final(9).webm,True,left,2,training(0).webm,0,66,66,14,,,,,,,,14:11:00:103,14:11:00:910,14:11:03:912,left,14:11:04:430,,2013_Jan_12_1333,59.9556699969,MP-Perception Experiment,xx29w25,
386,training(31).webm,False,right,2,vcgpdm_dyn(30)-lvm(25)_final(8).webm,0,67,67,30,,,,,,,,14:11:05:240,14:11:05:931,14:11:08:934,right,14:11:09:268,,2013_Jan_12_1333,59.9556699969,MP-Perception Experiment,xx29w25,
387,vgpdm_dyn(5)-lvm(20)_final(7).webm,True,left,2,training(17).webm,0,68,68,52,,,,,,,,14:11:09:951,14:11:10:769,14:11:13:771,left,14:11:14:038,,2013_Jan_12_1333,59.9556699969,MP-Perception Experiment,xx29w25,
388,training(8).webm,False,right,2,vgpdm_dyn(35)-lvm(25)_final(6).webm,0,69,69,16,,,,,,,,14:11:14:892,14:11:15:540,14:11:18:542,right,14:11:19:009,,2013_Jan_12_1333,59.9556699969,MP-Perception Experiment,xx29w25,
389,tmp_numprim(9)_final(5).webm,False,left,2,training(8).webm,0,70,70,61,,,,,,,,14:11:19:688,14:11:20:510,14:11:23:513,left,14:11:23:863,,2013_Jan_12_1333,59.9556699969,MP-Perception Experiment,xx29w25,
390,vcgpdm_dyn(30)-lvm(5)_final(2).webm,True,left,2,training(24).webm,0,71,71,98,,,,,,,,14:11:24:712,14:11:25:364,14:11:28:367,left,14:11:28:918,,2013_Jan_12_1333,59.9556699969,MP-Perception Experiment,xx29w25,
391,training(30).webm,False,right,2,vcgpdm_dyn(10)-lvm(35)_final(6).webm,0,72,72,133,,,,,,,,14:11:29:598,14:11:30:419,14:11:33:422,right,14:11:33:805,,2013_Jan_12_1333,59.9556699969,MP-Perception Experiment,xx29w25,
392,vgpdm_dyn(30)-lvm(30)_final(9).webm,False,left,2,training(13).webm,0,73,73,71,,,,,,,,14:11:34:481,14:11:35:307,14:11:38:307,left,14:11:38:674,,2013_Jan_12_1333,59.9556699969,MP-Perception Experiment,xx29w25,
393,training(21).webm,True,right,2,vgpdm_dyn(30)-lvm(20)_final(0).webm,0,74,74,125,,,,,,,,14:11:39:354,14:11:40:175,14:11:43:178,left,14:11:43:479,,2013_Jan_12_1333,59.9556699969,MP-Perception Experiment,xx29w25,
394,training(37).webm,True,right,2,dmp_npsi(20)_final(8).webm,0,75,75,155,,,,,,,,14:11:44:165,14:11:44:980,14:11:47:983,right,14:11:48:433,,2013_Jan_12_1333,59.9556699969,MP-Perception Experiment,xx29w25,
395,map_cgpdm_final(9).webm,False,left,2,training(34).webm,0,76,76,97,,,,,,,,14:11:49:118,14:11:49:934,14:11:52:939,left,14:11:53:289,,2013_Jan_12_1333,59.9556699969,MP-Perception Experiment,xx29w25,
396,vgpdm_dyn(35)-lvm(35)_final(2).webm,False,left,2,training(20).webm,0,77,77,115,,,,,,,,14:11:53:972,14:11:54:790,14:11:57:793,left,14:11:58:159,,2013_Jan_12_1333,59.9556699969,MP-Perception Experiment,xx29w25,
397,training(2).webm,False,right,2,vcgpdm_dyn(5)-lvm(25)_final(4).webm,0,78,78,151,,,,,,,,14:11:58:844,14:11:59:661,14:12:02:664,right,14:12:03:198,,2013_Jan_12_1333,59.9556699969,MP-Perception Experiment,xx29w25,
398,training(12).webm,False,right,2,vgpdm_dyn(10)-lvm(20)_final(7).webm,0,79,79,93,,,,,,,,14:12:03:880,14:12:04:699,14:12:07:701,right,14:12:08:185,,2013_Jan_12_1333,59.9556699969,MP-Perception Experiment,xx29w25,
399,vcgpdm_dyn(20)-lvm(15)_final(2).webm,True,left,2,training(3).webm,0,80,80,63,,,,,,,,14:12:08:896,14:12:09:686,14:12:12:689,left,14:12:13:006,,2013_Jan_12_1333,59.9556699969,MP-Perception Experiment,xx29w25,
400,training(34).webm,True,right,2,dmp_npsi(20)_final(3).webm,0,81,81,25,,,,,,,,14:12:13:844,14:12:14:507,14:12:17:509,right,14:12:18:077,,2013_Jan_12_1333,59.9556699969,MP-Perception Experiment,xx29w25,
401,vgpdm_dyn(25)-lvm(20)_final(2).webm,False,left,2,training(22).webm,0,82,82,78,,,,,,,,14:12:18:761,14:12:19:579,14:12:22:581,left,14:12:23:065,,2013_Jan_12_1333,59.9556699969,MP-Perception Experiment,xx29w25,
402,vcgpdm_dyn(35)-lvm(20)_final(4).webm,True,left,2,training(21).webm,0,83,83,139,,,,,,,,14:12:23:750,14:12:24:566,14:12:27:567,left,14:12:27:884,,2013_Jan_12_1333,59.9556699969,MP-Perception Experiment,xx29w25,
403,vgpdm_dyn(10)-lvm(35)_final(3).webm,False,left,2,training(37).webm,0,84,84,130,,,,,,,,14:12:28:565,14:12:29:385,14:12:32:387,left,14:12:32:721,,2013_Jan_12_1333,59.9556699969,MP-Perception Experiment,xx29w25,
404,training(15).webm,False,right,2,vgpdm_dyn(35)-lvm(25)_final(2).webm,0,85,85,109,,,,,,,,14:12:33:570,14:12:34:222,14:12:37:225,right,14:12:37:576,,2013_Jan_12_1333,59.9556699969,MP-Perception Experiment,xx29w25,
405,vgpdm_dyn(25)-lvm(35)_final(1).webm,True,left,2,training(27).webm,0,86,86,75,,,,,,,,14:12:38:308,14:12:39:079,14:12:42:081,right,14:12:42:715,,2013_Jan_12_1333,59.9556699969,MP-Perception Experiment,xx29w25,
406,training(12).webm,True,right,2,vcgpdm_dyn(25)-lvm(15)_final(0).webm,0,87,87,107,,,,,,,,14:12:43:393,14:12:44:216,14:12:47:219,right,14:12:47:636,,2013_Jan_12_1333,59.9556699969,MP-Perception Experiment,xx29w25,
407,vcgpdm_dyn(10)-lvm(25)_final(1).webm,True,left,2,training(26).webm,0,88,88,100,,,,,,,,14:12:48:408,14:12:49:137,14:12:52:156,left,14:12:52:623,,2013_Jan_12_1333,59.9556699969,MP-Perception Experiment,xx29w25,
408,vgpdm_dyn(35)-lvm(35)_final(7).webm,False,left,2,training(24).webm,0,89,89,59,,,,,,,,14:12:53:477,14:12:54:125,14:12:57:128,right,14:12:57:495,,2013_Jan_12_1333,59.9556699969,MP-Perception Experiment,xx29w25,
409,vgpdm_dyn(20)-lvm(20)_final(8).webm,False,left,2,training(2).webm,0,90,90,0,,,,,,,,14:12:58:268,14:12:58:996,14:13:01:998,right,14:13:02:298,,2013_Jan_12_1333,59.9556699969,MP-Perception Experiment,xx29w25,
410,training(30).webm,True,right,2,vgpdm_dyn(25)-lvm(15)_final(4)_out_of_screen.webm,0,91,91,37,,,,,,,,14:13:02:985,14:13:03:800,14:13:06:819,right,14:13:07:353,,2013_Jan_12_1333,59.9556699969,MP-Perception Experiment,xx29w25,
411,training(8).webm,False,right,2,vgpdm_dyn(5)-lvm(20)_final(7).webm,0,92,92,47,,,,,,,,14:13:08:030,14:13:08:854,14:13:11:857,right,14:13:12:174,,2013_Jan_12_1333,59.9556699969,MP-Perception Experiment,xx29w25,
412,training(20).webm,False,right,2,vcgpdm_dyn(30)-lvm(35)_final(0).webm,0,93,93,150,,,,,,,,14:13:12:852,14:13:13:675,14:13:16:676,right,14:13:17:043,,2013_Jan_12_1333,59.9556699969,MP-Perception Experiment,xx29w25,
413,vcgpdm_dyn(10)-lvm(15)_final(5).webm,False,left,2,training(14).webm,0,94,94,23,,,,,,,,14:13:17:725,14:13:18:544,14:13:21:547,left,14:13:21:897,,2013_Jan_12_1333,59.9556699969,MP-Perception Experiment,xx29w25,
414,vcgpdm_dyn(10)-lvm(25)_final(2).webm,False,left,2,training(5).webm,0,95,95,136,,,,,,,,14:13:22:576,14:13:23:398,14:13:26:401,left,14:13:26:768,,2013_Jan_12_1333,59.9556699969,MP-Perception Experiment,xx29w25,
415,training(17).webm,False,right,2,vgpdm_dyn(30)-lvm(15)_final(7).webm,0,96,96,128,,,,,,,,14:13:27:473,14:13:28:270,14:13:31:257,right,14:13:31:674,,2013_Jan_12_1333,59.9556699969,MP-Perception Experiment,xx29w25,
416,vcgpdm_dyn(20)-lvm(15)_final(3).webm,False,left,2,training(7).webm,0,97,97,124,,,,,,,,14:13:32:357,14:13:33:175,14:13:36:177,left,14:13:37:512,,2013_Jan_12_1333,59.9556699969,MP-Perception Experiment,xx29w25,
417,vcgpdm_dyn(5)-lvm(10)_final(4).webm,True,left,2,training(39).webm,0,98,98,105,,,,,,,,14:13:38:200,14:13:39:013,14:13:42:016,right,14:13:42:466,,2013_Jan_12_1333,59.9556699969,MP-Perception Experiment,xx29w25,
418,training(30).webm,True,right,2,vgpdm_dyn(20)-lvm(25)_final(9).webm,0,99,99,9,,,,,,,,14:13:43:148,14:13:43:967,14:13:46:971,right,14:13:47:254,,2013_Jan_12_1333,59.9556699969,MP-Perception Experiment,xx29w25,
419,training(5).webm,True,right,2,vgpdm_dyn(20)-lvm(20)_final(8).webm,0,100,100,132,,,,,,,,14:13:47:936,14:13:48:756,14:13:51:758,left,14:13:52:142,,2013_Jan_12_1333,59.9556699969,MP-Perception Experiment,xx29w25,
420,training(9).webm,False,right,2,vgpdm_dyn(35)-lvm(10)_final(2).webm,0,101,101,121,,,,,,,,14:13:52:821,14:13:53:643,14:13:56:645,right,14:13:57:096,,2013_Jan_12_1333,59.9556699969,MP-Perception Experiment,xx29w25,
421,training(5).webm,False,right,2,vgpdm_dyn(30)-lvm(15)_final(7).webm,0,102,102,126,,,,,,,,14:13:57:776,14:13:58:597,14:14:01:599,right,14:14:01:916,,2013_Jan_12_1333,59.9556699969,MP-Perception Experiment,xx29w25,
422,training(28).webm,False,right,2,vcgpdm_dyn(5)-lvm(5)_final(2).webm,0,103,103,79,,,,,,,,14:14:02:599,14:14:03:418,14:14:06:419,right,14:14:06:703,,2013_Jan_12_1333,59.9556699969,MP-Perception Experiment,xx29w25,
423,vgpdm_dyn(20)-lvm(5)_final(4).webm,False,left,2,training(3).webm,0,104,104,156,,,,,,,,14:14:07:523,14:14:08:204,14:14:11:206,right,14:14:11:540,,2013_Jan_12_1333,59.9556699969,MP-Perception Experiment,xx29w25,
424,vgpdm_dyn(30)-lvm(10)_final(5).webm,False,left,2,training(4).webm,0,105,105,87,,,,,,,,14:14:12:223,14:14:13:041,14:14:16:044,left,14:14:16:227,,2013_Jan_12_1333,59.9556699969,MP-Perception Experiment,xx29w25,
425,dmp_npsi(45)_final(7).webm,True,left,2,training(20).webm,0,106,106,123,,,,,,,,14:14:17:007,14:14:17:728,14:14:20:717,left,14:14:21:251,,2013_Jan_12_1333,59.9556699969,MP-Perception Experiment,xx29w25,
426,vgpdm_dyn(30)-lvm(35)_final(8).webm,True,left,2,training(33).webm,0,107,107,39,,,,,,,,14:14:22:019,14:14:22:752,14:14:25:754,left,14:14:26:121,,2013_Jan_12_1333,59.9556699969,MP-Perception Experiment,xx29w25,
427,training(25).webm,False,right,2,vcgpdm_dyn(20)-lvm(15)_final(9).webm,0,108,108,85,,,,,,,,14:14:26:974,14:14:27:622,14:14:30:625,right,14:14:31:242,,2013_Jan_12_1333,59.9556699969,MP-Perception Experiment,xx29w25,
428,vgpdm_dyn(35)-lvm(25)_final(5).webm,False,left,2,training(16).webm,0,109,109,51,,,,,,,,14:14:31:925,14:14:32:743,14:14:35:745,left,14:14:36:930,,2013_Jan_12_1333,59.9556699969,MP-Perception Experiment,xx29w25,
429,vcgpdm_dyn(35)-lvm(10)_final(8).webm,True,left,2,training(9).webm,0,110,110,81,,,,,,,,14:14:37:605,14:14:38:432,14:14:41:434,left,14:14:41:785,,2013_Jan_12_1333,59.9556699969,MP-Perception Experiment,xx29w25,
430,training(28).webm,False,right,2,vgpdm_dyn(20)-lvm(20)_final(8).webm,0,111,111,8,,,,,,,,14:14:42:466,14:14:43:286,14:14:46:288,left,14:14:47:056,,2013_Jan_12_1333,59.9556699969,MP-Perception Experiment,xx29w25,
431,training(18).webm,True,right,2,vgpdm_dyn(15)-lvm(30)_final(6).webm,0,112,112,13,,,,,,,,14:14:47:735,14:14:48:557,14:14:51:559,right,14:14:51:876,,2013_Jan_12_1333,59.9556699969,MP-Perception Experiment,xx29w25,
432,vgpdm_dyn(35)-lvm(10)_final(5).webm,True,left,2,training(33).webm,0,113,113,83,,,,,,,,14:14:52:561,14:14:53:377,14:14:56:379,left,14:14:56:763,,2013_Jan_12_1333,59.9556699969,MP-Perception Experiment,xx29w25,
433,training(30).webm,False,right,2,vcgpdm_dyn(20)-lvm(10)_final(1).webm,0,114,114,70,,,,,,,,14:14:57:441,14:14:58:264,14:15:01:266,right,14:15:01:550,,2013_Jan_12_1333,59.9556699969,MP-Perception Experiment,xx29w25,
434,vcgpdm_dyn(25)-lvm(30)_final(4).webm,True,left,2,training(24).webm,0,115,115,90,,,,,,,,14:15:02:232,14:15:03:051,14:15:06:054,left,14:15:06:504,,2013_Jan_12_1333,59.9556699969,MP-Perception Experiment,xx29w25,
435,tmp_numprim(2)_final(0).webm,False,left,2,training(35).webm,0,116,116,17,,,,,,,,14:15:07:186,14:15:08:005,14:15:10:992,left,14:15:11:276,,2013_Jan_12_1333,59.9556699969,MP-Perception Experiment,xx29w25,
436,vcgpdm_dyn(10)-lvm(30)_final(4).webm,True,left,2,training(6).webm,0,117,117,41,,,,,,,,14:15:11:962,14:15:12:777,14:15:15:781,left,14:15:16:265,,2013_Jan_12_1333,59.9556699969,MP-Perception Experiment,xx29w25,
437,vcgpdm_dyn(30)-lvm(35)_final(2).webm,False,left,2,training(24).webm,0,118,118,57,,,,,,,,14:15:16:950,14:15:17:766,14:15:20:768,left,14:15:22:136,,2013_Jan_12_1333,59.9556699969,MP-Perception Experiment,xx29w25,
438,training(38).webm,True,right,2,vgpdm_dyn(20)-lvm(20)_final(2).webm,0,119,119,68,,,,,,,,14:15:22:819,14:15:23:637,14:15:26:639,left,14:15:27:023,,2013_Jan_12_1333,59.9556699969,MP-Perception Experiment,xx29w25,
439,training(4).webm,False,right,2,vcgpdm_dyn(10)-lvm(25)_final(1).webm,0,120,120,114,,,,,,,,14:15:27:700,14:15:28:524,14:15:31:528,right,14:15:31:945,,2013_Jan_12_1333,59.9556699969,MP-Perception Experiment,xx29w25,
440,training(26).webm,True,right,2,map_gpdm_final(1).webm,0,121,121,67,,,,,,,,14:15:32:658,14:15:33:446,14:15:36:449,right,14:15:36:982,,2013_Jan_12_1333,59.9556699969,MP-Perception Experiment,xx29w25,
441,training(3).webm,False,right,2,vcgpdm_dyn(25)-lvm(20)_final(6).webm,0,122,122,88,,,,,,,,14:15:37:659,14:15:38:484,14:15:41:486,left,14:15:41:970,,2013_Jan_12_1333,59.9556699969,MP-Perception Experiment,xx29w25,
442,vcgpdm_dyn(35)-lvm(25)_final(1).webm,False,left,2,training(27).webm,0,123,123,95,,,,,,,,14:15:42:824,14:15:43:471,14:15:46:472,left,14:15:46:738,,2013_Jan_12_1333,59.9556699969,MP-Perception Experiment,xx29w25,
443,training(11).webm,True,right,2,vcgpdm_dyn(15)-lvm(35)_final(0).webm,0,124,124,62,,,,,,,,14:15:47:422,14:15:48:241,14:15:51:243,right,14:15:51:927,,2013_Jan_12_1333,59.9556699969,MP-Perception Experiment,xx29w25,
444,vgpdm_dyn(35)-lvm(10)_final(0).webm,True,left,2,training(17).webm,0,125,125,29,,,,,,,,14:15:52:608,14:15:53:428,14:15:56:431,left,14:15:56:831,,2013_Jan_12_1333,59.9556699969,MP-Perception Experiment,xx29w25,
445,training(15).webm,False,right,2,vgpdm_dyn(30)-lvm(35)_final(7).webm,0,126,126,66,,,,,,,,14:15:57:679,14:15:58:334,14:16:01:319,left,14:16:01:737,,2013_Jan_12_1333,59.9556699969,MP-Perception Experiment,xx29w25,
446,vgpdm_dyn(10)-lvm(35)_final(6).webm,True,left,2,training(0).webm,0,127,127,120,,,,,,,,14:16:02:422,14:16:03:238,14:16:06:241,left,14:16:06:675,,2013_Jan_12_1333,59.9556699969,MP-Perception Experiment,xx29w25,
447,vcgpdm_dyn(20)-lvm(30)_final(7).webm,False,left,2,training(10).webm,0,128,128,122,,,,,,,,14:16:07:531,14:16:08:176,14:16:11:178,left,14:16:11:679,,2013_Jan_12_1333,59.9556699969,MP-Perception Experiment,xx29w25,
448,vgpdm_dyn(5)-lvm(15)_final(6).webm,False,left,2,training(18).webm,0,129,129,15,,,,,,,,14:16:12:365,14:16:13:180,14:16:16:183,left,14:16:16:683,,2013_Jan_12_1333,59.9556699969,MP-Perception Experiment,xx29w25,
449,training(18).webm,True,right,2,vgpdm_dyn(10)-lvm(15)_final(0).webm,0,130,130,42,,,,,,,,14:16:17:519,14:16:18:184,14:16:21:187,right,14:16:21:821,,2013_Jan_12_1333,59.9556699969,MP-Perception Experiment,xx29w25,
450,training(12).webm,False,right,2,vgpdm_dyn(30)-lvm(30)_final(6).webm,0,131,131,102,,,,,,,,14:16:22:505,14:16:23:323,14:16:26:325,right,14:16:26:642,,2013_Jan_12_1333,59.9556699969,MP-Perception Experiment,xx29w25,
451,vgpdm_dyn(25)-lvm(20)_final(1).webm,True,left,2,training(41).webm,0,132,132,74,,,,,,,,14:16:27:327,14:16:28:143,14:16:31:145,left,14:16:32:046,,2013_Jan_12_1333,59.9556699969,MP-Perception Experiment,xx29w25,
452,training(27).webm,True,right,2,vcgpdm_dyn(20)-lvm(30)_final(6).webm,0,133,133,4,,,,,,,,14:16:32:726,14:16:33:548,14:16:36:548,right,14:16:36:915,,2013_Jan_12_1333,59.9556699969,MP-Perception Experiment,xx29w25,
453,vgpdm_dyn(25)-lvm(35)_final(8).webm,False,left,2,training(28).webm,0,134,134,137,,,,,,,,14:16:37:636,14:16:38:416,14:16:41:420,left,14:16:41:970,,2013_Jan_12_1333,59.9556699969,MP-Perception Experiment,xx29w25,
454,training(33).webm,True,right,2,dmp_npsi(35)_final(0).webm,0,135,135,40,,,,,,,,14:16:42:785,14:16:43:472,14:16:46:474,right,14:16:46:758,,2013_Jan_12_1333,59.9556699969,MP-Perception Experiment,xx29w25,
455,vcgpdm_dyn(30)-lvm(35)_final(3).webm,False,left,2,training(5).webm,0,136,136,34,,,,,,,,14:16:47:438,14:16:48:259,14:16:51:246,left,14:16:51:547,,2013_Jan_12_1333,59.9556699969,MP-Perception Experiment,xx29w25,
456,training(29).webm,False,right,2,vgpdm_dyn(25)-lvm(20)_final(0).webm,0,137,137,28,,,,,,,,14:16:52:361,14:16:53:048,14:16:56:050,right,14:16:56:517,,2013_Jan_12_1333,59.9556699969,MP-Perception Experiment,xx29w25,
457,vcgpdm_dyn(5)-lvm(20)_final(8).webm,True,left,2,training(37).webm,0,138,138,148,,,,,,,,14:16:57:373,14:16:58:036,14:17:01:022,left,14:17:01:422,,2013_Jan_12_1333,59.9556699969,MP-Perception Experiment,xx29w25,
458,vcgpdm_dyn(5)-lvm(10)_final(7).webm,True,left,2,training(1).webm,0,139,139,65,,,,,,,,14:17:02:108,14:17:02:923,14:17:05:926,left,14:17:06:143,,2013_Jan_12_1333,59.9556699969,MP-Perception Experiment,xx29w25,
459,training(48).webm,False,right,2,dmp_npsi(45)_final(9).webm,0,140,140,35,,,,,,,,14:17:06:998,14:17:07:644,14:17:10:646,right,14:17:11:430,,2013_Jan_12_1333,59.9556699969,MP-Perception Experiment,xx29w25,
460,training(3).webm,False,right,2,vgpdm_dyn(10)-lvm(25)_final(0).webm,0,141,141,12,,,,,,,,14:17:12:281,14:17:12:931,14:17:15:935,left,14:17:16:669,,2013_Jan_12_1333,59.9556699969,MP-Perception Experiment,xx29w25,
461,training(41).webm,True,right,2,vcgpdm_dyn(10)-lvm(5)_final(6).webm,0,142,142,36,,,,,,,,14:17:17:349,14:17:18:170,14:17:21:172,right,14:17:21:573,,2013_Jan_12_1333,59.9556699969,MP-Perception Experiment,xx29w25,
462,training(16).webm,True,right,2,vcgpdm_dyn(35)-lvm(20)_final(6).webm,0,143,143,94,,,,,,,,14:17:22:391,14:17:23:074,14:17:26:077,left,14:17:26:725,,2013_Jan_12_1333,59.9556699969,MP-Perception Experiment,xx29w25,
463,tmp_numprim(9)_final(3).webm,True,left,2,training(24).webm,0,144,144,99,,,,,,,,14:17:27:402,14:17:28:226,14:17:31:229,right,14:17:31:646,,2013_Jan_12_1333,59.9556699969,MP-Perception Experiment,xx29w25,
464,training(41).webm,True,right,2,vgpdm_dyn(10)-lvm(35)_final(0).webm,0,145,145,53,,,,,,,,14:17:32:334,14:17:33:148,14:17:36:150,right,14:17:36:484,,2013_Jan_12_1333,59.9556699969,MP-Perception Experiment,xx29w25,
465,training(29).webm,True,right,2,vgpdm_dyn(35)-lvm(5)_final(9).webm,0,146,146,117,,,,,,,,14:17:37:170,14:17:37:987,14:17:40:973,left,14:17:41:373,,2013_Jan_12_1333,59.9556699969,MP-Perception Experiment,xx29w25,
466,vgpdm_dyn(15)-lvm(35)_final(4).webm,True,left,2,training(37).webm,0,147,147,24,,,,,,,,14:17:42:105,14:17:42:874,14:17:45:893,left,14:17:46:361,,2013_Jan_12_1333,59.9556699969,MP-Perception Experiment,xx29w25,
467,vgpdm_dyn(10)-lvm(20)_final(2).webm,False,left,2,training(38).webm,0,148,148,92,,,,,,,,14:17:47:038,14:17:47:862,14:17:50:865,left,14:17:51:466,,2013_Jan_12_1333,59.9556699969,MP-Perception Experiment,xx29w25,
468,vcgpdm_dyn(30)-lvm(5)_final(6).webm,True,left,2,training(21).webm,0,149,149,5,,,,,,,,14:17:52:302,14:17:52:967,14:17:55:986,left,14:17:56:436,,2013_Jan_12_1333,59.9556699969,MP-Perception Experiment,xx29w25,
