trial_number,right,flipped,correct,block,left,trials.thisRepN,trials.thisTrialN,trials.thisN,trials.thisIndex,flipwelcome.keys,flipwelcome.corr,flipwelcome.rt,flippreparations.keys,flippreparations.rt,flipInstructions.keys,flipInstructions.rt,time_at_fixation_cross_onset,time_at_videoonset,time_at_videoend,participant_key_response,time_at_key_response,key_resp_4.keys,date,frameRate,expName,participant,
,,,,,,,,,,space,0,18.5677377715,,,,,,,,,,,2013_Jan_12_1503,59.9666424657,MP-Perception Experiment,xx30w21,
,,,,,,,,,,,,,space,9.75851275517,,,,,,,,,2013_Jan_12_1503,59.9666424657,MP-Perception Experiment,xx30w21,
,,,,,,,,,,,,,,,space,26.3208119287,,,,,,,2013_Jan_12_1503,59.9666424657,MP-Perception Experiment,xx30w21,
1,vcgpdm_dyn(10)-lvm(25)_final(2).webm,False,left,0,training(4).webm,0,0,0,116,,,,,,,,15:04:50:878,15:04:51:451,15:04:54:437,left,15:04:55:571,,2013_Jan_12_1503,59.9666424657,MP-Perception Experiment,xx30w21,
2,dmp_npsi(30)_final(0).webm,True,left,0,training(15).webm,0,1,1,132,,,,,,,,15:04:56:252,15:04:57:074,15:05:00:077,left,15:05:00:811,,2013_Jan_12_1503,59.9666424657,MP-Perception Experiment,xx30w21,
3,vcgpdm_dyn(25)-lvm(20)_final(9).webm,True,left,0,training(35).webm,0,2,2,51,,,,,,,,15:05:01:494,15:05:02:313,15:05:05:315,right,15:05:05:949,,2013_Jan_12_1503,59.9666424657,MP-Perception Experiment,xx30w21,
4,training(38).webm,False,right,0,vgpdm_dyn(20)-lvm(25)_final(2).webm,0,3,3,95,,,,,,,,15:05:06:627,15:05:07:467,15:05:10:453,right,15:05:10:886,,2013_Jan_12_1503,59.9666424657,MP-Perception Experiment,xx30w21,
5,vcgpdm_dyn(15)-lvm(10)_final(7).webm,False,left,0,training(7).webm,0,4,4,142,,,,,,,,15:05:11:597,15:05:12:388,15:05:15:390,left,15:05:15:874,,2013_Jan_12_1503,59.9666424657,MP-Perception Experiment,xx30w21,
6,training(48).webm,True,right,0,map_cgpdm_final(8).webm,0,5,5,52,,,,,,,,15:05:16:556,15:05:17:375,15:05:20:378,right,15:05:20:862,,2013_Jan_12_1503,59.9666424657,MP-Perception Experiment,xx30w21,
7,training(25).webm,True,right,0,vcgpdm_dyn(20)-lvm(25)_final(1).webm,0,6,6,29,,,,,,,,15:05:21:672,15:05:22:363,15:05:25:366,right,15:05:25:950,,2013_Jan_12_1503,59.9666424657,MP-Perception Experiment,xx30w21,
8,training(6).webm,False,right,0,dmp_npsi(40)_final(9).webm,0,7,7,134,,,,,,,,15:05:26:634,15:05:27:451,15:05:30:453,right,15:05:31:187,,2013_Jan_12_1503,59.9666424657,MP-Perception Experiment,xx30w21,
9,training(38).webm,False,right,0,vcgpdm_dyn(35)-lvm(25)_final(5).webm,0,8,8,59,,,,,,,,15:05:31:863,15:05:32:688,15:05:35:689,right,15:05:36:173,,2013_Jan_12_1503,59.9666424657,MP-Perception Experiment,xx30w21,
10,training(31).webm,True,right,0,vcgpdm_dyn(5)-lvm(25)_final(9).webm,0,9,9,50,,,,,,,,15:05:36:858,15:05:37:675,15:05:40:677,right,15:05:41:078,,2013_Jan_12_1503,59.9666424657,MP-Perception Experiment,xx30w21,
11,training(27).webm,False,right,0,vgpdm_dyn(30)-lvm(35)_final(0).webm,0,10,10,94,,,,,,,,15:05:41:911,15:05:42:579,15:05:45:581,left,15:05:46:184,,2013_Jan_12_1503,59.9666424657,MP-Perception Experiment,xx30w21,
12,vgpdm_dyn(5)-lvm(10)_final(7).webm,False,left,0,training(8).webm,0,11,11,45,,,,,,,,15:05:46:868,15:05:47:685,15:05:50:687,left,15:05:50:921,,2013_Jan_12_1503,59.9666424657,MP-Perception Experiment,xx30w21,
13,training(9).webm,False,right,0,vgpdm_dyn(25)-lvm(20)_final(5).webm,0,12,12,143,,,,,,,,15:05:51:792,15:05:52:422,15:05:55:425,right,15:06:09:303,,2013_Jan_12_1503,59.9666424657,MP-Perception Experiment,xx30w21,
14,vcgpdm_dyn(30)-lvm(30)_final(4).webm,True,left,0,training(20).webm,0,13,13,21,,,,,,,,15:06:10:079,15:06:10:804,15:06:13:808,left,15:06:14:242,,2013_Jan_12_1503,59.9666424657,MP-Perception Experiment,xx30w21,
15,training(23).webm,False,right,0,vgpdm_dyn(15)-lvm(5)_final(7).webm,0,14,14,84,,,,,,,,15:06:14:932,15:06:15:743,15:06:18:745,right,15:06:19:145,,2013_Jan_12_1503,59.9666424657,MP-Perception Experiment,xx30w21,
16,training(15).webm,True,right,0,vcgpdm_dyn(5)-lvm(25)_final(9).webm,0,15,15,13,,,,,,,,15:06:19:826,15:06:20:647,15:06:23:649,right,15:06:24:166,,2013_Jan_12_1503,59.9666424657,MP-Perception Experiment,xx30w21,
17,training(22).webm,True,right,0,vcgpdm_dyn(30)-lvm(10)_final(1).webm,0,16,16,2,,,,,,,,15:06:25:023,15:06:25:682,15:06:28:685,right,15:06:29:169,,2013_Jan_12_1503,59.9666424657,MP-Perception Experiment,xx30w21,
18,map_gpdm_final(5).webm,True,left,0,training(21).webm,0,17,17,117,,,,,,,,15:06:29:998,15:06:30:671,15:06:33:673,left,15:06:34:107,,2013_Jan_12_1503,59.9666424657,MP-Perception Experiment,xx30w21,
19,vcgpdm_dyn(10)-lvm(10)_final(2).webm,False,left,0,training(18).webm,0,18,18,64,,,,,,,,15:06:34:789,15:06:35:608,15:06:38:596,left,15:06:39:013,,2013_Jan_12_1503,59.9666424657,MP-Perception Experiment,xx30w21,
20,training(13).webm,False,right,0,vgpdm_dyn(35)-lvm(25)_final(6).webm,0,19,19,119,,,,,,,,15:06:39:865,15:06:40:514,15:06:43:516,right,15:06:43:933,,2013_Jan_12_1503,59.9666424657,MP-Perception Experiment,xx30w21,
21,tmp_numprim(2)_final(2).webm,True,left,0,training(14).webm,0,20,20,63,,,,,,,,15:06:44:619,15:06:45:434,15:06:48:438,left,15:06:48:805,,2013_Jan_12_1503,59.9666424657,MP-Perception Experiment,xx30w21,
22,training(38).webm,True,right,0,vgpdm_dyn(15)-lvm(35)_final(9).webm,0,21,21,152,,,,,,,,15:06:49:484,15:06:50:306,15:06:53:308,left,15:06:53:675,,2013_Jan_12_1503,59.9666424657,MP-Perception Experiment,xx30w21,
23,training(36).webm,True,right,0,vcgpdm_dyn(10)-lvm(10)_final(5).webm,0,22,22,85,,,,,,,,15:06:54:372,15:06:55:176,15:06:58:179,left,15:06:58:513,,2013_Jan_12_1503,59.9666424657,MP-Perception Experiment,xx30w21,
24,vcgpdm_dyn(30)-lvm(5)_final(2).webm,True,left,0,training(30).webm,0,23,23,72,,,,,,,,15:06:59:194,15:07:00:014,15:07:03:016,left,15:07:03:333,,2013_Jan_12_1503,59.9666424657,MP-Perception Experiment,xx30w21,
25,vcgpdm_dyn(25)-lvm(5)_final(5).webm,True,left,0,training(1).webm,0,24,24,130,,,,,,,,15:07:04:017,15:07:04:835,15:07:07:838,left,15:07:08:138,,2013_Jan_12_1503,59.9666424657,MP-Perception Experiment,xx30w21,
26,training(0).webm,False,right,0,vcgpdm_dyn(30)-lvm(15)_final(0).webm,0,25,25,83,,,,,,,,15:07:08:823,15:07:09:639,15:07:12:642,right,15:07:12:925,,2013_Jan_12_1503,59.9666424657,MP-Perception Experiment,xx30w21,
27,training(37).webm,False,right,0,vcgpdm_dyn(15)-lvm(10)_final(4).webm,0,26,26,43,,,,,,,,15:07:13:602,15:07:14:426,15:07:17:427,left,15:07:17:827,,2013_Jan_12_1503,59.9666424657,MP-Perception Experiment,xx30w21,
28,training(41).webm,True,right,0,vcgpdm_dyn(35)-lvm(10)_final(1).webm,0,27,27,1,,,,,,,,15:07:18:502,15:07:19:328,15:07:22:332,right,15:07:22:699,,2013_Jan_12_1503,59.9666424657,MP-Perception Experiment,xx30w21,
29,training(30).webm,False,right,0,vcgpdm_dyn(15)-lvm(30)_final(2).webm,0,28,28,22,,,,,,,,15:07:23:539,15:07:24:200,15:07:27:188,right,15:07:27:555,,2013_Jan_12_1503,59.9666424657,MP-Perception Experiment,xx30w21,
30,dmp_npsi(35)_final(2).webm,False,left,0,training(7).webm,0,29,29,47,,,,,,,,15:07:28:229,15:07:29:056,15:07:32:058,left,15:07:32:442,,2013_Jan_12_1503,59.9666424657,MP-Perception Experiment,xx30w21,
31,training(6).webm,True,right,0,vgpdm_dyn(5)-lvm(30)_final(8).webm,0,30,30,125,,,,,,,,15:07:33:287,15:07:33:943,15:07:36:962,right,15:07:37:429,,2013_Jan_12_1503,59.9666424657,MP-Perception Experiment,xx30w21,
32,vcgpdm_dyn(5)-lvm(10)_final(5).webm,False,left,0,training(33).webm,0,31,31,48,,,,,,,,15:07:38:107,15:07:38:930,15:07:41:934,left,15:07:42:268,,2013_Jan_12_1503,59.9666424657,MP-Perception Experiment,xx30w21,
33,training(34).webm,False,right,0,tmp_numprim(8)_final(7).webm,0,32,32,135,,,,,,,,15:07:43:114,15:07:43:769,15:07:46:771,right,15:07:47:105,,2013_Jan_12_1503,59.9666424657,MP-Perception Experiment,xx30w21,
34,training(38).webm,False,right,0,tmp_numprim(5)_final(3).webm,0,33,33,101,,,,,,,,15:07:47:784,15:07:48:606,15:07:51:609,right,15:07:51:909,,2013_Jan_12_1503,59.9666424657,MP-Perception Experiment,xx30w21,
35,vgpdm_dyn(35)-lvm(15)_final(0)_out_of_screen.webm,True,left,0,training(35).webm,0,34,34,18,,,,,,,,15:07:52:652,15:07:53:410,15:07:56:412,left,15:07:56:714,,2013_Jan_12_1503,59.9666424657,MP-Perception Experiment,xx30w21,
36,training(8).webm,False,right,0,vcgpdm_dyn(5)-lvm(15)_final(4).webm,0,35,35,147,,,,,,,,15:07:57:404,15:07:58:215,15:08:01:217,right,15:08:01:618,,2013_Jan_12_1503,59.9666424657,MP-Perception Experiment,xx30w21,
37,training(24).webm,True,right,0,vcgpdm_dyn(35)-lvm(5)_final(0).webm,0,36,36,158,,,,,,,,15:08:02:467,15:08:03:119,15:08:06:119,left,15:08:06:403,,2013_Jan_12_1503,59.9666424657,MP-Perception Experiment,xx30w21,
38,vgpdm_dyn(15)-lvm(30)_final(9).webm,False,left,0,training(28).webm,0,37,37,73,,,,,,,,15:08:07:088,15:08:07:904,15:08:10:907,left,15:08:11:207,,2013_Jan_12_1503,59.9666424657,MP-Perception Experiment,xx30w21,
39,vcgpdm_dyn(30)-lvm(15)_final(9).webm,False,left,0,training(9).webm,0,38,38,120,,,,,,,,15:08:11:884,15:08:12:708,15:08:15:711,left,15:08:16:045,,2013_Jan_12_1503,59.9666424657,MP-Perception Experiment,xx30w21,
40,training(24).webm,True,right,0,vcgpdm_dyn(5)-lvm(10)_final(7).webm,0,39,39,157,,,,,,,,15:08:16:724,15:08:17:546,15:08:20:534,left,15:08:20:801,,2013_Jan_12_1503,59.9666424657,MP-Perception Experiment,xx30w21,
41,training(2).webm,True,right,0,vgpdm_dyn(25)-lvm(5)_final(8).webm,0,40,40,32,,,,,,,,15:08:21:483,15:08:22:302,15:08:25:304,left,15:08:25:638,,2013_Jan_12_1503,59.9666424657,MP-Perception Experiment,xx30w21,
42,vcgpdm_dyn(35)-lvm(15)_final(7)_out_of_screen.webm,False,left,0,training(13).webm,0,41,41,156,,,,,,,,15:08:26:316,15:08:27:139,15:08:30:142,left,15:08:30:508,,2013_Jan_12_1503,59.9666424657,MP-Perception Experiment,xx30w21,
43,training(37).webm,False,right,0,vcgpdm_dyn(35)-lvm(20)_final(1).webm,0,42,42,44,,,,,,,,15:08:31:183,15:08:32:011,15:08:35:013,right,15:08:35:764,,2013_Jan_12_1503,59.9666424657,MP-Perception Experiment,xx30w21,
44,training(9).webm,False,right,0,vgpdm_dyn(5)-lvm(20)_final(3).webm,0,43,43,41,,,,,,,,15:08:36:438,15:08:37:265,15:08:40:267,right,15:08:40:651,,2013_Jan_12_1503,59.9666424657,MP-Perception Experiment,xx30w21,
45,vgpdm_dyn(35)-lvm(30)_final(0).webm,True,left,0,training(32).webm,0,44,44,10,,,,,,,,15:08:41:324,15:08:42:152,15:08:45:155,right,15:08:45:655,,2013_Jan_12_1503,59.9666424657,MP-Perception Experiment,xx30w21,
46,vgpdm_dyn(10)-lvm(10)_final(4).webm,True,left,0,training(1).webm,0,45,45,137,,,,,,,,15:08:46:333,15:08:47:156,15:08:50:160,right,15:08:50:460,,2013_Jan_12_1503,59.9666424657,MP-Perception Experiment,xx30w21,
47,training(13).webm,True,right,0,vcgpdm_dyn(20)-lvm(25)_final(6).webm,0,46,46,7,,,,,,,,15:08:51:134,15:08:51:961,15:08:54:962,right,15:08:55:295,,2013_Jan_12_1503,59.9666424657,MP-Perception Experiment,xx30w21,
48,training(2).webm,False,right,0,map_gpdm_final(1).webm,0,47,47,153,,,,,,,,15:08:55:974,15:08:56:796,15:08:59:799,right,15:09:00:099,,2013_Jan_12_1503,59.9666424657,MP-Perception Experiment,xx30w21,
49,training(15).webm,True,right,0,dmp_npsi(10)_final(0)_bad.webm,0,48,48,123,,,,,,,,15:09:00:804,15:09:01:600,15:09:04:603,right,15:09:04:936,,2013_Jan_12_1503,59.9666424657,MP-Perception Experiment,xx30w21,
50,training(17).webm,False,right,0,vcgpdm_dyn(15)-lvm(20)_final(9).webm,0,49,49,30,,,,,,,,15:09:05:770,15:09:06:440,15:09:09:426,right,15:09:09:726,,2013_Jan_12_1503,59.9666424657,MP-Perception Experiment,xx30w21,
51,training(20).webm,True,right,0,tmp_numprim(6)_final(3).webm,0,50,50,102,,,,,,,,15:09:10:575,15:09:11:228,15:09:14:230,left,15:09:14:530,,2013_Jan_12_1503,59.9666424657,MP-Perception Experiment,xx30w21,
52,vgpdm_dyn(30)-lvm(25)_final(0).webm,False,left,0,training(14).webm,0,51,51,87,,,,,,,,15:09:15:212,15:09:16:031,15:09:19:034,right,15:09:19:351,,2013_Jan_12_1503,59.9666424657,MP-Perception Experiment,xx30w21,
53,vcgpdm_dyn(10)-lvm(30)_final(8).webm,False,left,0,training(22).webm,0,52,52,58,,,,,,,,15:09:20:158,15:09:20:852,15:09:23:854,right,15:09:24:189,,2013_Jan_12_1503,59.9666424657,MP-Perception Experiment,xx30w21,
54,tmp_numprim(9)_final(6).webm,False,left,0,training(31).webm,0,53,53,39,,,,,,,,15:09:25:034,15:09:25:690,15:09:28:693,right,15:09:29:043,,2013_Jan_12_1503,59.9666424657,MP-Perception Experiment,xx30w21,
55,vcgpdm_dyn(20)-lvm(20)_final(0).webm,True,left,0,training(48).webm,0,54,54,112,,,,,,,,15:09:29:857,15:09:30:544,15:09:33:547,left,15:09:33:814,,2013_Jan_12_1503,59.9666424657,MP-Perception Experiment,xx30w21,
56,vcgpdm_dyn(5)-lvm(20)_final(4).webm,False,left,0,training(10).webm,0,55,55,145,,,,,,,,15:09:34:621,15:09:35:315,15:09:38:317,left,15:09:38:584,,2013_Jan_12_1503,59.9666424657,MP-Perception Experiment,xx30w21,
57,vgpdm_dyn(20)-lvm(20)_final(6).webm,False,left,0,training(22).webm,0,56,56,9,,,,,,,,15:09:39:396,15:09:40:085,15:09:43:089,right,15:09:43:422,,2013_Jan_12_1503,59.9666424657,MP-Perception Experiment,xx30w21,
58,vcgpdm_dyn(5)-lvm(10)_final(0).webm,False,left,0,training(22).webm,0,57,57,3,,,,,,,,15:09:44:153,15:09:44:938,15:09:47:924,left,15:09:48:191,,2013_Jan_12_1503,59.9666424657,MP-Perception Experiment,xx30w21,
59,vcgpdm_dyn(25)-lvm(35)_final(1).webm,True,left,0,training(25).webm,0,58,58,139,,,,,,,,15:09:49:030,15:09:49:692,15:09:52:695,left,15:09:52:962,,2013_Jan_12_1503,59.9666424657,MP-Perception Experiment,xx30w21,
60,vgpdm_dyn(20)-lvm(35)_final(5).webm,False,left,0,training(17).webm,0,59,59,16,,,,,,,,15:09:53:697,15:09:54:463,15:09:57:450,left,15:09:57:717,,2013_Jan_12_1503,59.9666424657,MP-Perception Experiment,xx30w21,
61,vgpdm_dyn(5)-lvm(30)_final(6).webm,False,left,0,training(28).webm,0,60,60,36,,,,,,,,15:09:58:491,15:09:59:219,15:10:02:222,left,15:10:02:589,,2013_Jan_12_1503,59.9666424657,MP-Perception Experiment,xx30w21,
62,vcgpdm_dyn(25)-lvm(35)_final(7).webm,False,left,0,training(29).webm,0,61,61,81,,,,,,,,15:10:03:294,15:10:04:090,15:10:07:093,left,15:10:07:526,,2013_Jan_12_1503,59.9666424657,MP-Perception Experiment,xx30w21,
63,training(17).webm,False,right,0,dmp_npsi(20)_final(7).webm,0,62,62,55,,,,,,,,15:10:08:206,15:10:09:027,15:10:12:029,right,15:10:12:330,,2013_Jan_12_1503,59.9666424657,MP-Perception Experiment,xx30w21,
64,training(6).webm,False,right,0,vcgpdm_dyn(30)-lvm(35)_final(1).webm,0,63,63,105,,,,,,,,15:10:13:172,15:10:13:831,15:10:16:835,right,15:10:16:918,,2013_Jan_12_1503,59.9666424657,MP-Perception Experiment,xx30w21,
65,training(41).webm,False,right,0,vcgpdm_dyn(25)-lvm(15)_final(4).webm,0,64,64,118,,,,,,,,15:10:17:598,15:10:18:419,15:10:21:422,right,15:10:21:739,,2013_Jan_12_1503,59.9666424657,MP-Perception Experiment,xx30w21,
66,training(15).webm,True,right,0,tmp_numprim(2)_final(7).webm,0,65,65,69,,,,,,,,15:10:22:417,15:10:23:240,15:10:26:242,right,15:10:26:609,,2013_Jan_12_1503,59.9666424657,MP-Perception Experiment,xx30w21,
67,vgpdm_dyn(30)-lvm(10)_final(6).webm,False,left,0,training(10).webm,0,66,66,37,,,,,,,,15:10:27:285,15:10:28:110,15:10:31:113,left,15:10:31:396,,2013_Jan_12_1503,59.9666424657,MP-Perception Experiment,xx30w21,
68,vcgpdm_dyn(35)-lvm(20)_final(5).webm,True,left,0,training(1).webm,0,67,67,31,,,,,,,,15:10:32:070,15:10:32:897,15:10:35:899,left,15:10:36:199,,2013_Jan_12_1503,59.9666424657,MP-Perception Experiment,xx30w21,
69,vgpdm_dyn(20)-lvm(25)_final(2).webm,False,left,0,training(4).webm,0,68,68,90,,,,,,,,15:10:36:874,15:10:37:701,15:10:40:703,left,15:10:40:970,,2013_Jan_12_1503,59.9666424657,MP-Perception Experiment,xx30w21,
70,training(9).webm,False,right,0,vgpdm_dyn(30)-lvm(10)_final(3).webm,0,69,69,86,,,,,,,,15:10:41:812,15:10:42:471,15:10:45:474,right,15:10:45:740,,2013_Jan_12_1503,59.9666424657,MP-Perception Experiment,xx30w21,
71,vgpdm_dyn(30)-lvm(5)_final(8).webm,True,left,0,training(6).webm,0,70,70,151,,,,,,,,15:10:46:417,15:10:47:242,15:10:50:229,left,15:10:50:463,,2013_Jan_12_1503,59.9666424657,MP-Perception Experiment,xx30w21,
72,training(14).webm,True,right,0,vgpdm_dyn(35)-lvm(10)_final(7).webm,0,71,71,23,,,,,,,,15:10:51:273,15:10:51:965,15:10:54:967,left,15:10:55:284,,2013_Jan_12_1503,59.9666424657,MP-Perception Experiment,xx30w21,
73,vgpdm_dyn(10)-lvm(20)_final(7).webm,True,left,0,training(11).webm,0,72,72,78,,,,,,,,15:10:56:100,15:10:56:785,15:10:59:788,left,15:11:00:205,,2013_Jan_12_1503,59.9666424657,MP-Perception Experiment,xx30w21,
74,vgpdm_dyn(30)-lvm(25)_final(2).webm,True,left,0,training(31).webm,0,73,73,19,,,,,,,,15:11:00:951,15:11:01:706,15:11:04:709,left,15:11:05:109,,2013_Jan_12_1503,59.9666424657,MP-Perception Experiment,xx30w21,
75,training(9).webm,True,right,0,vgpdm_dyn(5)-lvm(20)_final(9).webm,0,74,74,110,,,,,,,,15:11:05:973,15:11:06:610,15:11:09:614,right,15:11:09:964,,2013_Jan_12_1503,59.9666424657,MP-Perception Experiment,xx30w21,
76,tmp_numprim(9)_final(8).webm,True,left,0,training(21).webm,0,75,75,17,,,,,,,,15:11:10:740,15:11:11:482,15:11:14:468,right,15:11:14:751,,2013_Jan_12_1503,59.9666424657,MP-Perception Experiment,xx30w21,
77,vcgpdm_dyn(25)-lvm(5)_final(8).webm,True,left,0,training(23).webm,0,76,76,76,,,,,,,,15:11:15:425,15:11:16:252,15:11:19:255,left,15:11:19:538,,2013_Jan_12_1503,59.9666424657,MP-Perception Experiment,xx30w21,
78,training(10).webm,True,right,0,dmp_npsi(35)_final(5).webm,0,77,77,146,,,,,,,,15:11:20:388,15:11:21:039,15:11:24:042,right,15:11:24:325,,2013_Jan_12_1503,59.9666424657,MP-Perception Experiment,xx30w21,
79,dmp_npsi(50)_final(9).webm,False,left,0,training(7).webm,0,78,78,104,,,,,,,,15:11:25:184,15:11:25:841,15:11:28:845,left,15:11:29:179,,2013_Jan_12_1503,59.9666424657,MP-Perception Experiment,xx30w21,
80,vcgpdm_dyn(15)-lvm(35)_final(4).webm,False,left,0,training(19).webm,0,79,79,136,,,,,,,,15:11:29:860,15:11:30:680,15:11:33:682,left,15:11:33:966,,2013_Jan_12_1503,59.9666424657,MP-Perception Experiment,xx30w21,
81,training(7).webm,False,right,0,dmp_npsi(40)_final(0).webm,0,80,80,40,,,,,,,,15:11:34:644,15:11:35:467,15:11:38:454,right,15:11:38:755,,2013_Jan_12_1503,59.9666424657,MP-Perception Experiment,xx30w21,
82,map_cgpdm_final(9).webm,False,left,0,training(8).webm,0,81,81,5,,,,,,,,15:11:39:433,15:11:40:256,15:11:43:258,left,15:11:43:592,,2013_Jan_12_1503,59.9666424657,MP-Perception Experiment,xx30w21,
83,training(2).webm,True,right,0,vgpdm_dyn(25)-lvm(20)_final(6).webm,0,82,82,108,,,,,,,,15:11:44:271,15:11:45:094,15:11:48:097,right,15:11:48:430,,2013_Jan_12_1503,59.9666424657,MP-Perception Experiment,xx30w21,
84,tmp_numprim(5)_final(2).webm,False,left,0,training(0).webm,0,83,83,34,,,,,,,,15:11:49:108,15:11:49:931,15:11:52:934,left,15:11:53:217,,2013_Jan_12_1503,59.9666424657,MP-Perception Experiment,xx30w21,
85,dmp_npsi(25)_final(0).webm,False,left,0,training(30).webm,0,84,84,33,,,,,,,,15:11:53:891,15:11:54:719,15:11:57:721,left,15:11:57:988,,2013_Jan_12_1503,59.9666424657,MP-Perception Experiment,xx30w21,
86,training(20).webm,False,right,0,vgpdm_dyn(15)-lvm(15)_final(0).webm,0,85,85,65,,,,,,,,15:11:58:670,15:11:59:489,15:12:02:493,right,15:12:02:860,,2013_Jan_12_1503,59.9666424657,MP-Perception Experiment,xx30w21,
87,tmp_numprim(4)_final(1).webm,True,left,0,training(20).webm,0,86,86,53,,,,,,,,15:12:03:534,15:12:04:361,15:12:07:363,left,15:12:07:663,,2013_Jan_12_1503,59.9666424657,MP-Perception Experiment,xx30w21,
88,training(22).webm,False,right,0,vgpdm_dyn(5)-lvm(20)_final(6).webm,0,87,87,8,,,,,,,,15:12:08:362,15:12:09:164,15:12:12:167,right,15:12:12:501,,2013_Jan_12_1503,59.9666424657,MP-Perception Experiment,xx30w21,
89,vgpdm_dyn(30)-lvm(20)_final(2).webm,True,left,0,training(24).webm,0,88,88,25,,,,,,,,15:12:13:229,15:12:14:002,15:12:17:002,left,15:12:17:319,,2013_Jan_12_1503,59.9666424657,MP-Perception Experiment,xx30w21,
90,vgpdm_dyn(20)-lvm(15)_final(2).webm,True,left,0,training(11).webm,0,89,89,46,,,,,,,,15:12:17:997,15:12:18:822,15:12:21:824,right,15:12:22:124,,2013_Jan_12_1503,59.9666424657,MP-Perception Experiment,xx30w21,
91,vcgpdm_dyn(5)-lvm(35)_final(3)_bad.webm,False,left,0,training(7).webm,0,90,90,6,,,,,,,,15:12:22:845,15:12:23:625,15:12:26:628,left,15:12:26:945,,2013_Jan_12_1503,59.9666424657,MP-Perception Experiment,xx30w21,
92,training(30).webm,True,right,0,dmp_npsi(15)_final(1).webm,0,91,91,62,,,,,,,,15:12:27:622,15:12:28:446,15:12:31:434,right,15:12:31:767,,2013_Jan_12_1503,59.9666424657,MP-Perception Experiment,xx30w21,
93,training(26).webm,True,right,0,vcgpdm_dyn(25)-lvm(30)_final(3).webm,0,92,92,96,,,,,,,,15:12:32:578,15:12:33:268,15:12:36:272,left,15:12:37:156,,2013_Jan_12_1503,59.9666424657,MP-Perception Experiment,xx30w21,
94,training(38).webm,True,right,0,dmp_npsi(30)_final(9).webm,0,93,93,138,,,,,,,,15:12:37:838,15:12:38:657,15:12:41:660,right,15:12:42:027,,2013_Jan_12_1503,59.9666424657,MP-Perception Experiment,xx30w21,
95,vcgpdm_dyn(20)-lvm(15)_final(5).webm,True,left,0,training(39).webm,0,94,94,124,,,,,,,,15:12:42:769,15:12:43:528,15:12:46:530,left,15:12:46:797,,2013_Jan_12_1503,59.9666424657,MP-Perception Experiment,xx30w21,
96,training(27).webm,True,right,0,vgpdm_dyn(15)-lvm(15)_final(7).webm,0,95,95,74,,,,,,,,15:12:47:490,15:12:48:298,15:12:51:301,left,15:12:51:584,,2013_Jan_12_1503,59.9666424657,MP-Perception Experiment,xx30w21,
97,training(4).webm,False,right,0,dmp_npsi(15)_final(0).webm,0,96,96,11,,,,,,,,15:12:52:425,15:12:53:085,15:12:56:089,right,15:12:56:322,,2013_Jan_12_1503,59.9666424657,MP-Perception Experiment,xx30w21,
98,vcgpdm_dyn(10)-lvm(15)_final(8).webm,False,left,0,training(29).webm,0,97,97,49,,,,,,,,15:12:57:130,15:12:57:823,15:13:00:826,left,15:13:00:876,,2013_Jan_12_1503,59.9666424657,MP-Perception Experiment,xx30w21,
99,training(36).webm,True,right,0,map_gpdm_final(6).webm,0,98,98,144,,,,,,,,15:13:01:720,15:13:02:377,15:13:05:378,right,15:13:05:611,,2013_Jan_12_1503,59.9666424657,MP-Perception Experiment,xx30w21,
100,vcgpdm_dyn(20)-lvm(10)_final(6).webm,True,left,0,training(1).webm,0,99,99,28,,,,,,,,15:13:06:455,15:13:07:113,15:13:10:115,left,15:13:10:382,,2013_Jan_12_1503,59.9666424657,MP-Perception Experiment,xx30w21,
101,training(16).webm,False,right,0,vgpdm_dyn(15)-lvm(20)_final(6)_out_of_screen.webm,0,100,100,68,,,,,,,,15:13:11:235,15:13:11:884,15:13:14:887,right,15:13:15:220,,2013_Jan_12_1503,59.9666424657,MP-Perception Experiment,xx30w21,
102,vcgpdm_dyn(20)-lvm(5)_final(6).webm,False,left,0,training(5).webm,0,101,101,148,,,,,,,,15:13:15:902,15:13:16:721,15:13:19:709,right,15:13:21:043,,2013_Jan_12_1503,59.9666424657,MP-Perception Experiment,xx30w21,
103,training(35).webm,False,right,0,vcgpdm_dyn(35)-lvm(20)_final(6).webm,0,102,102,24,,,,,,,,15:13:21:898,15:13:22:544,15:13:25:547,right,15:13:25:897,,2013_Jan_12_1503,59.9666424657,MP-Perception Experiment,xx30w21,
104,vcgpdm_dyn(10)-lvm(25)_final(7).webm,True,left,0,training(17).webm,0,103,103,149,,,,,,,,15:13:26:577,15:13:27:398,15:13:30:402,left,15:13:30:719,,2013_Jan_12_1503,59.9666424657,MP-Perception Experiment,xx30w21,
105,vgpdm_dyn(10)-lvm(30)_final(8).webm,True,left,0,training(6).webm,0,104,104,35,,,,,,,,15:13:31:553,15:13:32:220,15:13:35:222,left,15:13:35:523,,2013_Jan_12_1503,59.9666424657,MP-Perception Experiment,xx30w21,
106,vgpdm_dyn(20)-lvm(25)_final(8).webm,True,left,0,training(10).webm,0,105,105,14,,,,,,,,15:13:36:248,15:13:37:024,15:13:40:026,left,15:13:40:276,,2013_Jan_12_1503,59.9666424657,MP-Perception Experiment,xx30w21,
107,training(39).webm,True,right,0,vcgpdm_dyn(10)-lvm(15)_final(4).webm,0,106,106,15,,,,,,,,15:13:41:124,15:13:41:778,15:13:44:780,right,15:13:45:464,,2013_Jan_12_1503,59.9666424657,MP-Perception Experiment,xx30w21,
108,dmp_npsi(25)_final(0).webm,True,left,0,training(26).webm,0,107,107,109,,,,,,,,15:13:46:135,15:13:46:966,15:13:49:969,left,15:13:50:202,,2013_Jan_12_1503,59.9666424657,MP-Perception Experiment,xx30w21,
109,training(12).webm,True,right,0,vcgpdm_dyn(20)-lvm(35)_final(0).webm,0,108,108,131,,,,,,,,15:13:51:054,15:13:51:703,15:13:54:704,right,15:13:54:954,,2013_Jan_12_1503,59.9666424657,MP-Perception Experiment,xx30w21,
110,vcgpdm_dyn(25)-lvm(5)_final(4).webm,False,left,0,training(33).webm,0,109,109,106,,,,,,,,15:13:55:633,15:13:56:455,15:13:59:458,right,15:13:59:475,,2013_Jan_12_1503,59.9666424657,MP-Perception Experiment,xx30w21,
111,vgpdm_dyn(25)-lvm(30)_final(1).webm,True,left,0,training(18).webm,0,110,110,111,,,,,,,,15:14:00:152,15:14:00:976,15:14:03:979,left,15:14:04:246,,2013_Jan_12_1503,59.9666424657,MP-Perception Experiment,xx30w21,
112,training(6).webm,True,right,0,vcgpdm_dyn(20)-lvm(20)_final(9).webm,0,111,111,154,,,,,,,,15:14:04:926,15:14:05:747,15:14:08:735,right,15:14:09:302,,2013_Jan_12_1503,59.9666424657,MP-Perception Experiment,xx30w21,
113,vgpdm_dyn(25)-lvm(25)_final(7)_bad.webm,False,left,0,training(5).webm,0,112,112,98,,,,,,,,15:14:09:979,15:14:10:803,15:14:13:806,left,15:14:14:139,,2013_Jan_12_1503,59.9666424657,MP-Perception Experiment,xx30w21,
114,training(1).webm,True,right,0,vgpdm_dyn(10)-lvm(25)_final(8).webm,0,113,113,67,,,,,,,,15:14:14:836,15:14:15:640,15:14:18:643,right,15:14:18:926,,2013_Jan_12_1503,59.9666424657,MP-Perception Experiment,xx30w21,
115,training(12).webm,True,right,0,vcgpdm_dyn(35)-lvm(30)_final(3).webm,0,114,114,103,,,,,,,,15:14:19:746,15:14:20:427,15:14:23:431,right,15:14:23:748,,2013_Jan_12_1503,59.9666424657,MP-Perception Experiment,xx30w21,
116,vgpdm_dyn(35)-lvm(25)_final(9).webm,True,left,0,training(19).webm,0,115,115,0,,,,,,,,15:14:24:586,15:14:25:249,15:14:28:252,left,15:14:28:518,,2013_Jan_12_1503,59.9666424657,MP-Perception Experiment,xx30w21,
117,vgpdm_dyn(25)-lvm(30)_final(2).webm,False,left,0,training(17).webm,0,116,116,4,,,,,,,,15:14:29:198,15:14:30:020,15:14:33:022,left,15:14:33:322,,2013_Jan_12_1503,59.9666424657,MP-Perception Experiment,xx30w21,
118,vgpdm_dyn(10)-lvm(35)_final(5).webm,True,left,0,training(12).webm,0,117,117,26,,,,,,,,15:14:34:147,15:14:34:823,15:14:37:826,left,15:14:38:109,,2013_Jan_12_1503,59.9666424657,MP-Perception Experiment,xx30w21,
119,vgpdm_dyn(5)-lvm(10)_final(6).webm,True,left,0,training(48).webm,0,118,118,99,,,,,,,,15:14:38:785,15:14:39:612,15:14:42:614,left,15:14:42:798,,2013_Jan_12_1503,59.9666424657,MP-Perception Experiment,xx30w21,
120,training(18).webm,True,right,0,vcgpdm_dyn(20)-lvm(10)_final(5).webm,0,119,119,89,,,,,,,,15:14:43:638,15:14:44:299,15:14:47:299,right,15:14:47:566,,2013_Jan_12_1503,59.9666424657,MP-Perception Experiment,xx30w21,
121,vgpdm_dyn(20)-lvm(20)_final(2).webm,False,left,0,training(7).webm,0,120,120,97,,,,,,,,15:14:48:243,15:14:49:067,15:14:52:070,right,15:14:52:337,,2013_Jan_12_1503,59.9666424657,MP-Perception Experiment,xx30w21,
122,training(8).webm,True,right,0,vgpdm_dyn(15)-lvm(5)_final(8).webm,0,121,121,56,,,,,,,,15:14:53:182,15:14:53:838,15:14:56:841,right,15:14:57:125,,2013_Jan_12_1503,59.9666424657,MP-Perception Experiment,xx30w21,
123,training(11).webm,False,right,0,tmp_numprim(8)_final(3).webm,0,122,122,20,,,,,,,,15:14:57:803,15:14:58:628,15:15:01:614,right,15:15:01:931,,2013_Jan_12_1503,59.9666424657,MP-Perception Experiment,xx30w21,
124,vcgpdm_dyn(35)-lvm(10)_final(8).webm,False,left,0,training(8).webm,0,123,123,12,,,,,,,,15:15:02:765,15:15:03:432,15:15:06:434,right,15:15:06:651,,2013_Jan_12_1503,59.9666424657,MP-Perception Experiment,xx30w21,
125,dmp_npsi(35)_final(6).webm,True,left,0,training(30).webm,0,124,124,92,,,,,,,,15:15:07:326,15:15:08:152,15:15:11:155,left,15:15:11:455,,2013_Jan_12_1503,59.9666424657,MP-Perception Experiment,xx30w21,
126,training(21).webm,True,right,0,tmp_numprim(4)_final(3).webm,0,125,125,122,,,,,,,,15:15:12:135,15:15:12:956,15:15:15:960,right,15:15:16:277,,2013_Jan_12_1503,59.9666424657,MP-Perception Experiment,xx30w21,
127,vgpdm_dyn(20)-lvm(20)_final(5).webm,False,left,0,training(31).webm,0,126,126,82,,,,,,,,15:15:16:965,15:15:17:778,15:15:20:780,right,15:15:21:014,,2013_Jan_12_1503,59.9666424657,MP-Perception Experiment,xx30w21,
128,vgpdm_dyn(10)-lvm(30)_final(3).webm,False,left,0,training(40).webm,0,127,127,57,,,,,,,,15:15:21:692,15:15:22:515,15:15:25:518,left,15:15:25:818,,2013_Jan_12_1503,59.9666424657,MP-Perception Experiment,xx30w21,
129,vgpdm_dyn(10)-lvm(25)_final(4).webm,False,left,0,training(15).webm,0,128,128,66,,,,,,,,15:15:26:496,15:15:27:319,15:15:30:321,left,15:15:30:622,,2013_Jan_12_1503,59.9666424657,MP-Perception Experiment,xx30w21,
130,training(38).webm,True,right,0,vgpdm_dyn(20)-lvm(20)_final(2).webm,0,129,129,114,,,,,,,,15:15:31:297,15:15:32:124,15:15:35:124,right,15:15:35:358,,2013_Jan_12_1503,59.9666424657,MP-Perception Experiment,xx30w21,
131,vgpdm_dyn(25)-lvm(35)_final(4).webm,True,left,0,training(17).webm,0,130,130,61,,,,,,,,15:15:36:199,15:15:36:859,15:15:39:862,left,15:15:40:128,,2013_Jan_12_1503,59.9666424657,MP-Perception Experiment,xx30w21,
132,training(20).webm,False,right,0,vcgpdm_dyn(5)-lvm(10)_final(6).webm,0,131,131,107,,,,,,,,15:15:40:977,15:15:41:630,15:15:44:632,right,15:15:44:782,,2013_Jan_12_1503,59.9666424657,MP-Perception Experiment,xx30w21,
133,training(22).webm,False,right,0,vgpdm_dyn(30)-lvm(5)_final(6).webm,0,132,132,91,,,,,,,,15:15:45:588,15:15:46:285,15:15:49:272,right,15:15:49:555,,2013_Jan_12_1503,59.9666424657,MP-Perception Experiment,xx30w21,
134,vcgpdm_dyn(35)-lvm(5)_final(8).webm,False,left,0,training(36).webm,0,133,133,100,,,,,,,,15:15:50:283,15:15:51:057,15:15:54:059,right,15:15:54:343,,2013_Jan_12_1503,59.9666424657,MP-Perception Experiment,xx30w21,
135,vcgpdm_dyn(5)-lvm(5)_final(7).webm,True,left,0,training(17).webm,0,134,134,155,,,,,,,,15:15:55:184,15:15:55:844,15:15:58:846,left,15:15:59:080,,2013_Jan_12_1503,59.9666424657,MP-Perception Experiment,xx30w21,
136,vgpdm_dyn(35)-lvm(30)_final(2).webm,False,left,0,training(5).webm,0,135,135,127,,,,,,,,15:15:59:808,15:16:00:581,15:16:03:584,left,15:16:03:684,,2013_Jan_12_1503,59.9666424657,MP-Perception Experiment,xx30w21,
137,training(26).webm,False,right,0,vgpdm_dyn(25)-lvm(35)_final(1).webm,0,136,136,54,,,,,,,,15:16:04:556,15:16:05:185,15:16:08:188,right,15:16:08:522,,2013_Jan_12_1503,59.9666424657,MP-Perception Experiment,xx30w21,
138,training(29).webm,False,right,0,vgpdm_dyn(10)-lvm(25)_final(0).webm,0,137,137,71,,,,,,,,15:16:09:203,15:16:10:023,15:16:13:026,left,15:16:13:226,,2013_Jan_12_1503,59.9666424657,MP-Perception Experiment,xx30w21,
139,vcgpdm_dyn(20)-lvm(35)_final(1).webm,True,left,0,training(27).webm,0,138,138,93,,,,,,,,15:16:13:902,15:16:14:727,15:16:17:729,left,15:16:18:029,,2013_Jan_12_1503,59.9666424657,MP-Perception Experiment,xx30w21,
140,training(15).webm,False,right,0,vcgpdm_dyn(35)-lvm(25)_final(9).webm,0,139,139,38,,,,,,,,15:16:18:719,15:16:19:531,15:16:22:533,right,15:16:22:800,,2013_Jan_12_1503,59.9666424657,MP-Perception Experiment,xx30w21,
141,vgpdm_dyn(15)-lvm(5)_final(3).webm,True,left,0,training(0).webm,0,140,140,140,,,,,,,,15:16:23:476,15:16:24:302,15:16:27:303,left,15:16:27:553,,2013_Jan_12_1503,59.9666424657,MP-Perception Experiment,xx30w21,
142,vgpdm_dyn(10)-lvm(25)_final(4).webm,True,left,0,training(9).webm,0,141,141,70,,,,,,,,15:16:28:226,15:16:29:054,15:16:32:057,left,15:16:32:340,,2013_Jan_12_1503,59.9666424657,MP-Perception Experiment,xx30w21,
143,vcgpdm_dyn(15)-lvm(20)_final(9).webm,False,left,0,training(3).webm,0,142,142,88,,,,,,,,15:16:33:182,15:16:33:841,15:16:36:844,right,15:16:37:127,,2013_Jan_12_1503,59.9666424657,MP-Perception Experiment,xx30w21,
144,vgpdm_dyn(20)-lvm(30)_final(1).webm,False,left,0,training(24).webm,0,143,143,150,,,,,,,,15:16:37:805,15:16:38:630,15:16:41:617,right,15:16:41:884,,2013_Jan_12_1503,59.9666424657,MP-Perception Experiment,xx30w21,
145,vgpdm_dyn(10)-lvm(10)_final(4).webm,False,left,0,training(10).webm,0,144,144,129,,,,,,,,15:16:42:567,15:16:43:385,15:16:46:388,right,15:16:46:671,,2013_Jan_12_1503,59.9666424657,MP-Perception Experiment,xx30w21,
146,training(22).webm,False,right,0,map_gpdm_final(3).webm,0,145,145,27,,,,,,,,15:16:47:298,15:16:48:172,15:16:51:175,right,15:16:51:425,,2013_Jan_12_1503,59.9666424657,MP-Perception Experiment,xx30w21,
147,vgpdm_dyn(10)-lvm(10)_final(3).webm,False,left,0,training(22).webm,0,146,146,80,,,,,,,,15:16:52:103,15:16:52:926,15:16:55:929,right,15:16:56:246,,2013_Jan_12_1503,59.9666424657,MP-Perception Experiment,xx30w21,
148,training(31).webm,True,right,0,vcgpdm_dyn(35)-lvm(30)_final(9).webm,0,147,147,75,,,,,,,,15:16:56:923,15:16:57:747,15:17:00:750,right,15:17:01:000,,2013_Jan_12_1503,59.9666424657,MP-Perception Experiment,xx30w21,
149,vcgpdm_dyn(25)-lvm(25)_final(3).webm,True,left,0,training(24).webm,0,148,148,133,,,,,,,,15:17:01:744,15:17:02:502,15:17:05:504,right,15:17:05:771,,2013_Jan_12_1503,59.9666424657,MP-Perception Experiment,xx30w21,
150,training(33).webm,True,right,0,vgpdm_dyn(25)-lvm(15)_final(8)_out_of_screen.webm,0,149,149,60,,,,,,,,15:17:06:491,15:17:07:272,15:17:10:275,right,15:17:10:558,,2013_Jan_12_1503,59.9666424657,MP-Perception Experiment,xx30w21,
151,training(3).webm,True,right,0,vcgpdm_dyn(10)-lvm(10)_final(7).webm,0,150,150,141,,,,,,,,15:17:11:398,15:17:12:059,15:17:15:060,left,15:17:15:143,,2013_Jan_12_1503,59.9666424657,MP-Perception Experiment,xx30w21,
152,dmp_npsi(35)_final(4).webm,True,left,0,training(24).webm,0,151,151,115,,,,,,,,15:17:15:823,15:17:16:646,15:17:19:648,left,15:17:20:015,,2013_Jan_12_1503,59.9666424657,MP-Perception Experiment,xx30w21,
153,vcgpdm_dyn(20)-lvm(5)_final(0).webm,True,left,0,training(5).webm,0,152,152,126,,,,,,,,15:17:20:715,15:17:21:516,15:17:24:519,left,15:17:24:702,,2013_Jan_12_1503,59.9666424657,MP-Perception Experiment,xx30w21,
154,training(27).webm,False,right,0,vgpdm_dyn(5)-lvm(10)_final(3).webm,0,153,153,128,,,,,,,,15:17:25:377,15:17:26:205,15:17:29:191,right,15:17:29:541,,2013_Jan_12_1503,59.9666424657,MP-Perception Experiment,xx30w21,
155,training(32).webm,True,right,0,vcgpdm_dyn(30)-lvm(20)_final(6).webm,0,154,154,121,,,,,,,,15:17:30:220,15:17:31:042,15:17:34:046,right,15:17:34:263,,2013_Jan_12_1503,59.9666424657,MP-Perception Experiment,xx30w21,
156,training(38).webm,True,right,0,tmp_numprim(6)_final(9).webm,0,155,155,42,,,,,,,,15:17:35:112,15:17:35:764,15:17:38:766,right,15:17:38:900,,2013_Jan_12_1503,59.9666424657,MP-Perception Experiment,xx30w21,
157,training(5).webm,True,right,0,vgpdm_dyn(10)-lvm(5)_final(1).webm,0,156,156,79,,,,,,,,15:17:39:703,15:17:40:401,15:17:43:403,right,15:17:43:687,,2013_Jan_12_1503,59.9666424657,MP-Perception Experiment,xx30w21,
158,training(25).webm,True,right,0,vcgpdm_dyn(25)-lvm(35)_final(3).webm,0,157,157,77,,,,,,,,15:17:44:529,15:17:45:188,15:17:48:191,right,15:17:48:474,,2013_Jan_12_1503,59.9666424657,MP-Perception Experiment,xx30w21,
159,training(24).webm,True,right,0,vgpdm_dyn(5)-lvm(15)_final(8).webm,0,158,158,113,,,,,,,,15:17:49:286,15:17:49:975,15:17:52:979,right,15:17:53:129,,2013_Jan_12_1503,59.9666424657,MP-Perception Experiment,xx30w21,
160,vcgpdm_dyn(20)-lvm(30)_final(6).webm,True,left,1,training(36).webm,0,0,0,75,,,,,,,,15:20:29:873,15:20:30:531,15:20:33:517,left,15:20:33:834,,2013_Jan_12_1503,59.9666424657,MP-Perception Experiment,xx30w21,
161,vcgpdm_dyn(5)-lvm(5)_final(0).webm,False,left,1,training(29).webm,0,1,1,82,,,,,,,,15:20:34:573,15:20:35:350,15:20:38:336,left,15:20:38:686,,2013_Jan_12_1503,59.9666424657,MP-Perception Experiment,xx30w21,
162,vcgpdm_dyn(35)-lvm(30)_final(8).webm,False,left,1,training(21).webm,0,2,2,29,,,,,,,,15:20:39:364,15:20:40:204,15:20:43:190,left,15:20:43:557,,2013_Jan_12_1503,59.9666424657,MP-Perception Experiment,xx30w21,
163,training(30).webm,True,right,1,vgpdm_dyn(25)-lvm(30)_final(3).webm,0,3,3,10,,,,,,,,15:20:44:236,15:20:45:058,15:20:48:047,right,15:20:48:447,,2013_Jan_12_1503,59.9666424657,MP-Perception Experiment,xx30w21,
164,vgpdm_dyn(25)-lvm(30)_final(1).webm,True,left,1,training(24).webm,0,4,4,101,,,,,,,,15:20:49:119,15:20:49:948,15:20:52:951,left,15:20:53:334,,2013_Jan_12_1503,59.9666424657,MP-Perception Experiment,xx30w21,
165,vgpdm_dyn(25)-lvm(5)_final(6).webm,True,left,1,training(1).webm,0,5,5,54,,,,,,,,15:20:54:108,15:20:54:835,15:20:57:838,left,15:20:58:105,,2013_Jan_12_1503,59.9666424657,MP-Perception Experiment,xx30w21,
166,training(34).webm,False,right,1,tmp_numprim(7)_final(2).webm,0,6,6,35,,,,,,,,15:20:58:789,15:20:59:606,15:21:02:609,right,15:21:02:925,,2013_Jan_12_1503,59.9666424657,MP-Perception Experiment,xx30w21,
167,training(36).webm,False,right,1,vcgpdm_dyn(10)-lvm(5)_final(9).webm,0,7,7,89,,,,,,,,15:21:03:770,15:21:04:428,15:21:07:430,right,15:21:07:730,,2013_Jan_12_1503,59.9666424657,MP-Perception Experiment,xx30w21,
168,training(17).webm,False,right,1,map_gpdm_final(9).webm,0,8,8,119,,,,,,,,15:21:08:411,15:21:09:231,15:21:12:234,right,15:21:12:718,,2013_Jan_12_1503,59.9666424657,MP-Perception Experiment,xx30w21,
169,training(9).webm,False,right,1,vcgpdm_dyn(15)-lvm(25)_final(1).webm,0,9,9,107,,,,,,,,15:21:13:398,15:21:14:219,15:21:17:221,right,15:21:17:388,,2013_Jan_12_1503,59.9666424657,MP-Perception Experiment,xx30w21,
170,training(8).webm,True,right,1,vgpdm_dyn(10)-lvm(30)_final(3).webm,0,10,10,138,,,,,,,,15:21:18:055,15:21:18:889,15:21:21:893,right,15:21:22:210,,2013_Jan_12_1503,59.9666424657,MP-Perception Experiment,xx30w21,
171,training(11).webm,False,right,1,tmp_numprim(3)_final(1).webm,0,11,11,49,,,,,,,,15:21:23:037,15:21:23:711,15:21:26:711,right,15:21:27:028,,2013_Jan_12_1503,59.9666424657,MP-Perception Experiment,xx30w21,
172,vcgpdm_dyn(15)-lvm(5)_final(1).webm,True,left,1,training(15).webm,0,12,12,40,,,,,,,,15:21:27:770,15:21:28:530,15:21:31:532,left,15:21:31:816,,2013_Jan_12_1503,59.9666424657,MP-Perception Experiment,xx30w21,
173,training(21).webm,True,right,1,vcgpdm_dyn(25)-lvm(5)_final(2).webm,0,13,13,129,,,,,,,,15:21:32:674,15:21:33:317,15:21:36:319,right,15:21:36:619,,2013_Jan_12_1503,59.9666424657,MP-Perception Experiment,xx30w21,
174,training(22).webm,True,right,1,vgpdm_dyn(5)-lvm(30)_final(0).webm,0,14,14,25,,,,,,,,15:21:37:442,15:21:38:122,15:21:41:126,right,15:21:41:476,,2013_Jan_12_1503,59.9666424657,MP-Perception Experiment,xx30w21,
175,training(0).webm,False,right,1,vgpdm_dyn(10)-lvm(15)_final(9).webm,0,15,15,16,,,,,,,,15:21:42:318,15:21:42:977,15:21:45:980,right,15:21:46:247,,2013_Jan_12_1503,59.9666424657,MP-Perception Experiment,xx30w21,
176,training(21).webm,True,right,1,vgpdm_dyn(35)-lvm(10)_final(3).webm,0,16,16,115,,,,,,,,15:21:46:926,15:21:47:748,15:21:50:750,right,15:21:51:051,,2013_Jan_12_1503,59.9666424657,MP-Perception Experiment,xx30w21,
177,dmp_npsi(30)_final(0).webm,True,left,1,training(30).webm,0,17,17,11,,,,,,,,15:21:51:722,15:21:52:552,15:21:55:554,left,15:21:55:822,,2013_Jan_12_1503,59.9666424657,MP-Perception Experiment,xx30w21,
178,vcgpdm_dyn(35)-lvm(5)_final(5).webm,True,left,1,training(2).webm,0,18,18,153,,,,,,,,15:21:56:497,15:21:57:323,15:22:00:326,left,15:22:00:609,,2013_Jan_12_1503,59.9666424657,MP-Perception Experiment,xx30w21,
179,tmp_numprim(4)_final(5).webm,False,left,1,training(1).webm,0,19,19,130,,,,,,,,15:22:01:289,15:22:02:110,15:22:05:113,left,15:22:05:630,,2013_Jan_12_1503,59.9666424657,MP-Perception Experiment,xx30w21,
180,training(5).webm,False,right,1,vgpdm_dyn(35)-lvm(35)_final(7).webm,0,20,20,131,,,,,,,,15:22:06:313,15:22:07:131,15:22:10:134,right,15:22:10:234,,2013_Jan_12_1503,59.9666424657,MP-Perception Experiment,xx30w21,
181,training(17).webm,True,right,1,vgpdm_dyn(15)-lvm(35)_final(3).webm,0,21,21,20,,,,,,,,15:22:10:916,15:22:11:735,15:22:14:738,right,15:22:14:939,,2013_Jan_12_1503,59.9666424657,MP-Perception Experiment,xx30w21,
182,map_gpdm_final(8).webm,True,left,1,training(24).webm,0,22,22,136,,,,,,,,15:22:15:629,15:22:16:455,15:22:19:457,left,15:22:19:724,,2013_Jan_12_1503,59.9666424657,MP-Perception Experiment,xx30w21,
183,training(34).webm,True,right,1,vcgpdm_dyn(15)-lvm(10)_final(4).webm,0,23,23,4,,,,,,,,15:22:20:392,15:22:21:225,15:22:24:228,right,15:22:24:444,,2013_Jan_12_1503,59.9666424657,MP-Perception Experiment,xx30w21,
184,training(0).webm,False,right,1,vcgpdm_dyn(20)-lvm(15)_final(3).webm,0,24,24,64,,,,,,,,15:22:25:286,15:22:25:946,15:22:28:933,left,15:22:29:133,,2013_Jan_12_1503,59.9666424657,MP-Perception Experiment,xx30w21,
185,tmp_numprim(2)_final(2).webm,False,left,1,training(18).webm,0,25,25,146,,,,,,,,15:22:29:807,15:22:30:634,15:22:33:638,left,15:22:34:322,,2013_Jan_12_1503,59.9666424657,MP-Perception Experiment,xx30w21,
186,vgpdm_dyn(30)-lvm(35)_final(6).webm,True,left,1,training(7).webm,0,26,26,22,,,,,,,,15:22:35:167,15:22:35:823,15:22:38:826,left,15:22:39:059,,2013_Jan_12_1503,59.9666424657,MP-Perception Experiment,xx30w21,
187,training(41).webm,False,right,1,vgpdm_dyn(30)-lvm(35)_final(3).webm,0,27,27,45,,,,,,,,15:22:39:740,15:22:40:560,15:22:43:563,right,15:22:43:830,,2013_Jan_12_1503,59.9666424657,MP-Perception Experiment,xx30w21,
188,vcgpdm_dyn(20)-lvm(15)_final(0).webm,True,left,1,training(41).webm,0,28,28,67,,,,,,,,15:22:44:595,15:22:45:347,15:22:48:334,left,15:22:48:401,,2013_Jan_12_1503,59.9666424657,MP-Perception Experiment,xx30w21,
189,training(40).webm,False,right,1,vcgpdm_dyn(10)-lvm(5)_final(1).webm,0,29,29,122,,,,,,,,15:22:49:079,15:22:49:902,15:22:52:905,right,15:22:53:138,,2013_Jan_12_1503,59.9666424657,MP-Perception Experiment,xx30w21,
190,training(20).webm,True,right,1,vcgpdm_dyn(30)-lvm(25)_final(3).webm,0,30,30,118,,,,,,,,15:22:53:981,15:22:54:639,15:22:57:642,left,15:22:57:892,,2013_Jan_12_1503,59.9666424657,MP-Perception Experiment,xx30w21,
191,training(11).webm,False,right,1,vcgpdm_dyn(5)-lvm(5)_final(4).webm,0,31,31,70,,,,,,,,15:22:58:569,15:22:59:393,15:23:02:396,right,15:23:02:679,,2013_Jan_12_1503,59.9666424657,MP-Perception Experiment,xx30w21,
192,training(35).webm,False,right,1,vgpdm_dyn(15)-lvm(25)_final(9).webm,0,32,32,114,,,,,,,,15:23:03:521,15:23:04:180,15:23:07:182,left,15:23:07:432,,2013_Jan_12_1503,59.9666424657,MP-Perception Experiment,xx30w21,
193,training(4).webm,False,right,1,vcgpdm_dyn(35)-lvm(10)_final(2).webm,0,33,33,158,,,,,,,,15:23:08:112,15:23:08:933,15:23:11:936,right,15:23:12:319,,2013_Jan_12_1503,59.9666424657,MP-Perception Experiment,xx30w21,
194,vgpdm_dyn(15)-lvm(30)_final(7).webm,False,left,1,training(19).webm,0,34,34,155,,,,,,,,15:23:12:997,15:23:13:821,15:23:16:823,left,15:23:17:108,,2013_Jan_12_1503,59.9666424657,MP-Perception Experiment,xx30w21,
195,training(7).webm,True,right,1,vgpdm_dyn(20)-lvm(15)_final(0).webm,0,35,35,66,,,,,,,,15:23:17:788,15:23:18:609,15:23:21:612,right,15:23:21:862,,2013_Jan_12_1503,59.9666424657,MP-Perception Experiment,xx30w21,
196,training(25).webm,True,right,1,dmp_npsi(15)_final(5).webm,0,36,36,156,,,,,,,,15:23:22:541,15:23:23:364,15:23:26:367,right,15:23:26:617,,2013_Jan_12_1503,59.9666424657,MP-Perception Experiment,xx30w21,
197,vgpdm_dyn(15)-lvm(35)_final(4).webm,True,left,1,training(31).webm,0,37,37,59,,,,,,,,15:23:27:294,15:23:28:118,15:23:31:121,left,15:23:31:354,,2013_Jan_12_1503,59.9666424657,MP-Perception Experiment,xx30w21,
198,vgpdm_dyn(35)-lvm(10)_final(9).webm,False,left,1,training(40).webm,0,38,38,132,,,,,,,,15:23:32:026,15:23:32:855,15:23:35:858,right,15:23:36:091,,2013_Jan_12_1503,59.9666424657,MP-Perception Experiment,xx30w21,
199,vgpdm_dyn(20)-lvm(25)_final(8).webm,True,left,1,training(29).webm,0,39,39,68,,,,,,,,15:23:36:760,15:23:37:592,15:23:40:595,left,15:23:40:846,,2013_Jan_12_1503,59.9666424657,MP-Perception Experiment,xx30w21,
200,training(34).webm,True,right,1,vcgpdm_dyn(20)-lvm(25)_final(3).webm,0,40,40,69,,,,,,,,15:23:41:661,15:23:42:347,15:23:45:350,right,15:23:45:550,,2013_Jan_12_1503,59.9666424657,MP-Perception Experiment,xx30w21,
201,training(6).webm,True,right,1,dmp_npsi(20)_final(1).webm,0,41,41,43,,,,,,,,15:23:46:397,15:23:47:051,15:23:50:053,right,15:23:50:337,,2013_Jan_12_1503,59.9666424657,MP-Perception Experiment,xx30w21,
202,vgpdm_dyn(10)-lvm(25)_final(3).webm,True,left,1,training(29).webm,0,42,42,143,,,,,,,,15:23:51:101,15:23:51:838,15:23:54:841,left,15:23:55:091,,2013_Jan_12_1503,59.9666424657,MP-Perception Experiment,xx30w21,
203,training(6).webm,True,right,1,vcgpdm_dyn(30)-lvm(30)_final(0).webm,0,43,43,37,,,,,,,,15:23:55:948,15:23:56:607,15:23:59:611,right,15:23:59:911,,2013_Jan_12_1503,59.9666424657,MP-Perception Experiment,xx30w21,
204,training(33).webm,False,right,1,vgpdm_dyn(15)-lvm(5)_final(6).webm,0,44,44,65,,,,,,,,15:24:00:753,15:24:01:412,15:24:04:414,right,15:24:04:698,,2013_Jan_12_1503,59.9666424657,MP-Perception Experiment,xx30w21,
205,training(5).webm,True,right,1,vgpdm_dyn(5)-lvm(20)_final(6).webm,0,45,45,145,,,,,,,,15:24:05:371,15:24:06:199,15:24:09:187,right,15:24:09:437,,2013_Jan_12_1503,59.9666424657,MP-Perception Experiment,xx30w21,
206,vcgpdm_dyn(25)-lvm(25)_final(6).webm,True,left,1,training(4).webm,0,46,46,62,,,,,,,,15:24:10:115,15:24:10:938,15:24:13:941,left,15:24:14:224,,2013_Jan_12_1503,59.9666424657,MP-Perception Experiment,xx30w21,
207,vcgpdm_dyn(15)-lvm(20)_final(8).webm,True,left,1,training(13).webm,0,47,47,47,,,,,,,,15:24:14:910,15:24:15:726,15:24:18:729,left,15:24:18:929,,2013_Jan_12_1503,59.9666424657,MP-Perception Experiment,xx30w21,
208,vgpdm_dyn(15)-lvm(35)_final(7).webm,True,left,1,training(37).webm,0,48,48,6,,,,,,,,15:24:19:608,15:24:20:430,15:24:23:433,right,15:24:23:699,,2013_Jan_12_1503,59.9666424657,MP-Perception Experiment,xx30w21,
209,training(39).webm,False,right,1,vcgpdm_dyn(15)-lvm(15)_final(7).webm,0,49,49,102,,,,,,,,15:24:24:381,15:24:25:201,15:24:28:203,right,15:24:28:437,,2013_Jan_12_1503,59.9666424657,MP-Perception Experiment,xx30w21,
210,training(2).webm,True,right,1,vcgpdm_dyn(5)-lvm(5)_final(2).webm,0,50,50,99,,,,,,,,15:24:29:113,15:24:29:938,15:24:32:940,right,15:24:33:007,,2013_Jan_12_1503,59.9666424657,MP-Perception Experiment,xx30w21,
211,vgpdm_dyn(10)-lvm(35)_final(5).webm,False,left,1,training(9).webm,0,51,51,105,,,,,,,,15:24:33:679,15:24:34:509,15:24:37:512,left,15:24:37:562,,2013_Jan_12_1503,59.9666424657,MP-Perception Experiment,xx30w21,
212,training(40).webm,False,right,1,vcgpdm_dyn(20)-lvm(5)_final(1).webm,0,52,52,152,,,,,,,,15:24:38:369,15:24:39:063,15:24:42:065,right,15:24:42:332,,2013_Jan_12_1503,59.9666424657,MP-Perception Experiment,xx30w21,
213,training(15).webm,False,right,1,vgpdm_dyn(30)-lvm(25)_final(0).webm,0,53,53,141,,,,,,,,15:24:43:006,15:24:43:833,15:24:46:834,right,15:24:47:151,,2013_Jan_12_1503,59.9666424657,MP-Perception Experiment,xx30w21,
214,vcgpdm_dyn(30)-lvm(30)_final(3).webm,False,left,1,training(16).webm,0,54,54,44,,,,,,,,15:24:47:921,15:24:48:652,15:24:51:656,left,15:24:51:939,,2013_Jan_12_1503,59.9666424657,MP-Perception Experiment,xx30w21,
215,vcgpdm_dyn(5)-lvm(25)_final(3).webm,True,left,1,training(2).webm,0,55,55,154,,,,,,,,15:24:52:792,15:24:53:440,15:24:56:443,left,15:24:56:760,,2013_Jan_12_1503,59.9666424657,MP-Perception Experiment,xx30w21,
216,tmp_numprim(3)_final(9).webm,True,left,1,training(23).webm,0,56,56,149,,,,,,,,15:24:57:502,15:24:58:263,15:25:01:265,left,15:25:01:549,,2013_Jan_12_1503,59.9666424657,MP-Perception Experiment,xx30w21,
217,training(23).webm,False,right,1,vcgpdm_dyn(30)-lvm(35)_final(8).webm,0,57,57,38,,,,,,,,15:25:02:396,15:25:03:050,15:25:06:052,right,15:25:06:286,,2013_Jan_12_1503,59.9666424657,MP-Perception Experiment,xx30w21,
218,vcgpdm_dyn(30)-lvm(10)_final(9).webm,True,left,1,training(30).webm,0,58,58,83,,,,,,,,15:25:07:021,15:25:07:787,15:25:10:791,right,15:25:11:057,,2013_Jan_12_1503,59.9666424657,MP-Perception Experiment,xx30w21,
219,training(12).webm,True,right,1,vgpdm_dyn(20)-lvm(35)_final(2).webm,0,59,59,58,,,,,,,,15:25:11:759,15:25:12:558,15:25:15:561,right,15:25:15:911,,2013_Jan_12_1503,59.9666424657,MP-Perception Experiment,xx30w21,
220,training(15).webm,True,right,1,vcgpdm_dyn(25)-lvm(5)_final(6).webm,0,60,60,106,,,,,,,,15:25:16:611,15:25:17:412,15:25:20:415,right,15:25:20:682,,2013_Jan_12_1503,59.9666424657,MP-Perception Experiment,xx30w21,
221,training(11).webm,True,right,1,vcgpdm_dyn(15)-lvm(15)_final(3).webm,0,61,61,113,,,,,,,,15:25:21:365,15:25:22:183,15:25:25:186,left,15:25:25:954,,2013_Jan_12_1503,59.9666424657,MP-Perception Experiment,xx30w21,
222,training(24).webm,True,right,1,vgpdm_dyn(15)-lvm(30)_final(4).webm,0,62,62,109,,,,,,,,15:25:26:639,15:25:27:455,15:25:30:457,right,15:25:30:758,,2013_Jan_12_1503,59.9666424657,MP-Perception Experiment,xx30w21,
223,training(14).webm,True,right,1,vgpdm_dyn(35)-lvm(10)_final(8).webm,0,63,63,121,,,,,,,,15:25:31:443,15:25:32:259,15:25:35:259,left,15:25:35:326,,2013_Jan_12_1503,59.9666424657,MP-Perception Experiment,xx30w21,
224,vcgpdm_dyn(30)-lvm(20)_final(5).webm,False,left,1,training(5).webm,0,64,64,74,,,,,,,,15:25:36:025,15:25:36:827,15:25:39:830,right,15:25:40:113,,2013_Jan_12_1503,59.9666424657,MP-Perception Experiment,xx30w21,
225,training(29).webm,True,right,1,vgpdm_dyn(35)-lvm(5)_final(4).webm,0,65,65,52,,,,,,,,15:25:40:819,15:25:41:614,15:25:44:618,left,15:25:44:902,,2013_Jan_12_1503,59.9666424657,MP-Perception Experiment,xx30w21,
226,training(6).webm,False,right,1,vgpdm_dyn(20)-lvm(25)_final(7).webm,0,66,66,42,,,,,,,,15:25:45:623,15:25:46:403,15:25:49:405,right,15:25:49:640,,2013_Jan_12_1503,59.9666424657,MP-Perception Experiment,xx30w21,
227,vgpdm_dyn(20)-lvm(35)_final(9).webm,False,left,1,training(0).webm,0,67,67,142,,,,,,,,15:25:50:354,15:25:51:142,15:25:54:144,right,15:25:54:428,,2013_Jan_12_1503,59.9666424657,MP-Perception Experiment,xx30w21,
228,vgpdm_dyn(25)-lvm(20)_final(4).webm,True,left,1,training(23).webm,0,68,68,134,,,,,,,,15:25:55:134,15:25:55:929,15:25:58:931,left,15:25:59:215,,2013_Jan_12_1503,59.9666424657,MP-Perception Experiment,xx30w21,
229,vgpdm_dyn(5)-lvm(10)_final(0).webm,True,left,1,training(9).webm,0,69,69,0,,,,,,,,15:25:59:898,15:26:00:717,15:26:03:720,left,15:26:03:953,,2013_Jan_12_1503,59.9666424657,MP-Perception Experiment,xx30w21,
230,vcgpdm_dyn(25)-lvm(20)_final(9).webm,True,left,1,training(25).webm,0,70,70,14,,,,,,,,15:26:04:629,15:26:05:454,15:26:08:457,left,15:26:08:774,,2013_Jan_12_1503,59.9666424657,MP-Perception Experiment,xx30w21,
231,vcgpdm_dyn(20)-lvm(20)_final(6).webm,False,left,1,training(6).webm,0,71,71,60,,,,,,,,15:26:09:456,15:26:10:275,15:26:13:277,left,15:26:13:544,,2013_Jan_12_1503,59.9666424657,MP-Perception Experiment,xx30w21,
232,training(14).webm,False,right,1,vcgpdm_dyn(15)-lvm(35)_final(8).webm,0,72,72,123,,,,,,,,15:26:14:228,15:26:15:045,15:26:18:049,right,15:26:18:749,,2013_Jan_12_1503,59.9666424657,MP-Perception Experiment,xx30w21,
233,tmp_numprim(3)_final(6).webm,False,left,1,training(29).webm,0,73,73,61,,,,,,,,15:26:19:429,15:26:20:250,15:26:23:253,left,15:26:23:570,,2013_Jan_12_1503,59.9666424657,MP-Perception Experiment,xx30w21,
234,training(28).webm,False,right,1,vgpdm_dyn(20)-lvm(20)_final(4).webm,0,74,74,126,,,,,,,,15:26:24:422,15:26:25:071,15:26:28:072,right,15:26:28:505,,2013_Jan_12_1503,59.9666424657,MP-Perception Experiment,xx30w21,
235,vcgpdm_dyn(15)-lvm(15)_final(7).webm,True,left,1,training(32).webm,0,75,75,13,,,,,,,,15:26:29:183,15:26:30:007,15:26:33:009,left,15:26:33:309,,2013_Jan_12_1503,59.9666424657,MP-Perception Experiment,xx30w21,
236,training(29).webm,False,right,1,tmp_numprim(6)_final(9).webm,0,76,76,26,,,,,,,,15:26:33:987,15:26:34:810,15:26:37:799,right,15:26:38:066,,2013_Jan_12_1503,59.9666424657,MP-Perception Experiment,xx30w21,
237,vgpdm_dyn(10)-lvm(30)_final(9).webm,True,left,1,training(29).webm,0,77,77,148,,,,,,,,15:26:38:748,15:26:39:567,15:26:42:570,left,15:26:42:903,,2013_Jan_12_1503,59.9666424657,MP-Perception Experiment,xx30w21,
238,vcgpdm_dyn(30)-lvm(10)_final(9).webm,True,left,1,training(29).webm,0,78,78,21,,,,,,,,15:26:43:581,15:26:44:404,15:26:47:407,right,15:26:47:540,,2013_Jan_12_1503,59.9666424657,MP-Perception Experiment,xx30w21,
239,training(28).webm,False,right,1,vcgpdm_dyn(20)-lvm(30)_final(6).webm,0,79,79,104,,,,,,,,15:26:48:220,15:26:49:041,15:26:52:044,right,15:26:52:328,,2013_Jan_12_1503,59.9666424657,MP-Perception Experiment,xx30w21,
240,vgpdm_dyn(30)-lvm(25)_final(2).webm,False,left,1,training(10).webm,0,80,80,41,,,,,,,,15:26:53:004,15:26:53:830,15:26:56:832,right,15:26:57:149,,2013_Jan_12_1503,59.9666424657,MP-Perception Experiment,xx30w21,
241,tmp_numprim(7)_final(8).webm,True,left,1,training(10).webm,0,81,81,28,,,,,,,,15:26:57:850,15:26:58:650,15:27:01:653,left,15:27:01:836,,2013_Jan_12_1503,59.9666424657,MP-Perception Experiment,xx30w21,
242,vgpdm_dyn(35)-lvm(10)_final(8).webm,False,left,1,training(17).webm,0,82,82,33,,,,,,,,15:27:02:515,15:27:03:337,15:27:06:340,right,15:27:06:607,,2013_Jan_12_1503,59.9666424657,MP-Perception Experiment,xx30w21,
243,training(25).webm,False,right,1,vcgpdm_dyn(30)-lvm(10)_final(8).webm,0,83,83,117,,,,,,,,15:27:07:421,15:27:08:108,15:27:11:111,right,15:27:11:645,,2013_Jan_12_1503,59.9666424657,MP-Perception Experiment,xx30w21,
244,training(11).webm,False,right,1,tmp_numprim(7)_final(8).webm,0,84,84,34,,,,,,,,15:27:12:323,15:27:13:146,15:27:16:147,left,15:27:16:464,,2013_Jan_12_1503,59.9666424657,MP-Perception Experiment,xx30w21,
245,training(33).webm,True,right,1,map_cgpdm_final(0).webm,0,85,85,24,,,,,,,,15:27:17:313,15:27:17:965,15:27:20:967,right,15:27:21:234,,2013_Jan_12_1503,59.9666424657,MP-Perception Experiment,xx30w21,
246,vcgpdm_dyn(10)-lvm(20)_final(8).webm,False,left,1,training(17).webm,0,86,86,23,,,,,,,,15:27:22:082,15:27:22:735,15:27:25:738,left,15:27:25:988,,2013_Jan_12_1503,59.9666424657,MP-Perception Experiment,xx30w21,
247,training(19).webm,True,right,1,vcgpdm_dyn(15)-lvm(35)_final(9).webm,0,87,87,12,,,,,,,,15:27:26:839,15:27:27:489,15:27:30:478,right,15:27:30:695,,2013_Jan_12_1503,59.9666424657,MP-Perception Experiment,xx30w21,
248,training(28).webm,True,right,1,vcgpdm_dyn(25)-lvm(30)_final(9).webm,0,88,88,120,,,,,,,,15:27:31:543,15:27:32:196,15:27:35:198,left,15:27:35:482,,2013_Jan_12_1503,59.9666424657,MP-Perception Experiment,xx30w21,
249,vgpdm_dyn(25)-lvm(30)_final(7).webm,True,left,1,training(4).webm,0,89,89,85,,,,,,,,15:27:36:219,15:27:36:983,15:27:39:986,left,15:27:40:303,,2013_Jan_12_1503,59.9666424657,MP-Perception Experiment,xx30w21,
250,training(15).webm,True,right,1,vcgpdm_dyn(30)-lvm(10)_final(2).webm,0,90,90,18,,,,,,,,15:27:41:113,15:27:41:804,15:27:44:806,right,15:27:45:106,,2013_Jan_12_1503,59.9666424657,MP-Perception Experiment,xx30w21,
251,tmp_numprim(9)_final(1).webm,True,left,1,training(38).webm,0,91,91,31,,,,,,,,15:27:45:875,15:27:46:608,15:27:49:611,right,15:27:49:861,,2013_Jan_12_1503,59.9666424657,MP-Perception Experiment,xx30w21,
252,training(48).webm,False,right,1,vcgpdm_dyn(25)-lvm(15)_final(3).webm,0,92,92,78,,,,,,,,15:27:50:707,15:27:51:362,15:27:54:365,right,15:27:54:632,,2013_Jan_12_1503,59.9666424657,MP-Perception Experiment,xx30w21,
253,training(1).webm,False,right,1,vgpdm_dyn(35)-lvm(5)_final(7).webm,0,93,93,5,,,,,,,,15:27:55:449,15:27:56:133,15:27:59:135,right,15:27:59:369,,2013_Jan_12_1503,59.9666424657,MP-Perception Experiment,xx30w21,
254,training(36).webm,True,right,1,dmp_npsi(30)_final(4).webm,0,94,94,110,,,,,,,,15:28:00:071,15:28:00:870,15:28:03:874,left,15:28:04:191,,2013_Jan_12_1503,59.9666424657,MP-Perception Experiment,xx30w21,
255,training(21).webm,True,right,1,vgpdm_dyn(15)-lvm(30)_final(8).webm,0,95,95,1,,,,,,,,15:28:04:868,15:28:05:706,15:28:08:692,right,15:28:09:026,,2013_Jan_12_1503,59.9666424657,MP-Perception Experiment,xx30w21,
256,vgpdm_dyn(15)-lvm(30)_final(6).webm,True,left,1,training(9).webm,0,96,96,92,,,,,,,,15:28:09:710,15:28:10:527,15:28:13:530,left,15:28:13:830,,2013_Jan_12_1503,59.9666424657,MP-Perception Experiment,xx30w21,
257,vgpdm_dyn(25)-lvm(20)_final(4).webm,False,left,1,training(27).webm,0,97,97,125,,,,,,,,15:28:14:505,15:28:15:331,15:28:18:319,left,15:28:18:819,,2013_Jan_12_1503,59.9666424657,MP-Perception Experiment,xx30w21,
258,vgpdm_dyn(35)-lvm(35)_final(9).webm,False,left,1,training(3).webm,0,98,98,19,,,,,,,,15:28:19:496,15:28:20:320,15:28:23:324,left,15:28:23:624,,2013_Jan_12_1503,59.9666424657,MP-Perception Experiment,xx30w21,
259,vgpdm_dyn(30)-lvm(15)_final(2).webm,True,left,1,training(13).webm,0,99,99,93,,,,,,,,15:28:24:311,15:28:25:125,15:28:28:128,left,15:28:28:211,,2013_Jan_12_1503,59.9666424657,MP-Perception Experiment,xx30w21,
260,training(36).webm,False,right,1,vcgpdm_dyn(15)-lvm(25)_final(2).webm,0,100,100,57,,,,,,,,15:28:28:889,15:28:29:712,15:28:32:715,right,15:28:33:031,,2013_Jan_12_1503,59.9666424657,MP-Perception Experiment,xx30w21,
261,training(34).webm,False,right,1,vcgpdm_dyn(15)-lvm(15)_final(9).webm,0,101,101,100,,,,,,,,15:28:33:711,15:28:34:533,15:28:37:535,right,15:28:37:986,,2013_Jan_12_1503,59.9666424657,MP-Perception Experiment,xx30w21,
262,training(29).webm,False,right,1,vgpdm_dyn(30)-lvm(30)_final(4).webm,0,102,102,72,,,,,,,,15:28:38:670,15:28:39:488,15:28:42:490,left,15:28:42:774,,2013_Jan_12_1503,59.9666424657,MP-Perception Experiment,xx30w21,
263,vcgpdm_dyn(30)-lvm(30)_final(9).webm,False,left,1,training(23).webm,0,103,103,133,,,,,,,,15:28:43:620,15:28:44:275,15:28:47:277,left,15:28:47:794,,2013_Jan_12_1503,59.9666424657,MP-Perception Experiment,xx30w21,
264,vcgpdm_dyn(35)-lvm(5)_final(9).webm,False,left,1,training(35).webm,0,104,104,32,,,,,,,,15:28:48:481,15:28:49:295,15:28:52:298,left,15:28:52:715,,2013_Jan_12_1503,59.9666424657,MP-Perception Experiment,xx30w21,
265,vcgpdm_dyn(15)-lvm(5)_final(3).webm,False,left,1,training(27).webm,0,105,105,91,,,,,,,,15:28:53:560,15:28:54:216,15:28:57:218,left,15:28:57:485,,2013_Jan_12_1503,59.9666424657,MP-Perception Experiment,xx30w21,
266,map_cgpdm_final(5).webm,False,left,1,training(35).webm,0,106,106,81,,,,,,,,15:28:58:298,15:28:58:986,15:29:01:988,left,15:29:02:272,,2013_Jan_12_1503,59.9666424657,MP-Perception Experiment,xx30w21,
267,map_cgpdm_final(3).webm,False,left,1,training(37).webm,0,107,107,94,,,,,,,,15:29:03:061,15:29:03:773,15:29:06:776,left,15:29:07:159,,2013_Jan_12_1503,59.9666424657,MP-Perception Experiment,xx30w21,
268,vcgpdm_dyn(25)-lvm(10)_final(7).webm,True,left,1,training(29).webm,0,108,108,39,,,,,,,,15:29:08:006,15:29:08:660,15:29:11:648,left,15:29:11:948,,2013_Jan_12_1503,59.9666424657,MP-Perception Experiment,xx30w21,
269,vcgpdm_dyn(5)-lvm(20)_final(3).webm,True,left,1,training(7).webm,0,109,109,86,,,,,,,,15:29:12:797,15:29:13:450,15:29:16:453,left,15:29:16:703,,2013_Jan_12_1503,59.9666424657,MP-Perception Experiment,xx30w21,
270,vcgpdm_dyn(25)-lvm(20)_final(7).webm,True,left,1,training(38).webm,0,110,110,103,,,,,,,,15:29:17:444,15:29:18:204,15:29:21:207,left,15:29:21:440,,2013_Jan_12_1503,59.9666424657,MP-Perception Experiment,xx30w21,
271,training(4).webm,True,right,1,vcgpdm_dyn(20)-lvm(25)_final(2).webm,0,111,111,151,,,,,,,,15:29:22:289,15:29:22:941,15:29:25:944,right,15:29:26:261,,2013_Jan_12_1503,59.9666424657,MP-Perception Experiment,xx30w21,
272,training(14).webm,False,right,1,vcgpdm_dyn(20)-lvm(10)_final(1).webm,0,112,112,108,,,,,,,,15:29:27:110,15:29:27:762,15:29:30:765,right,15:29:31:049,,2013_Jan_12_1503,59.9666424657,MP-Perception Experiment,xx30w21,
273,vgpdm_dyn(25)-lvm(5)_final(2).webm,False,left,1,training(7).webm,0,113,113,147,,,,,,,,15:29:31:736,15:29:32:550,15:29:35:553,left,15:29:35:786,,2013_Jan_12_1503,59.9666424657,MP-Perception Experiment,xx30w21,
274,vcgpdm_dyn(20)-lvm(35)_final(6).webm,True,left,1,training(12).webm,0,114,114,7,,,,,,,,15:29:36:464,15:29:37:287,15:29:40:290,left,15:29:41:207,,2013_Jan_12_1503,59.9666424657,MP-Perception Experiment,xx30w21,
275,training(5).webm,True,right,1,vcgpdm_dyn(25)-lvm(15)_final(7).webm,0,115,115,139,,,,,,,,15:29:41:892,15:29:42:708,15:29:45:709,right,15:29:45:993,,2013_Jan_12_1503,59.9666424657,MP-Perception Experiment,xx30w21,
276,vcgpdm_dyn(15)-lvm(35)_final(7).webm,True,left,1,training(0).webm,0,116,116,48,,,,,,,,15:29:46:679,15:29:47:494,15:29:50:497,left,15:29:50:797,,2013_Jan_12_1503,59.9666424657,MP-Perception Experiment,xx30w21,
277,training(48).webm,True,right,1,tmp_numprim(7)_final(2).webm,0,117,117,8,,,,,,,,15:29:51:473,15:29:52:315,15:29:55:301,right,15:29:55:601,,2013_Jan_12_1503,59.9666424657,MP-Perception Experiment,xx30w21,
278,vgpdm_dyn(30)-lvm(30)_final(0).webm,True,left,1,training(31).webm,0,118,118,77,,,,,,,,15:29:56:287,15:29:57:102,15:30:00:090,left,15:30:00:390,,2013_Jan_12_1503,59.9666424657,MP-Perception Experiment,xx30w21,
279,vcgpdm_dyn(25)-lvm(25)_final(5).webm,True,left,1,training(35).webm,0,119,119,3,,,,,,,,15:30:01:067,15:30:01:891,15:30:04:894,right,15:30:05:144,,2013_Jan_12_1503,59.9666424657,MP-Perception Experiment,xx30w21,
280,vgpdm_dyn(15)-lvm(15)_final(8).webm,True,left,1,training(4).webm,0,120,120,51,,,,,,,,15:30:05:852,15:30:06:646,15:30:09:649,left,15:30:09:999,,2013_Jan_12_1503,59.9666424657,MP-Perception Experiment,xx30w21,
281,vcgpdm_dyn(15)-lvm(20)_final(9).webm,False,left,1,training(19).webm,0,121,121,15,,,,,,,,15:30:10:670,15:30:11:500,15:30:14:503,left,15:30:14:770,,2013_Jan_12_1503,59.9666424657,MP-Perception Experiment,xx30w21,
282,vgpdm_dyn(10)-lvm(5)_final(1).webm,True,left,1,training(35).webm,0,122,122,9,,,,,,,,15:30:15:443,15:30:16:271,15:30:19:273,left,15:30:19:573,,2013_Jan_12_1503,59.9666424657,MP-Perception Experiment,xx30w21,
283,vcgpdm_dyn(10)-lvm(30)_final(7).webm,True,left,1,training(6).webm,0,123,123,55,,,,,,,,15:30:20:255,15:30:21:075,15:30:24:078,left,15:30:24:295,,2013_Jan_12_1503,59.9666424657,MP-Perception Experiment,xx30w21,
284,training(1).webm,False,right,1,vcgpdm_dyn(35)-lvm(10)_final(3).webm,0,124,124,30,,,,,,,,15:30:25:102,15:30:25:796,15:30:28:799,right,15:30:29:065,,2013_Jan_12_1503,59.9666424657,MP-Perception Experiment,xx30w21,
285,training(38).webm,True,right,1,vcgpdm_dyn(35)-lvm(20)_final(8).webm,0,125,125,124,,,,,,,,15:30:29:748,15:30:30:567,15:30:33:569,right,15:30:33:869,,2013_Jan_12_1503,59.9666424657,MP-Perception Experiment,xx30w21,
286,training(13).webm,False,right,1,tmp_numprim(8)_final(1).webm,0,126,126,2,,,,,,,,15:30:34:715,15:30:35:370,15:30:38:371,left,15:30:38:638,,2013_Jan_12_1503,59.9666424657,MP-Perception Experiment,xx30w21,
287,vgpdm_dyn(5)-lvm(5)_final(4)_out_of_screen.webm,False,left,1,training(3).webm,0,127,127,50,,,,,,,,15:30:39:322,15:30:40:139,15:30:43:143,left,15:30:43:376,,2013_Jan_12_1503,59.9666424657,MP-Perception Experiment,xx30w21,
288,training(7).webm,True,right,1,vcgpdm_dyn(25)-lvm(30)_final(1).webm,0,128,128,157,,,,,,,,15:30:44:219,15:30:44:877,15:30:47:865,right,15:30:48:232,,2013_Jan_12_1503,59.9666424657,MP-Perception Experiment,xx30w21,
289,training(2).webm,False,right,1,vcgpdm_dyn(30)-lvm(5)_final(2).webm,0,129,129,84,,,,,,,,15:30:48:908,15:30:49:733,15:30:52:736,right,15:30:52:952,,2013_Jan_12_1503,59.9666424657,MP-Perception Experiment,xx30w21,
290,training(5).webm,False,right,1,map_gpdm_final(7).webm,0,130,130,63,,,,,,,,15:30:53:636,15:30:54:453,15:30:57:456,right,15:30:57:841,,2013_Jan_12_1503,59.9666424657,MP-Perception Experiment,xx30w21,
291,vcgpdm_dyn(5)-lvm(20)_final(4).webm,True,left,1,training(40).webm,0,131,131,95,,,,,,,,15:30:58:517,15:30:59:358,15:31:02:344,left,15:31:02:611,,2013_Jan_12_1503,59.9666424657,MP-Perception Experiment,xx30w21,
292,vgpdm_dyn(25)-lvm(20)_final(4).webm,False,left,1,training(8).webm,0,132,132,111,,,,,,,,15:31:03:284,15:31:04:112,15:31:07:115,left,15:31:07:415,,2013_Jan_12_1503,59.9666424657,MP-Perception Experiment,xx30w21,
293,training(12).webm,False,right,1,map_cgpdm_final(1).webm,0,133,133,116,,,,,,,,15:31:08:118,15:31:08:916,15:31:11:919,left,15:31:15:155,,2013_Jan_12_1503,59.9666424657,MP-Perception Experiment,xx30w21,
294,training(19).webm,False,right,1,vcgpdm_dyn(15)-lvm(5)_final(6).webm,0,134,134,97,,,,,,,,15:31:15:838,15:31:16:657,15:31:19:659,right,15:31:19:893,,2013_Jan_12_1503,59.9666424657,MP-Perception Experiment,xx30w21,
295,training(0).webm,False,right,1,vcgpdm_dyn(10)-lvm(35)_final(2).webm,0,135,135,76,,,,,,,,15:31:20:743,15:31:21:394,15:31:24:397,right,15:31:24:663,,2013_Jan_12_1503,59.9666424657,MP-Perception Experiment,xx30w21,
296,tmp_numprim(10)_final(9).webm,False,left,1,training(20).webm,0,136,136,36,,,,,,,,15:31:25:351,15:31:26:179,15:31:29:165,right,15:31:29:515,,2013_Jan_12_1503,59.9666424657,MP-Perception Experiment,xx30w21,
297,training(5).webm,False,right,1,vgpdm_dyn(30)-lvm(10)_final(1).webm,0,137,137,53,,,,,,,,15:31:30:200,15:31:31:017,15:31:34:020,right,15:31:34:254,,2013_Jan_12_1503,59.9666424657,MP-Perception Experiment,xx30w21,
298,vcgpdm_dyn(20)-lvm(5)_final(8).webm,True,left,1,training(3).webm,0,138,138,27,,,,,,,,15:31:34:937,15:31:35:755,15:31:38:742,left,15:31:39:076,,2013_Jan_12_1503,59.9666424657,MP-Perception Experiment,xx30w21,
299,training(32).webm,True,right,1,vgpdm_dyn(5)-lvm(30)_final(0).webm,0,139,139,128,,,,,,,,15:31:39:749,15:31:40:577,15:31:43:580,right,15:31:43:913,,2013_Jan_12_1503,59.9666424657,MP-Perception Experiment,xx30w21,
300,vcgpdm_dyn(10)-lvm(5)_final(8).webm,False,left,1,training(9).webm,0,140,140,46,,,,,,,,15:31:44:593,15:31:45:414,15:31:48:417,right,15:31:48:634,,2013_Jan_12_1503,59.9666424657,MP-Perception Experiment,xx30w21,
301,vcgpdm_dyn(5)-lvm(15)_final(4).webm,False,left,1,training(0).webm,0,141,141,73,,,,,,,,15:31:49:313,15:31:50:135,15:31:53:138,left,15:31:53:372,,2013_Jan_12_1503,59.9666424657,MP-Perception Experiment,xx30w21,
302,training(5).webm,False,right,1,vcgpdm_dyn(15)-lvm(20)_final(0).webm,0,142,142,137,,,,,,,,15:31:54:218,15:31:54:873,15:31:57:876,right,15:31:58:126,,2013_Jan_12_1503,59.9666424657,MP-Perception Experiment,xx30w21,
303,training(13).webm,True,right,1,vcgpdm_dyn(10)-lvm(30)_final(7).webm,0,143,143,135,,,,,,,,15:31:58:802,15:31:59:627,15:32:02:629,left,15:32:02:946,,2013_Jan_12_1503,59.9666424657,MP-Perception Experiment,xx30w21,
304,vgpdm_dyn(10)-lvm(20)_final(0).webm,True,left,1,training(41).webm,0,144,144,96,,,,,,,,15:32:03:698,15:32:04:464,15:32:07:450,left,15:32:07:751,,2013_Jan_12_1503,59.9666424657,MP-Perception Experiment,xx30w21,
305,training(41).webm,True,right,1,vcgpdm_dyn(15)-lvm(25)_final(2).webm,0,145,145,17,,,,,,,,15:32:08:430,15:32:09:252,15:32:12:255,right,15:32:12:805,,2013_Jan_12_1503,59.9666424657,MP-Perception Experiment,xx30w21,
306,training(21).webm,True,right,1,vcgpdm_dyn(35)-lvm(25)_final(3).webm,0,146,146,90,,,,,,,,15:32:13:662,15:32:14:306,15:32:17:307,right,15:32:17:591,,2013_Jan_12_1503,59.9666424657,MP-Perception Experiment,xx30w21,
307,tmp_numprim(4)_final(4).webm,False,left,1,training(17).webm,0,147,147,87,,,,,,,,15:32:18:410,15:32:19:092,15:32:22:094,left,15:32:22:378,,2013_Jan_12_1503,59.9666424657,MP-Perception Experiment,xx30w21,
308,vcgpdm_dyn(30)-lvm(20)_final(1).webm,True,left,1,training(23).webm,0,148,148,98,,,,,,,,15:32:23:056,15:32:23:879,15:32:26:882,right,15:32:27:183,,2013_Jan_12_1503,59.9666424657,MP-Perception Experiment,xx30w21,
309,vcgpdm_dyn(10)-lvm(30)_final(6).webm,False,left,1,training(36).webm,0,149,149,79,,,,,,,,15:32:27:984,15:32:28:684,15:32:31:671,left,15:32:32:088,,2013_Jan_12_1503,59.9666424657,MP-Perception Experiment,xx30w21,
310,training(25).webm,False,right,1,dmp_npsi(40)_final(9).webm,0,150,150,80,,,,,,,,15:32:32:761,15:32:33:590,15:32:36:592,right,15:32:36:842,,2013_Jan_12_1503,59.9666424657,MP-Perception Experiment,xx30w21,
311,vcgpdm_dyn(15)-lvm(25)_final(1).webm,False,left,1,training(28).webm,0,151,151,144,,,,,,,,15:32:37:521,15:32:38:343,15:32:41:346,left,15:32:41:563,,2013_Jan_12_1503,59.9666424657,MP-Perception Experiment,xx30w21,
312,training(16).webm,False,right,1,vgpdm_dyn(20)-lvm(30)_final(4).webm,0,152,152,150,,,,,,,,15:32:42:246,15:32:43:082,15:32:46:067,right,15:32:46:368,,2013_Jan_12_1503,59.9666424657,MP-Perception Experiment,xx30w21,
313,dmp_npsi(20)_final(0).webm,True,left,1,training(37).webm,0,153,153,71,,,,,,,,15:32:47:053,15:32:47:869,15:32:50:871,left,15:32:51:222,,2013_Jan_12_1503,59.9666424657,MP-Perception Experiment,xx30w21,
314,vgpdm_dyn(20)-lvm(35)_final(1).webm,True,left,1,training(3).webm,0,154,154,140,,,,,,,,15:32:51:907,15:32:52:723,15:32:55:725,left,15:32:56:042,,2013_Jan_12_1503,59.9666424657,MP-Perception Experiment,xx30w21,
315,training(19).webm,False,right,1,vgpdm_dyn(5)-lvm(25)_final(8)_out_of_screen.webm,0,155,155,127,,,,,,,,15:32:56:724,15:32:57:543,15:33:00:547,right,15:33:00:830,,2013_Jan_12_1503,59.9666424657,MP-Perception Experiment,xx30w21,
316,vcgpdm_dyn(10)-lvm(15)_final(4).webm,False,left,1,training(38).webm,0,156,156,88,,,,,,,,15:33:01:505,15:33:02:331,15:33:05:334,left,15:33:05:601,,2013_Jan_12_1503,59.9666424657,MP-Perception Experiment,xx30w21,
317,training(40).webm,True,right,1,vgpdm_dyn(5)-lvm(15)_final(9).webm,0,157,157,112,,,,,,,,15:33:06:297,15:33:07:117,15:33:10:119,right,15:33:10:503,,2013_Jan_12_1503,59.9666424657,MP-Perception Experiment,xx30w21,
318,vgpdm_dyn(35)-lvm(25)_final(2).webm,False,left,1,training(38).webm,0,158,158,56,,,,,,,,15:33:11:183,15:33:12:004,15:33:15:007,left,15:33:15:257,,2013_Jan_12_1503,59.9666424657,MP-Perception Experiment,xx30w21,
319,vgpdm_dyn(30)-lvm(20)_final(0).webm,True,left,2,training(25).webm,0,0,0,0,,,,,,,,15:35:17:231,15:35:17:998,15:35:20:985,left,15:35:21:385,,2013_Jan_12_1503,59.9666424657,MP-Perception Experiment,xx30w21,
320,vcgpdm_dyn(15)-lvm(30)_final(1).webm,False,left,2,training(14).webm,0,1,1,133,,,,,,,,15:35:22:068,15:35:22:886,15:35:25:889,left,15:35:26:206,,2013_Jan_12_1503,59.9666424657,MP-Perception Experiment,xx30w21,
321,training(36).webm,True,right,2,vcgpdm_dyn(5)-lvm(30)_final(0)_bad.webm,0,2,2,41,,,,,,,,15:35:27:050,15:35:27:707,15:35:30:709,right,15:35:31:143,,2013_Jan_12_1503,59.9666424657,MP-Perception Experiment,xx30w21,
322,vgpdm_dyn(20)-lvm(5)_final(1).webm,True,left,2,training(31).webm,0,3,3,29,,,,,,,,15:35:31:832,15:35:32:644,15:35:35:647,left,15:35:35:945,,2013_Jan_12_1503,59.9666424657,MP-Perception Experiment,xx30w21,
323,vgpdm_dyn(10)-lvm(5)_final(8).webm,True,left,2,training(41).webm,0,4,4,108,,,,,,,,15:35:36:791,15:35:37:446,15:35:40:450,left,15:35:40:717,,2013_Jan_12_1503,59.9666424657,MP-Perception Experiment,xx30w21,
324,tmp_numprim(4)_final(5).webm,False,left,2,training(38).webm,0,5,5,40,,,,,,,,15:35:41:396,15:35:42:218,15:35:45:220,left,15:35:45:520,,2013_Jan_12_1503,59.9666424657,MP-Perception Experiment,xx30w21,
325,training(10).webm,False,right,2,vcgpdm_dyn(10)-lvm(25)_final(8).webm,0,6,6,118,,,,,,,,15:35:46:368,15:35:47:022,15:35:50:009,right,15:35:50:259,,2013_Jan_12_1503,59.9666424657,MP-Perception Experiment,xx30w21,
326,vcgpdm_dyn(30)-lvm(25)_final(6).webm,True,left,2,training(34).webm,0,7,7,37,,,,,,,,15:35:50:945,15:35:51:760,15:35:54:763,right,15:35:55:014,,2013_Jan_12_1503,59.9666424657,MP-Perception Experiment,xx30w21,
327,vgpdm_dyn(15)-lvm(15)_final(9).webm,False,left,2,training(34).webm,0,8,8,14,,,,,,,,15:35:55:785,15:35:56:515,15:35:59:518,right,15:35:59:835,,2013_Jan_12_1503,59.9666424657,MP-Perception Experiment,xx30w21,
328,training(2).webm,False,right,2,tmp_numprim(8)_final(3).webm,0,9,9,109,,,,,,,,15:36:00:513,15:36:01:336,15:36:04:338,left,15:36:04:539,,2013_Jan_12_1503,59.9666424657,MP-Perception Experiment,xx30w21,
329,tmp_numprim(2)_final(2).webm,True,left,2,training(15).webm,0,10,10,144,,,,,,,,15:36:05:216,15:36:06:040,15:36:09:042,left,15:36:09:292,,2013_Jan_12_1503,59.9666424657,MP-Perception Experiment,xx30w21,
330,vgpdm_dyn(10)-lvm(35)_final(3).webm,False,left,2,training(25).webm,0,11,11,48,,,,,,,,15:36:09:978,15:36:10:794,15:36:13:797,left,15:36:14:081,,2013_Jan_12_1503,59.9666424657,MP-Perception Experiment,xx30w21,
331,vcgpdm_dyn(20)-lvm(20)_final(1).webm,False,left,2,training(24).webm,0,12,12,8,,,,,,,,15:36:14:764,15:36:15:582,15:36:18:584,left,15:36:19:051,,2013_Jan_12_1503,59.9666424657,MP-Perception Experiment,xx30w21,
332,vgpdm_dyn(15)-lvm(15)_final(2).webm,False,left,2,training(5).webm,0,13,13,12,,,,,,,,15:36:19:756,15:36:20:552,15:36:23:555,left,15:36:23:788,,2013_Jan_12_1503,59.9666424657,MP-Perception Experiment,xx30w21,
333,training(36).webm,False,right,2,vcgpdm_dyn(10)-lvm(20)_final(1).webm,0,14,14,33,,,,,,,,15:36:24:476,15:36:25:290,15:36:28:290,right,15:36:28:591,,2013_Jan_12_1503,59.9666424657,MP-Perception Experiment,xx30w21,
334,dmp_npsi(40)_final(1).webm,False,left,2,training(17).webm,0,15,15,148,,,,,,,,15:36:29:270,15:36:30:093,15:36:33:095,right,15:36:33:395,,2013_Jan_12_1503,59.9666424657,MP-Perception Experiment,xx30w21,
335,vcgpdm_dyn(30)-lvm(5)_final(4).webm,True,left,2,training(39).webm,0,16,16,22,,,,,,,,15:36:34:073,15:36:34:897,15:36:37:899,right,15:36:38:082,,2013_Jan_12_1503,59.9666424657,MP-Perception Experiment,xx30w21,
336,training(40).webm,False,right,2,vcgpdm_dyn(15)-lvm(30)_final(1).webm,0,17,17,24,,,,,,,,15:36:38:759,15:36:39:584,15:36:42:571,right,15:36:42:922,,2013_Jan_12_1503,59.9666424657,MP-Perception Experiment,xx30w21,
337,training(11).webm,True,right,2,vcgpdm_dyn(25)-lvm(15)_final(2).webm,0,18,18,54,,,,,,,,15:36:43:600,15:36:44:423,15:36:47:426,right,15:36:47:943,,2013_Jan_12_1503,59.9666424657,MP-Perception Experiment,xx30w21,
338,training(17).webm,False,right,2,vcgpdm_dyn(25)-lvm(5)_final(2).webm,0,19,19,134,,,,,,,,15:36:48:621,15:36:49:444,15:36:52:447,right,15:36:52:697,,2013_Jan_12_1503,59.9666424657,MP-Perception Experiment,xx30w21,
339,training(18).webm,False,right,2,dmp_npsi(30)_final(2).webm,0,20,20,25,,,,,,,,15:36:53:528,15:36:54:198,15:36:57:201,right,15:36:57:484,,2013_Jan_12_1503,59.9666424657,MP-Perception Experiment,xx30w21,
340,training(30).webm,True,right,2,vgpdm_dyn(30)-lvm(20)_final(7).webm,0,21,21,20,,,,,,,,15:36:58:332,15:36:58:985,15:37:01:988,left,15:37:02:221,,2013_Jan_12_1503,59.9666424657,MP-Perception Experiment,xx30w21,
341,training(21).webm,False,right,2,vcgpdm_dyn(10)-lvm(35)_final(9).webm,0,22,22,78,,,,,,,,15:37:03:071,15:37:03:723,15:37:06:726,right,15:37:07:160,,2013_Jan_12_1503,59.9666424657,MP-Perception Experiment,xx30w21,
342,vcgpdm_dyn(30)-lvm(25)_final(2).webm,False,left,2,training(21).webm,0,23,23,135,,,,,,,,15:37:08:008,15:37:08:661,15:37:11:663,left,15:37:11:897,,2013_Jan_12_1503,59.9666424657,MP-Perception Experiment,xx30w21,
343,training(15).webm,False,right,2,vcgpdm_dyn(30)-lvm(15)_final(8).webm,0,24,24,53,,,,,,,,15:37:12:746,15:37:13:398,15:37:16:399,right,15:37:16:966,,2013_Jan_12_1503,59.9666424657,MP-Perception Experiment,xx30w21,
344,training(41).webm,False,right,2,vgpdm_dyn(10)-lvm(15)_final(0).webm,0,25,25,57,,,,,,,,15:37:17:606,15:37:18:467,15:37:21:470,right,15:37:21:553,,2013_Jan_12_1503,59.9666424657,MP-Perception Experiment,xx30w21,
345,vcgpdm_dyn(25)-lvm(20)_final(9).webm,False,left,2,training(15).webm,0,26,26,21,,,,,,,,15:37:22:233,15:37:23:055,15:37:26:058,left,15:37:26:274,,2013_Jan_12_1503,59.9666424657,MP-Perception Experiment,xx30w21,
346,training(8).webm,False,right,2,vcgpdm_dyn(15)-lvm(15)_final(0).webm,0,27,27,58,,,,,,,,15:37:26:977,15:37:27:776,15:37:30:763,right,15:37:31:013,,2013_Jan_12_1503,59.9666424657,MP-Perception Experiment,xx30w21,
347,training(35).webm,False,right,2,vgpdm_dyn(30)-lvm(5)_final(5).webm,0,28,28,65,,,,,,,,15:37:31:695,15:37:32:514,15:37:35:517,right,15:37:35:801,,2013_Jan_12_1503,59.9666424657,MP-Perception Experiment,xx30w21,
348,training(10).webm,False,right,2,tmp_numprim(10)_final(3).webm,0,29,29,52,,,,,,,,15:37:36:490,15:37:37:302,15:37:40:305,right,15:37:40:639,,2013_Jan_12_1503,59.9666424657,MP-Perception Experiment,xx30w21,
349,vcgpdm_dyn(10)-lvm(20)_final(7).webm,False,left,2,training(13).webm,0,30,30,88,,,,,,,,15:37:41:318,15:37:42:140,15:37:45:143,right,15:37:45:226,,2013_Jan_12_1503,59.9666424657,MP-Perception Experiment,xx30w21,
350,vcgpdm_dyn(30)-lvm(20)_final(5).webm,False,left,2,training(11).webm,0,31,31,150,,,,,,,,15:37:45:902,15:37:46:727,15:37:49:729,left,15:37:50:063,,2013_Jan_12_1503,59.9666424657,MP-Perception Experiment,xx30w21,
351,training(25).webm,False,right,2,vgpdm_dyn(35)-lvm(5)_final(4).webm,0,32,32,70,,,,,,,,15:37:50:736,15:37:51:564,15:37:54:567,right,15:37:54:850,,2013_Jan_12_1503,59.9666424657,MP-Perception Experiment,xx30w21,
352,vcgpdm_dyn(30)-lvm(35)_final(8).webm,False,left,2,training(33).webm,0,33,33,26,,,,,,,,15:37:55:525,15:37:56:351,15:37:59:355,left,15:37:59:605,,2013_Jan_12_1503,59.9666424657,MP-Perception Experiment,xx30w21,
353,vcgpdm_dyn(15)-lvm(25)_final(1).webm,False,left,2,training(31).webm,0,34,34,153,,,,,,,,15:38:00:284,15:38:01:106,15:38:04:109,left,15:38:04:426,,2013_Jan_12_1503,59.9666424657,MP-Perception Experiment,xx30w21,
354,vgpdm_dyn(25)-lvm(35)_final(7).webm,False,left,2,training(2).webm,0,35,35,47,,,,,,,,15:38:05:106,15:38:05:942,15:38:08:928,left,15:38:09:244,,2013_Jan_12_1503,59.9666424657,MP-Perception Experiment,xx30w21,
355,training(8).webm,True,right,2,vgpdm_dyn(35)-lvm(30)_final(1).webm,0,36,36,113,,,,,,,,15:38:09:929,15:38:10:746,15:38:13:748,left,15:38:13:848,,2013_Jan_12_1503,59.9666424657,MP-Perception Experiment,xx30w21,
356,training(7).webm,True,right,2,vgpdm_dyn(20)-lvm(5)_final(4).webm,0,37,37,7,,,,,,,,15:38:14:528,15:38:15:350,15:38:18:338,right,15:38:18:571,,2013_Jan_12_1503,59.9666424657,MP-Perception Experiment,xx30w21,
357,dmp_npsi(50)_final(7).webm,False,left,2,training(39).webm,0,38,38,28,,,,,,,,15:38:19:300,15:38:20:073,15:38:23:075,right,15:38:23:325,,2013_Jan_12_1503,59.9666424657,MP-Perception Experiment,xx30w21,
358,training(6).webm,True,right,2,dmp_npsi(20)_final(9).webm,0,39,39,62,,,,,,,,15:38:24:180,15:38:24:826,15:38:27:829,right,15:38:28:079,,2013_Jan_12_1503,59.9666424657,MP-Perception Experiment,xx30w21,
359,vcgpdm_dyn(20)-lvm(35)_final(0).webm,False,left,2,training(15).webm,0,40,40,60,,,,,,,,15:38:28:759,15:38:29:580,15:38:32:584,left,15:38:32:917,,2013_Jan_12_1503,59.9666424657,MP-Perception Experiment,xx30w21,
360,vgpdm_dyn(15)-lvm(5)_final(3).webm,False,left,2,training(31).webm,0,41,41,72,,,,,,,,15:38:33:590,15:38:34:418,15:38:37:421,left,15:38:38:122,,2013_Jan_12_1503,59.9666424657,MP-Perception Experiment,xx30w21,
361,training(22).webm,False,right,2,dmp_npsi(50)_final(1).webm,0,42,42,39,,,,,,,,15:38:38:814,15:38:39:623,15:38:42:625,right,15:38:43:126,,2013_Jan_12_1503,59.9666424657,MP-Perception Experiment,xx30w21,
362,vgpdm_dyn(30)-lvm(15)_final(0).webm,False,left,2,training(22).webm,0,43,43,17,,,,,,,,15:38:43:806,15:38:44:627,15:38:47:629,left,15:38:47:980,,2013_Jan_12_1503,59.9666424657,MP-Perception Experiment,xx30w21,
363,vgpdm_dyn(35)-lvm(35)_final(2).webm,True,left,2,training(32).webm,0,44,44,107,,,,,,,,15:38:48:664,15:38:49:481,15:38:52:484,left,15:38:52:834,,2013_Jan_12_1503,59.9666424657,MP-Perception Experiment,xx30w21,
364,training(9).webm,False,right,2,vcgpdm_dyn(35)-lvm(30)_final(9).webm,0,45,45,102,,,,,,,,15:38:53:514,15:38:54:336,15:38:57:336,right,15:38:57:503,,2013_Jan_12_1503,59.9666424657,MP-Perception Experiment,xx30w21,
365,vgpdm_dyn(30)-lvm(15)_final(2).webm,False,left,2,training(39).webm,0,46,46,75,,,,,,,,15:38:58:185,15:38:59:004,15:39:02:007,left,15:39:02:357,,2013_Jan_12_1503,59.9666424657,MP-Perception Experiment,xx30w21,
366,training(38).webm,True,right,2,vcgpdm_dyn(20)-lvm(5)_final(2).webm,0,47,47,45,,,,,,,,15:39:03:203,15:39:03:858,15:39:06:861,right,15:39:07:161,,2013_Jan_12_1503,59.9666424657,MP-Perception Experiment,xx30w21,
367,training(41).webm,True,right,2,vcgpdm_dyn(30)-lvm(20)_final(8).webm,0,48,48,11,,,,,,,,15:39:08:013,15:39:08:665,15:39:11:651,left,15:39:11:784,,2013_Jan_12_1503,59.9666424657,MP-Perception Experiment,xx30w21,
368,vgpdm_dyn(15)-lvm(15)_final(7).webm,False,left,2,training(6).webm,0,49,49,152,,,,,,,,15:39:12:460,15:39:13:285,15:39:16:288,left,15:39:16:521,,2013_Jan_12_1503,59.9666424657,MP-Perception Experiment,xx30w21,
369,vgpdm_dyn(20)-lvm(15)_final(0).webm,True,left,2,training(24).webm,0,50,50,68,,,,,,,,15:39:17:194,15:39:18:022,15:39:21:025,left,15:39:21:542,,2013_Jan_12_1503,59.9666424657,MP-Perception Experiment,xx30w21,
370,vcgpdm_dyn(30)-lvm(5)_final(1).webm,False,left,2,training(0).webm,0,51,51,87,,,,,,,,15:39:22:388,15:39:23:043,15:39:26:047,right,15:39:26:297,,2013_Jan_12_1503,59.9666424657,MP-Perception Experiment,xx30w21,
371,vgpdm_dyn(30)-lvm(10)_final(4).webm,False,left,2,training(40).webm,0,52,52,44,,,,,,,,15:39:27:148,15:39:27:798,15:39:30:800,left,15:39:31:301,,2013_Jan_12_1503,59.9666424657,MP-Perception Experiment,xx30w21,
372,vgpdm_dyn(20)-lvm(15)_final(2).webm,False,left,2,training(28).webm,0,53,53,13,,,,,,,,15:39:31:977,15:39:32:802,15:39:35:805,left,15:39:36:071,,2013_Jan_12_1503,59.9666424657,MP-Perception Experiment,xx30w21,
373,vgpdm_dyn(20)-lvm(30)_final(1).webm,False,left,2,training(37).webm,0,54,54,158,,,,,,,,15:39:36:743,15:39:37:572,15:39:40:575,right,15:39:40:892,,2013_Jan_12_1503,59.9666424657,MP-Perception Experiment,xx30w21,
374,training(21).webm,True,right,2,vcgpdm_dyn(30)-lvm(10)_final(6).webm,0,55,55,157,,,,,,,,15:39:41:754,15:39:42:394,15:39:45:413,right,15:39:45:680,,2013_Jan_12_1503,59.9666424657,MP-Perception Experiment,xx30w21,
375,vgpdm_dyn(20)-lvm(5)_final(2).webm,False,left,2,training(26).webm,0,56,56,156,,,,,,,,15:39:46:378,15:39:47:196,15:39:50:199,left,15:39:50:499,,2013_Jan_12_1503,59.9666424657,MP-Perception Experiment,xx30w21,
376,vgpdm_dyn(10)-lvm(20)_final(7).webm,True,left,2,training(2).webm,0,57,57,142,,,,,,,,15:39:51:175,15:39:52:000,15:39:55:002,left,15:39:55:203,,2013_Jan_12_1503,59.9666424657,MP-Perception Experiment,xx30w21,
377,dmp_npsi(45)_final(4).webm,False,left,2,training(9).webm,0,58,58,2,,,,,,,,15:39:55:888,15:39:56:704,15:39:59:691,left,15:39:59:993,,2013_Jan_12_1503,59.9666424657,MP-Perception Experiment,xx30w21,
378,map_cgpdm_final(2).webm,True,left,2,training(37).webm,0,59,59,80,,,,,,,,15:40:00:671,15:40:01:494,15:40:04:496,left,15:40:04:696,,2013_Jan_12_1503,59.9666424657,MP-Perception Experiment,xx30w21,
379,vcgpdm_dyn(10)-lvm(5)_final(3).webm,False,left,2,training(13).webm,0,60,60,61,,,,,,,,15:40:05:383,15:40:06:198,15:40:09:200,right,15:40:09:517,,2013_Jan_12_1503,59.9666424657,MP-Perception Experiment,xx30w21,
380,vcgpdm_dyn(15)-lvm(5)_final(8).webm,False,left,2,training(17).webm,0,61,61,115,,,,,,,,15:40:10:198,15:40:11:018,15:40:14:021,left,15:40:14:338,,2013_Jan_12_1503,59.9666424657,MP-Perception Experiment,xx30w21,
381,training(18).webm,False,right,2,vcgpdm_dyn(30)-lvm(30)_final(6).webm,0,62,62,51,,,,,,,,15:40:15:020,15:40:15:839,15:40:18:842,right,15:40:19:076,,2013_Jan_12_1503,59.9666424657,MP-Perception Experiment,xx30w21,
382,training(27).webm,False,right,2,vgpdm_dyn(15)-lvm(25)_final(6).webm,0,63,63,136,,,,,,,,15:40:19:905,15:40:20:577,15:40:23:579,right,15:40:23:863,,2013_Jan_12_1503,59.9666424657,MP-Perception Experiment,xx30w21,
383,training(32).webm,True,right,2,vgpdm_dyn(35)-lvm(35)_final(0).webm,0,64,64,64,,,,,,,,15:40:24:708,15:40:25:364,15:40:28:367,right,15:40:28:850,,2013_Jan_12_1503,59.9666424657,MP-Perception Experiment,xx30w21,
384,training(17).webm,False,right,2,vcgpdm_dyn(25)-lvm(20)_final(6).webm,0,65,65,63,,,,,,,,15:40:29:697,15:40:30:351,15:40:33:354,right,15:40:33:687,,2013_Jan_12_1503,59.9666424657,MP-Perception Experiment,xx30w21,
385,training(32).webm,False,right,2,vgpdm_dyn(30)-lvm(25)_final(2).webm,0,66,66,69,,,,,,,,15:40:34:363,15:40:35:206,15:40:38:190,right,15:40:38:457,,2013_Jan_12_1503,59.9666424657,MP-Perception Experiment,xx30w21,
386,tmp_numprim(7)_final(5).webm,True,left,2,training(16).webm,0,67,67,106,,,,,,,,15:40:39:184,15:40:39:958,15:40:42:961,right,15:40:43:361,,2013_Jan_12_1503,59.9666424657,MP-Perception Experiment,xx30w21,
387,training(18).webm,True,right,2,vgpdm_dyn(10)-lvm(5)_final(9).webm,0,68,68,132,,,,,,,,15:40:44:066,15:40:44:862,15:40:47:865,right,15:40:48:082,,2013_Jan_12_1503,59.9666424657,MP-Perception Experiment,xx30w21,
388,training(0).webm,True,right,2,dmp_npsi(5)_final(5)_bad.webm,0,69,69,55,,,,,,,,15:40:48:930,15:40:49:583,15:40:52:571,right,15:40:52:972,,2013_Jan_12_1503,59.9666424657,MP-Perception Experiment,xx30w21,
389,training(31).webm,True,right,2,vcgpdm_dyn(20)-lvm(35)_final(9).webm,0,70,70,4,,,,,,,,15:40:53:656,15:40:54:473,15:40:57:475,right,15:40:57:776,,2013_Jan_12_1503,59.9666424657,MP-Perception Experiment,xx30w21,
390,training(38).webm,True,right,2,vgpdm_dyn(10)-lvm(5)_final(8).webm,0,71,71,122,,,,,,,,15:40:58:453,15:40:59:277,15:41:02:279,right,15:41:02:513,,2013_Jan_12_1503,59.9666424657,MP-Perception Experiment,xx30w21,
391,vgpdm_dyn(35)-lvm(25)_final(4).webm,False,left,2,training(32).webm,0,72,72,114,,,,,,,,15:41:03:298,15:41:04:014,15:41:07:017,left,15:41:07:250,,2013_Jan_12_1503,59.9666424657,MP-Perception Experiment,xx30w21,
392,training(0).webm,False,right,2,dmp_npsi(15)_final(6).webm,0,73,73,59,,,,,,,,15:41:07:938,15:41:08:751,15:41:11:755,right,15:41:12:155,,2013_Jan_12_1503,59.9666424657,MP-Perception Experiment,xx30w21,
393,training(21).webm,True,right,2,vgpdm_dyn(10)-lvm(20)_final(0).webm,0,74,74,146,,,,,,,,15:41:12:834,15:41:13:656,15:41:16:659,right,15:41:17:126,,2013_Jan_12_1503,59.9666424657,MP-Perception Experiment,xx30w21,
394,vcgpdm_dyn(35)-lvm(20)_final(3).webm,False,left,2,training(26).webm,0,75,75,23,,,,,,,,15:41:17:806,15:41:18:627,15:41:21:629,left,15:41:21:979,,2013_Jan_12_1503,59.9666424657,MP-Perception Experiment,xx30w21,
395,training(33).webm,True,right,2,vgpdm_dyn(25)-lvm(5)_final(1).webm,0,76,76,96,,,,,,,,15:41:22:662,15:41:23:481,15:41:26:481,right,15:41:26:732,,2013_Jan_12_1503,59.9666424657,MP-Perception Experiment,xx30w21,
396,training(29).webm,True,right,2,vcgpdm_dyn(10)-lvm(20)_final(5).webm,0,77,77,129,,,,,,,,15:41:27:409,15:41:28:234,15:41:31:236,right,15:41:31:536,,2013_Jan_12_1503,59.9666424657,MP-Perception Experiment,xx30w21,
397,training(2).webm,True,right,2,vgpdm_dyn(30)-lvm(20)_final(5).webm,0,78,78,90,,,,,,,,15:41:32:218,15:41:33:038,15:41:36:040,left,15:41:36:290,,2013_Jan_12_1503,59.9666424657,MP-Perception Experiment,xx30w21,
398,training(36).webm,True,right,2,vcgpdm_dyn(25)-lvm(10)_final(0).webm,0,79,79,74,,,,,,,,15:41:37:099,15:41:37:791,15:41:40:779,right,15:41:40:962,,2013_Jan_12_1503,59.9666424657,MP-Perception Experiment,xx30w21,
399,training(20).webm,False,right,2,vcgpdm_dyn(20)-lvm(20)_final(9).webm,0,80,80,121,,,,,,,,15:41:41:642,15:41:42:464,15:41:45:467,right,15:41:45:751,,2013_Jan_12_1503,59.9666424657,MP-Perception Experiment,xx30w21,
400,training(5).webm,True,right,2,vcgpdm_dyn(20)-lvm(15)_final(3).webm,0,81,81,140,,,,,,,,15:41:46:424,15:41:47:252,15:41:50:254,left,15:41:50:454,,2013_Jan_12_1503,59.9666424657,MP-Perception Experiment,xx30w21,
401,training(23).webm,False,right,2,dmp_npsi(25)_final(5).webm,0,82,82,119,,,,,,,,15:41:51:157,15:41:51:956,15:41:54:958,right,15:41:55:509,,2013_Jan_12_1503,59.9666424657,MP-Perception Experiment,xx30w21,
402,training(22).webm,True,right,2,tmp_numprim(8)_final(7).webm,0,83,83,16,,,,,,,,15:41:56:185,15:41:57:010,15:42:00:012,right,15:42:00:246,,2013_Jan_12_1503,59.9666424657,MP-Perception Experiment,xx30w21,
403,vcgpdm_dyn(30)-lvm(5)_final(6).webm,True,left,2,training(41).webm,0,84,84,19,,,,,,,,15:42:00:926,15:42:01:747,15:42:04:750,left,15:42:05:017,,2013_Jan_12_1503,59.9666424657,MP-Perception Experiment,xx30w21,
404,training(5).webm,False,right,2,vcgpdm_dyn(10)-lvm(30)_final(5).webm,0,85,85,99,,,,,,,,15:42:05:862,15:42:06:518,15:42:09:521,right,15:42:09:854,,2013_Jan_12_1503,59.9666424657,MP-Perception Experiment,xx30w21,
405,training(0).webm,True,right,2,vcgpdm_dyn(30)-lvm(35)_final(7).webm,0,86,86,43,,,,,,,,15:42:10:540,15:42:11:356,15:42:14:358,right,15:42:14:492,,2013_Jan_12_1503,59.9666424657,MP-Perception Experiment,xx30w21,
406,dmp_npsi(20)_final(4).webm,True,left,2,training(1).webm,0,87,87,124,,,,,,,,15:42:15:171,15:42:16:008,15:42:18:993,left,15:42:19:244,,2013_Jan_12_1503,59.9666424657,MP-Perception Experiment,xx30w21,
407,vgpdm_dyn(10)-lvm(35)_final(9).webm,False,left,2,training(23).webm,0,88,88,34,,,,,,,,15:42:19:927,15:42:20:746,15:42:23:748,left,15:42:24:032,,2013_Jan_12_1503,59.9666424657,MP-Perception Experiment,xx30w21,
408,vcgpdm_dyn(10)-lvm(15)_final(9).webm,False,left,2,training(16).webm,0,89,89,82,,,,,,,,15:42:24:711,15:42:25:533,15:42:28:521,left,15:42:29:021,,2013_Jan_12_1503,59.9666424657,MP-Perception Experiment,xx30w21,
409,dmp_npsi(50)_final(4).webm,True,left,2,training(24).webm,0,90,90,49,,,,,,,,15:42:29:702,15:42:30:522,15:42:33:524,left,15:42:33:791,,2013_Jan_12_1503,59.9666424657,MP-Perception Experiment,xx30w21,
410,vgpdm_dyn(20)-lvm(35)_final(9).webm,True,left,2,training(29).webm,0,91,91,79,,,,,,,,15:42:34:469,15:42:35:293,15:42:38:296,right,15:42:38:613,,2013_Jan_12_1503,59.9666424657,MP-Perception Experiment,xx30w21,
411,training(34).webm,True,right,2,vcgpdm_dyn(15)-lvm(35)_final(2).webm,0,92,92,94,,,,,,,,15:42:39:294,15:42:40:114,15:42:43:117,right,15:42:43:267,,2013_Jan_12_1503,59.9666424657,MP-Perception Experiment,xx30w21,
412,training(4).webm,True,right,2,tmp_numprim(3)_final(6).webm,0,93,93,139,,,,,,,,15:42:43:945,15:42:44:768,15:42:47:771,right,15:42:48:021,,2013_Jan_12_1503,59.9666424657,MP-Perception Experiment,xx30w21,
413,training(20).webm,True,right,2,vcgpdm_dyn(35)-lvm(30)_final(0).webm,0,94,94,147,,,,,,,,15:42:48:868,15:42:49:522,15:42:52:524,right,15:42:52:774,,2013_Jan_12_1503,59.9666424657,MP-Perception Experiment,xx30w21,
414,training(24).webm,False,right,2,tmp_numprim(10)_final(3).webm,0,95,95,6,,,,,,,,15:42:53:451,15:42:54:276,15:42:57:279,right,15:42:57:713,,2013_Jan_12_1503,59.9666424657,MP-Perception Experiment,xx30w21,
415,training(38).webm,True,right,2,vgpdm_dyn(35)-lvm(35)_final(2).webm,0,96,96,42,,,,,,,,15:42:58:385,15:42:59:214,15:43:02:216,right,15:43:02:367,,2013_Jan_12_1503,59.9666424657,MP-Perception Experiment,xx30w21,
416,training(30).webm,False,right,2,vcgpdm_dyn(5)-lvm(25)_final(8).webm,0,97,97,117,,,,,,,,15:43:03:218,15:43:03:868,15:43:06:868,right,15:43:07:119,,2013_Jan_12_1503,59.9666424657,MP-Perception Experiment,xx30w21,
417,training(40).webm,False,right,2,map_gpdm_final(4).webm,0,98,98,130,,,,,,,,15:43:07:962,15:43:08:620,15:43:11:622,right,15:43:11:889,,2013_Jan_12_1503,59.9666424657,MP-Perception Experiment,xx30w21,
418,training(24).webm,False,right,2,dmp_npsi(20)_final(8).webm,0,99,99,81,,,,,,,,15:43:12:576,15:43:13:391,15:43:16:394,right,15:43:16:661,,2013_Jan_12_1503,59.9666424657,MP-Perception Experiment,xx30w21,
419,training(33).webm,False,right,2,tmp_numprim(2)_final(0).webm,0,100,100,5,,,,,,,,15:43:17:344,15:43:18:162,15:43:21:149,right,15:43:21:483,,2013_Jan_12_1503,59.9666424657,MP-Perception Experiment,xx30w21,
420,training(17).webm,False,right,2,vgpdm_dyn(35)-lvm(10)_final(7).webm,0,101,101,15,,,,,,,,15:43:22:157,15:43:22:984,15:43:25:987,right,15:43:26:253,,2013_Jan_12_1503,59.9666424657,MP-Perception Experiment,xx30w21,
421,vgpdm_dyn(30)-lvm(20)_final(1).webm,True,left,2,training(7).webm,0,102,102,31,,,,,,,,15:43:26:928,15:43:27:755,15:43:30:758,left,15:43:30:875,,2013_Jan_12_1503,59.9666424657,MP-Perception Experiment,xx30w21,
422,vcgpdm_dyn(30)-lvm(25)_final(9).webm,False,left,2,training(7).webm,0,103,103,138,,,,,,,,15:43:31:554,15:43:32:376,15:43:35:379,right,15:43:35:695,,2013_Jan_12_1503,59.9666424657,MP-Perception Experiment,xx30w21,
423,training(19).webm,True,right,2,vcgpdm_dyn(20)-lvm(25)_final(1).webm,0,104,104,89,,,,,,,,15:43:36:366,15:43:37:197,15:43:40:199,right,15:43:40:466,,2013_Jan_12_1503,59.9666424657,MP-Perception Experiment,xx30w21,
424,training(28).webm,True,right,2,vgpdm_dyn(10)-lvm(15)_final(4).webm,0,105,105,127,,,,,,,,15:43:41:148,15:43:41:967,15:43:44:970,right,15:43:45:303,,2013_Jan_12_1503,59.9666424657,MP-Perception Experiment,xx30w21,
425,vgpdm_dyn(5)-lvm(10)_final(0).webm,True,left,2,training(33).webm,0,106,106,35,,,,,,,,15:43:45:977,15:43:46:804,15:43:49:808,left,15:43:50:041,,2013_Jan_12_1503,59.9666424657,MP-Perception Experiment,xx30w21,
426,vcgpdm_dyn(5)-lvm(10)_final(8).webm,True,left,2,training(20).webm,0,107,107,131,,,,,,,,15:43:50:724,15:43:51:542,15:43:54:545,left,15:43:54:778,,2013_Jan_12_1503,59.9666424657,MP-Perception Experiment,xx30w21,
427,vgpdm_dyn(30)-lvm(5)_final(0).webm,False,left,2,training(4).webm,0,108,108,38,,,,,,,,15:43:55:454,15:43:56:295,15:43:59:280,left,15:43:59:531,,2013_Jan_12_1503,59.9666424657,MP-Perception Experiment,xx30w21,
428,vgpdm_dyn(20)-lvm(30)_final(4).webm,False,left,2,training(9).webm,0,109,109,104,,,,,,,,15:44:00:206,15:44:01:032,15:44:04:034,right,15:44:04:151,,2013_Jan_12_1503,59.9666424657,MP-Perception Experiment,xx30w21,
429,training(24).webm,True,right,2,vcgpdm_dyn(25)-lvm(15)_final(6).webm,0,110,110,73,,,,,,,,15:44:05:015,15:44:05:653,15:44:08:641,left,15:44:08:858,,2013_Jan_12_1503,59.9666424657,MP-Perception Experiment,xx30w21,
430,vgpdm_dyn(30)-lvm(30)_final(2).webm,True,left,2,training(36).webm,0,111,111,111,,,,,,,,15:44:09:686,15:44:10:359,15:44:13:361,left,15:44:13:545,,2013_Jan_12_1503,59.9666424657,MP-Perception Experiment,xx30w21,
431,vcgpdm_dyn(10)-lvm(35)_final(7).webm,False,left,2,training(14).webm,0,112,112,141,,,,,,,,15:44:14:221,15:44:15:046,15:44:18:048,left,15:44:18:315,,2013_Jan_12_1503,59.9666424657,MP-Perception Experiment,xx30w21,
432,training(9).webm,False,right,2,tmp_numprim(3)_final(6).webm,0,113,113,151,,,,,,,,15:44:18:993,15:44:19:816,15:44:22:820,right,15:44:23:070,,2013_Jan_12_1503,59.9666424657,MP-Perception Experiment,xx30w21,
433,vgpdm_dyn(20)-lvm(30)_final(2).webm,True,left,2,training(19).webm,0,114,114,123,,,,,,,,15:44:23:752,15:44:24:571,15:44:27:574,right,15:44:27:907,,2013_Jan_12_1503,59.9666424657,MP-Perception Experiment,xx30w21,
434,training(32).webm,False,right,2,vcgpdm_dyn(35)-lvm(10)_final(1).webm,0,115,115,50,,,,,,,,15:44:28:583,15:44:29:408,15:44:32:411,right,15:44:32:478,,2013_Jan_12_1503,59.9666424657,MP-Perception Experiment,xx30w21,
435,training(34).webm,False,right,2,vcgpdm_dyn(10)-lvm(25)_final(0).webm,0,116,116,71,,,,,,,,15:44:33:238,15:44:33:979,15:44:36:981,right,15:44:37:115,,2013_Jan_12_1503,59.9666424657,MP-Perception Experiment,xx30w21,
436,vcgpdm_dyn(10)-lvm(10)_final(2).webm,True,left,2,training(30).webm,0,117,117,145,,,,,,,,15:44:37:791,15:44:38:616,15:44:41:619,left,15:44:41:903,,2013_Jan_12_1503,59.9666424657,MP-Perception Experiment,xx30w21,
437,vcgpdm_dyn(30)-lvm(30)_final(8).webm,True,left,2,training(3).webm,0,118,118,27,,,,,,,,15:44:42:628,15:44:43:404,15:44:46:405,left,15:44:46:555,,2013_Jan_12_1503,59.9666424657,MP-Perception Experiment,xx30w21,
438,training(22).webm,False,right,2,vcgpdm_dyn(20)-lvm(30)_final(6).webm,0,119,119,128,,,,,,,,15:44:47:231,15:44:48:056,15:44:51:058,right,15:44:51:075,,2013_Jan_12_1503,59.9666424657,MP-Perception Experiment,xx30w21,
439,vgpdm_dyn(5)-lvm(30)_final(2).webm,False,left,2,training(29).webm,0,120,120,137,,,,,,,,15:44:51:753,15:44:52:576,15:44:55:579,right,15:44:55:829,,2013_Jan_12_1503,59.9666424657,MP-Perception Experiment,xx30w21,
440,training(12).webm,True,right,2,vgpdm_dyn(35)-lvm(5)_final(5).webm,0,121,121,18,,,,,,,,15:44:56:677,15:44:57:331,15:45:00:319,right,15:45:00:552,,2013_Jan_12_1503,59.9666424657,MP-Perception Experiment,xx30w21,
441,training(9).webm,False,right,2,vgpdm_dyn(20)-lvm(15)_final(0).webm,0,122,122,143,,,,,,,,15:45:01:226,15:45:02:053,15:45:05:056,right,15:45:05:123,,2013_Jan_12_1503,59.9666424657,MP-Perception Experiment,xx30w21,
442,training(35).webm,False,right,2,vgpdm_dyn(15)-lvm(5)_final(4).webm,0,123,123,149,,,,,,,,15:45:05:828,15:45:06:624,15:45:09:626,right,15:45:09:926,,2013_Jan_12_1503,59.9666424657,MP-Perception Experiment,xx30w21,
443,vgpdm_dyn(30)-lvm(30)_final(5).webm,True,left,2,training(31).webm,0,124,124,10,,,,,,,,15:45:10:604,15:45:11:428,15:45:14:431,left,15:45:14:698,,2013_Jan_12_1503,59.9666424657,MP-Perception Experiment,xx30w21,
444,dmp_npsi(45)_final(8).webm,True,left,2,training(26).webm,0,125,125,110,,,,,,,,15:45:15:380,15:45:16:199,15:45:19:202,left,15:45:19:452,,2013_Jan_12_1503,59.9666424657,MP-Perception Experiment,xx30w21,
445,training(4).webm,True,right,2,vgpdm_dyn(5)-lvm(30)_final(2).webm,0,126,126,91,,,,,,,,15:45:20:129,15:45:20:953,15:45:23:956,right,15:45:24:256,,2013_Jan_12_1503,59.9666424657,MP-Perception Experiment,xx30w21,
446,training(8).webm,True,right,2,dmp_npsi(40)_final(4).webm,0,127,127,86,,,,,,,,15:45:25:072,15:45:25:757,15:45:28:759,right,15:45:28:976,,2013_Jan_12_1503,59.9666424657,MP-Perception Experiment,xx30w21,
447,vgpdm_dyn(35)-lvm(20)_final(3)_out_of_screen.webm,False,left,2,training(23).webm,0,128,128,46,,,,,,,,15:45:29:826,15:45:30:477,15:45:33:481,left,15:45:33:748,,2013_Jan_12_1503,59.9666424657,MP-Perception Experiment,xx30w21,
448,training(48).webm,False,right,2,map_cgpdm_final(7).webm,0,129,129,77,,,,,,,,15:45:34:606,15:45:35:249,15:45:38:250,right,15:45:38:583,,2013_Jan_12_1503,59.9666424657,MP-Perception Experiment,xx30w21,
449,tmp_numprim(9)_final(9).webm,True,left,2,training(41).webm,0,130,130,9,,,,,,,,15:45:39:270,15:45:40:084,15:45:43:087,left,15:45:43:320,,2013_Jan_12_1503,59.9666424657,MP-Perception Experiment,xx30w21,
450,training(20).webm,False,right,2,vcgpdm_dyn(20)-lvm(35)_final(6).webm,0,131,131,95,,,,,,,,15:45:43:996,15:45:44:821,15:45:47:824,right,15:45:48:491,,2013_Jan_12_1503,59.9666424657,MP-Perception Experiment,xx30w21,
451,training(6).webm,False,right,2,tmp_numprim(4)_final(5).webm,0,132,132,101,,,,,,,,15:45:49:166,15:45:49:993,15:45:52:981,right,15:45:53:248,,2013_Jan_12_1503,59.9666424657,MP-Perception Experiment,xx30w21,
452,tmp_numprim(5)_final(0).webm,False,left,2,training(33).webm,0,133,133,112,,,,,,,,15:45:54:012,15:45:54:749,15:45:57:752,left,15:45:58:018,,2013_Jan_12_1503,59.9666424657,MP-Perception Experiment,xx30w21,
453,training(19).webm,True,right,2,vgpdm_dyn(25)-lvm(35)_final(2).webm,0,134,134,83,,,,,,,,15:45:58:701,15:45:59:519,15:46:02:522,left,15:46:03:189,,2013_Jan_12_1503,59.9666424657,MP-Perception Experiment,xx30w21,
454,dmp_npsi(15)_final(7).webm,False,left,2,training(48).webm,0,135,135,30,,,,,,,,15:46:03:868,15:46:04:690,15:46:07:694,left,15:46:07:944,,2013_Jan_12_1503,59.9666424657,MP-Perception Experiment,xx30w21,
455,vcgpdm_dyn(10)-lvm(35)_final(9).webm,False,left,2,training(35).webm,0,136,136,85,,,,,,,,15:46:08:622,15:46:09:445,15:46:12:448,left,15:46:12:681,,2013_Jan_12_1503,59.9666424657,MP-Perception Experiment,xx30w21,
456,training(34).webm,True,right,2,vgpdm_dyn(15)-lvm(25)_final(8).webm,0,137,137,125,,,,,,,,15:46:13:391,15:46:14:182,15:46:17:185,left,15:46:17:468,,2013_Jan_12_1503,59.9666424657,MP-Perception Experiment,xx30w21,
457,training(48).webm,True,right,2,vgpdm_dyn(20)-lvm(5)_final(0).webm,0,138,138,3,,,,,,,,15:46:18:151,15:46:18:969,15:46:21:972,left,15:46:22:739,,2013_Jan_12_1503,59.9666424657,MP-Perception Experiment,xx30w21,
458,vgpdm_dyn(10)-lvm(15)_final(4).webm,False,left,2,training(30).webm,0,139,139,154,,,,,,,,15:46:23:412,15:46:24:240,15:46:27:242,left,15:46:27:542,,2013_Jan_12_1503,59.9666424657,MP-Perception Experiment,xx30w21,
459,vgpdm_dyn(30)-lvm(35)_final(0).webm,False,left,2,training(19).webm,0,140,140,100,,,,,,,,15:46:28:216,15:46:29:043,15:46:32:046,left,15:46:32:179,,2013_Jan_12_1503,59.9666424657,MP-Perception Experiment,xx30w21,
460,training(0).webm,False,right,2,vgpdm_dyn(10)-lvm(10)_final(6).webm,0,141,141,105,,,,,,,,15:46:33:027,15:46:33:681,15:46:36:683,right,15:46:36:917,,2013_Jan_12_1503,59.9666424657,MP-Perception Experiment,xx30w21,
461,training(26).webm,True,right,2,tmp_numprim(5)_final(6).webm,0,142,142,97,,,,,,,,15:46:37:764,15:46:38:420,15:46:41:405,left,15:46:41:672,,2013_Jan_12_1503,59.9666424657,MP-Perception Experiment,xx30w21,
462,training(30).webm,False,right,2,vgpdm_dyn(30)-lvm(25)_final(2).webm,0,143,143,120,,,,,,,,15:46:42:347,15:46:43:191,15:46:46:177,left,15:46:46:427,,2013_Jan_12_1503,59.9666424657,MP-Perception Experiment,xx30w21,
463,training(25).webm,False,right,2,vcgpdm_dyn(10)-lvm(20)_final(7).webm,0,144,144,56,,,,,,,,15:46:47:102,15:46:47:928,15:46:50:931,left,15:46:51:331,,2013_Jan_12_1503,59.9666424657,MP-Perception Experiment,xx30w21,
464,training(21).webm,True,right,2,vgpdm_dyn(30)-lvm(30)_final(5).webm,0,145,145,103,,,,,,,,15:46:52:008,15:46:52:832,15:46:55:835,left,15:46:56:118,,2013_Jan_12_1503,59.9666424657,MP-Perception Experiment,xx30w21,
465,training(5).webm,False,right,2,vgpdm_dyn(20)-lvm(10)_final(2)_out_of_screen.webm,0,146,146,155,,,,,,,,15:46:56:963,15:46:57:619,15:47:00:623,right,15:47:00:840,,2013_Jan_12_1503,59.9666424657,MP-Perception Experiment,xx30w21,
466,training(41).webm,False,right,2,vgpdm_dyn(15)-lvm(30)_final(2).webm,0,147,147,36,,,,,,,,15:47:01:525,15:47:02:341,15:47:05:343,right,15:47:05:577,,2013_Jan_12_1503,59.9666424657,MP-Perception Experiment,xx30w21,
467,vgpdm_dyn(10)-lvm(5)_final(4).webm,False,left,2,training(34).webm,0,148,148,92,,,,,,,,15:47:06:253,15:47:07:078,15:47:10:081,left,15:47:10:264,,2013_Jan_12_1503,59.9666424657,MP-Perception Experiment,xx30w21,
468,training(0).webm,True,right,2,vgpdm_dyn(25)-lvm(5)_final(1).webm,0,149,149,32,,,,,,,,15:47:10:940,15:47:11:765,15:47:14:768,right,15:47:14:968,,2013_Jan_12_1503,59.9666424657,MP-Perception Experiment,xx30w21,
