trial_number,right,flipped,correct,block,left,trials.thisRepN,trials.thisTrialN,trials.thisN,trials.thisIndex,flipwelcome.keys,flipwelcome.corr,flipwelcome.rt,flippreparations.keys,flippreparations.rt,flipInstructions.keys,flipInstructions.rt,time_at_fixation_cross_onset,time_at_videoonset,time_at_videoend,participant_key_response,time_at_key_response,key_resp_4.keys,date,frameRate,expName,participant,
,,,,,,,,,,space,0,119.654110527,,,,,,,,,,,2013_Jan_13_1010,59.9492109003,MP-Perception Experiment,xx31w44,
,,,,,,,,,,,,,space,11.0929558139,,,,,,,,,2013_Jan_13_1010,59.9492109003,MP-Perception Experiment,xx31w44,
,,,,,,,,,,,,,,,space,8.97448996955,,,,,,,2013_Jan_13_1010,59.9492109003,MP-Perception Experiment,xx31w44,
1,training(3).webm,False,right,0,vcgpdm_dyn(10)-lvm(20)_final(5).webm,0,0,0,72,,,,,,,,10:12:29:580,10:12:30:290,10:12:33:276,right,10:12:34:343,,2013_Jan_13_1010,59.9492109003,MP-Perception Experiment,xx31w44,
2,training(6).webm,False,right,0,vcgpdm_dyn(20)-lvm(30)_final(7).webm,0,1,1,57,,,,,,,,10:12:35:193,10:12:35:845,10:12:38:845,right,10:12:39:663,,2013_Jan_13_1010,59.9492109003,MP-Perception Experiment,xx31w44,
3,training(21).webm,False,right,0,vcgpdm_dyn(10)-lvm(30)_final(2).webm,0,2,2,9,,,,,,,,10:12:40:513,10:12:41:164,10:12:44:167,left,10:12:48:904,,2013_Jan_13_1010,59.9492109003,MP-Perception Experiment,xx31w44,
4,vcgpdm_dyn(10)-lvm(25)_final(3).webm,False,left,0,training(8).webm,0,3,3,13,,,,,,,,10:12:49:753,10:12:50:405,10:12:53:393,left,10:12:54:794,,2013_Jan_13_1010,59.9492109003,MP-Perception Experiment,xx31w44,
5,training(4).webm,True,right,0,vcgpdm_dyn(20)-lvm(35)_final(3).webm,0,4,4,78,,,,,,,,10:12:55:641,10:12:56:295,10:12:59:298,left,10:13:00:433,,2013_Jan_13_1010,59.9492109003,MP-Perception Experiment,xx31w44,
6,training(33).webm,False,right,0,vgpdm_dyn(30)-lvm(25)_final(2).webm,0,5,5,39,,,,,,,,10:13:01:119,10:13:01:934,10:13:04:937,right,10:13:05:787,,2013_Jan_13_1010,59.9492109003,MP-Perception Experiment,xx31w44,
7,training(12).webm,False,right,0,vcgpdm_dyn(5)-lvm(25)_final(0).webm,0,6,6,120,,,,,,,,10:13:06:635,10:13:07:289,10:13:10:291,right,10:13:11:575,,2013_Jan_13_1010,59.9492109003,MP-Perception Experiment,xx31w44,
8,training(25).webm,False,right,0,vgpdm_dyn(35)-lvm(10)_final(2).webm,0,7,7,117,,,,,,,,10:13:12:428,10:13:13:077,10:13:16:079,right,10:13:17:063,,2013_Jan_13_1010,59.9492109003,MP-Perception Experiment,xx31w44,
9,vcgpdm_dyn(20)-lvm(10)_final(1).webm,False,left,0,training(19).webm,0,8,8,122,,,,,,,,10:13:17:747,10:13:18:565,10:13:21:568,left,10:13:22:552,,2013_Jan_13_1010,59.9492109003,MP-Perception Experiment,xx31w44,
10,training(0).webm,True,right,0,vgpdm_dyn(10)-lvm(25)_final(3).webm,0,9,9,86,,,,,,,,10:13:23:240,10:13:24:053,10:13:27:056,left,10:13:28:405,,2013_Jan_13_1010,59.9492109003,MP-Perception Experiment,xx31w44,
11,training(21).webm,False,right,0,vcgpdm_dyn(35)-lvm(5)_final(8).webm,0,10,10,102,,,,,,,,10:13:29:086,10:13:29:906,10:13:32:909,right,10:13:34:160,,2013_Jan_13_1010,59.9492109003,MP-Perception Experiment,xx31w44,
12,training(10).webm,True,right,0,vgpdm_dyn(30)-lvm(30)_final(2).webm,0,11,11,127,,,,,,,,10:13:34:863,10:13:35:662,10:13:38:664,right,10:13:41:085,,2013_Jan_13_1010,59.9492109003,MP-Perception Experiment,xx31w44,
13,vcgpdm_dyn(15)-lvm(15)_final(8).webm,False,left,0,training(21).webm,0,12,12,45,,,,,,,,10:13:41:762,10:13:42:586,10:13:45:588,left,10:13:47:523,,2013_Jan_13_1010,59.9492109003,MP-Perception Experiment,xx31w44,
14,training(8).webm,True,right,0,vcgpdm_dyn(25)-lvm(10)_final(0).webm,0,13,13,28,,,,,,,,10:13:48:331,10:13:49:024,10:13:52:027,right,10:13:53:012,,2013_Jan_13_1010,59.9492109003,MP-Perception Experiment,xx31w44,
15,training(32).webm,False,right,0,vcgpdm_dyn(10)-lvm(5)_final(1).webm,0,14,14,56,,,,,,,,10:13:53:696,10:13:54:513,10:13:57:516,right,10:13:59:217,,2013_Jan_13_1010,59.9492109003,MP-Perception Experiment,xx31w44,
16,training(25).webm,False,right,0,vgpdm_dyn(20)-lvm(15)_final(7).webm,0,15,15,103,,,,,,,,10:13:59:896,10:14:00:718,10:14:03:721,right,10:14:08:241,,2013_Jan_13_1010,59.9492109003,MP-Perception Experiment,xx31w44,
17,training(30).webm,True,right,0,vcgpdm_dyn(10)-lvm(35)_final(7).webm,0,16,16,97,,,,,,,,10:14:09:087,10:14:09:742,10:14:12:746,right,10:14:13:513,,2013_Jan_13_1010,59.9492109003,MP-Perception Experiment,xx31w44,
18,training(22).webm,True,right,0,dmp_npsi(15)_final(9).webm,0,17,17,23,,,,,,,,10:14:14:195,10:14:15:014,10:14:18:017,right,10:14:18:715,,2013_Jan_13_1010,59.9492109003,MP-Perception Experiment,xx31w44,
19,vcgpdm_dyn(5)-lvm(20)_final(1).webm,True,left,0,training(14).webm,0,18,18,89,,,,,,,,10:14:19:492,10:14:20:216,10:14:23:219,left,10:14:23:769,,2013_Jan_13_1010,59.9492109003,MP-Perception Experiment,xx31w44,
20,training(23).webm,False,right,0,vcgpdm_dyn(25)-lvm(30)_final(4).webm,0,19,19,125,,,,,,,,10:14:24:617,10:14:25:270,10:14:28:274,right,10:14:29:325,,2013_Jan_13_1010,59.9492109003,MP-Perception Experiment,xx31w44,
21,training(13).webm,False,right,0,vgpdm_dyn(30)-lvm(25)_final(1).webm,0,20,20,74,,,,,,,,10:14:30:007,10:14:30:828,10:14:33:813,right,10:14:34:264,,2013_Jan_13_1010,59.9492109003,MP-Perception Experiment,xx31w44,
22,training(29).webm,False,right,0,vcgpdm_dyn(10)-lvm(20)_final(9).webm,0,21,21,17,,,,,,,,10:14:35:001,10:14:35:765,10:14:38:768,right,10:14:39:368,,2013_Jan_13_1010,59.9492109003,MP-Perception Experiment,xx31w44,
23,vcgpdm_dyn(10)-lvm(5)_final(2).webm,True,left,0,training(6).webm,0,22,22,25,,,,,,,,10:14:40:134,10:14:40:869,10:14:43:872,left,10:14:44:539,,2013_Jan_13_1010,59.9492109003,MP-Perception Experiment,xx31w44,
24,vgpdm_dyn(35)-lvm(25)_final(2).webm,True,left,0,training(48).webm,0,23,23,67,,,,,,,,10:14:45:224,10:14:46:041,10:14:49:043,left,10:14:49:744,,2013_Jan_13_1010,59.9492109003,MP-Perception Experiment,xx31w44,
25,vcgpdm_dyn(25)-lvm(35)_final(9).webm,False,left,0,training(22).webm,0,24,24,142,,,,,,,,10:14:50:503,10:14:51:245,10:14:54:248,left,10:14:55:048,,2013_Jan_13_1010,59.9492109003,MP-Perception Experiment,xx31w44,
26,vcgpdm_dyn(5)-lvm(10)_final(3).webm,False,left,0,training(48).webm,0,25,25,75,,,,,,,,10:14:55:723,10:14:56:549,10:14:59:552,left,10:15:00:186,,2013_Jan_13_1010,59.9492109003,MP-Perception Experiment,xx31w44,
27,vcgpdm_dyn(30)-lvm(15)_final(2).webm,False,left,0,training(25).webm,0,26,26,145,,,,,,,,10:15:00:908,10:15:01:687,10:15:04:690,left,10:15:05:341,,2013_Jan_13_1010,59.9492109003,MP-Perception Experiment,xx31w44,
28,vgpdm_dyn(5)-lvm(30)_final(3).webm,False,left,0,training(1).webm,0,27,27,94,,,,,,,,10:15:06:027,10:15:06:842,10:15:09:843,left,10:15:10:410,,2013_Jan_13_1010,59.9492109003,MP-Perception Experiment,xx31w44,
29,training(13).webm,True,right,0,dmp_npsi(35)_final(6).webm,0,28,28,115,,,,,,,,10:15:11:086,10:15:11:911,10:15:14:914,left,10:15:15:614,,2013_Jan_13_1010,59.9492109003,MP-Perception Experiment,xx31w44,
30,training(36).webm,True,right,0,vcgpdm_dyn(10)-lvm(15)_final(5).webm,0,29,29,111,,,,,,,,10:15:16:291,10:15:17:115,10:15:20:119,left,10:15:22:839,,2013_Jan_13_1010,59.9492109003,MP-Perception Experiment,xx31w44,
31,vcgpdm_dyn(5)-lvm(15)_final(8).webm,False,left,0,training(15).webm,0,30,30,153,,,,,,,,10:15:23:514,10:15:24:340,10:15:27:343,left,10:15:28:194,,2013_Jan_13_1010,59.9492109003,MP-Perception Experiment,xx31w44,
32,training(13).webm,False,right,0,tmp_numprim(3)_final(4).webm,0,31,31,68,,,,,,,,10:15:29:036,10:15:29:695,10:15:32:697,right,10:15:33:381,,2013_Jan_13_1010,59.9492109003,MP-Perception Experiment,xx31w44,
33,training(7).webm,True,right,0,vgpdm_dyn(10)-lvm(20)_final(2).webm,0,32,32,84,,,,,,,,10:15:34:064,10:15:34:882,10:15:37:886,right,10:15:40:888,,2013_Jan_13_1010,59.9492109003,MP-Perception Experiment,xx31w44,
34,training(39).webm,False,right,0,vgpdm_dyn(20)-lvm(5)_final(2).webm,0,33,33,133,,,,,,,,10:15:41:596,10:15:42:389,10:15:45:392,right,10:15:46:076,,2013_Jan_13_1010,59.9492109003,MP-Perception Experiment,xx31w44,
35,vgpdm_dyn(25)-lvm(20)_final(7).webm,False,left,0,training(33).webm,0,34,34,152,,,,,,,,10:15:46:756,10:15:47:577,10:15:50:579,right,10:15:51:163,,2013_Jan_13_1010,59.9492109003,MP-Perception Experiment,xx31w44,
36,tmp_numprim(2)_final(2).webm,True,left,0,training(5).webm,0,35,35,49,,,,,,,,10:15:52:013,10:15:52:664,10:15:55:668,left,10:15:56:385,,2013_Jan_13_1010,59.9492109003,MP-Perception Experiment,xx31w44,
37,vcgpdm_dyn(5)-lvm(10)_final(5).webm,True,left,0,training(29).webm,0,36,36,20,,,,,,,,10:15:57:154,10:15:57:886,10:16:00:887,left,10:16:01:454,,2013_Jan_13_1010,59.9492109003,MP-Perception Experiment,xx31w44,
38,vcgpdm_dyn(35)-lvm(30)_final(6).webm,False,left,0,training(15).webm,0,37,37,132,,,,,,,,10:16:02:262,10:16:02:955,10:16:05:958,left,10:16:06:558,,2013_Jan_13_1010,59.9492109003,MP-Perception Experiment,xx31w44,
39,training(11).webm,True,right,0,vcgpdm_dyn(20)-lvm(20)_final(0).webm,0,38,38,33,,,,,,,,10:16:07:402,10:16:08:059,10:16:11:062,right,10:16:15:268,,2013_Jan_13_1010,59.9492109003,MP-Perception Experiment,xx31w44,
40,vgpdm_dyn(20)-lvm(10)_final(3)_out_of_screen.webm,True,left,0,training(22).webm,0,39,39,114,,,,,,,,10:16:16:111,10:16:16:769,10:16:19:772,left,10:16:20:956,,2013_Jan_13_1010,59.9492109003,MP-Perception Experiment,xx31w44,
41,training(21).webm,False,right,0,vcgpdm_dyn(20)-lvm(20)_final(4).webm,0,40,40,37,,,,,,,,10:16:21:633,10:16:22:457,10:16:25:460,right,10:16:26:894,,2013_Jan_13_1010,59.9492109003,MP-Perception Experiment,xx31w44,
42,vcgpdm_dyn(15)-lvm(35)_final(3).webm,False,left,0,training(33).webm,0,41,41,0,,,,,,,,10:16:27:571,10:16:28:395,10:16:31:399,left,10:16:31:899,,2013_Jan_13_1010,59.9492109003,MP-Perception Experiment,xx31w44,
43,vcgpdm_dyn(10)-lvm(10)_final(7).webm,True,left,0,training(2).webm,0,42,42,124,,,,,,,,10:16:32:580,10:16:33:400,10:16:36:403,left,10:16:36:920,,2013_Jan_13_1010,59.9492109003,MP-Perception Experiment,xx31w44,
44,tmp_numprim(8)_final(6).webm,True,left,0,training(10).webm,0,43,43,138,,,,,,,,10:16:37:599,10:16:38:438,10:16:41:424,left,10:16:42:024,,2013_Jan_13_1010,59.9492109003,MP-Perception Experiment,xx31w44,
45,vcgpdm_dyn(10)-lvm(10)_final(7).webm,False,left,0,training(11).webm,0,44,44,38,,,,,,,,10:16:42:702,10:16:43:525,10:16:46:528,left,10:16:47:045,,2013_Jan_13_1010,59.9492109003,MP-Perception Experiment,xx31w44,
46,vgpdm_dyn(15)-lvm(5)_final(5).webm,False,left,0,training(21).webm,0,45,45,12,,,,,,,,10:16:47:748,10:16:48:562,10:16:51:548,right,10:16:52:899,,2013_Jan_13_1010,59.9492109003,MP-Perception Experiment,xx31w44,
47,training(26).webm,False,right,0,vgpdm_dyn(10)-lvm(35)_final(2).webm,0,46,46,96,,,,,,,,10:16:53:579,10:16:54:400,10:16:57:402,right,10:16:57:886,,2013_Jan_13_1010,59.9492109003,MP-Perception Experiment,xx31w44,
48,training(14).webm,False,right,0,vgpdm_dyn(5)-lvm(20)_final(8).webm,0,47,47,109,,,,,,,,10:16:58:562,10:16:59:387,10:17:02:375,right,10:17:03:209,,2013_Jan_13_1010,59.9492109003,MP-Perception Experiment,xx31w44,
49,training(8).webm,True,right,0,dmp_npsi(20)_final(2).webm,0,48,48,90,,,,,,,,10:17:03:887,10:17:04:710,10:17:07:713,right,10:17:09:148,,2013_Jan_13_1010,59.9492109003,MP-Perception Experiment,xx31w44,
50,vgpdm_dyn(5)-lvm(10)_final(1).webm,True,left,0,training(48).webm,0,49,49,121,,,,,,,,10:17:09:912,10:17:10:649,10:17:13:652,left,10:17:14:202,,2013_Jan_13_1010,59.9492109003,MP-Perception Experiment,xx31w44,
51,training(17).webm,False,right,0,vgpdm_dyn(30)-lvm(15)_final(0).webm,0,50,50,88,,,,,,,,10:17:14:883,10:17:15:703,10:17:18:706,right,10:17:19:406,,2013_Jan_13_1010,59.9492109003,MP-Perception Experiment,xx31w44,
52,training(37).webm,False,right,0,dmp_npsi(40)_final(1).webm,0,51,51,155,,,,,,,,10:17:20:251,10:17:20:907,10:17:23:911,right,10:17:25:128,,2013_Jan_13_1010,59.9492109003,MP-Perception Experiment,xx31w44,
53,map_gpdm_final(9).webm,False,left,0,training(2).webm,0,52,52,147,,,,,,,,10:17:25:806,10:17:26:630,10:17:29:632,left,10:17:30:216,,2013_Jan_13_1010,59.9492109003,MP-Perception Experiment,xx31w44,
54,vcgpdm_dyn(25)-lvm(30)_final(5).webm,False,left,0,training(0).webm,0,53,53,30,,,,,,,,10:17:31:054,10:17:31:717,10:17:34:720,left,10:17:35:687,,2013_Jan_13_1010,59.9492109003,MP-Perception Experiment,xx31w44,
55,training(5).webm,True,right,0,map_cgpdm_final(6).webm,0,54,54,87,,,,,,,,10:17:36:536,10:17:37:188,10:17:40:190,right,10:17:40:673,,2013_Jan_13_1010,59.9492109003,MP-Perception Experiment,xx31w44,
56,vgpdm_dyn(15)-lvm(20)_final(5)_out_of_screen.webm,False,left,0,training(3).webm,0,55,55,31,,,,,,,,10:17:41:351,10:17:42:175,10:17:45:177,left,10:17:46:445,,2013_Jan_13_1010,59.9492109003,MP-Perception Experiment,xx31w44,
57,dmp_npsi(15)_final(0).webm,True,left,0,training(0).webm,0,56,56,41,,,,,,,,10:17:47:123,10:17:47:946,10:17:50:934,left,10:17:51:367,,2013_Jan_13_1010,59.9492109003,MP-Perception Experiment,xx31w44,
58,dmp_npsi(45)_final(8).webm,True,left,0,training(17).webm,0,57,57,43,,,,,,,,10:17:52:072,10:17:52:868,10:17:55:871,left,10:17:56:471,,2013_Jan_13_1010,59.9492109003,MP-Perception Experiment,xx31w44,
59,training(26).webm,False,right,0,tmp_numprim(4)_final(5).webm,0,58,58,83,,,,,,,,10:17:57:276,10:17:57:973,10:18:00:976,right,10:18:01:660,,2013_Jan_13_1010,59.9492109003,MP-Perception Experiment,xx31w44,
60,vgpdm_dyn(25)-lvm(5)_final(3).webm,True,left,0,training(40).webm,0,59,59,7,,,,,,,,10:18:02:493,10:18:03:161,10:18:06:164,left,10:18:07:131,,2013_Jan_13_1010,59.9492109003,MP-Perception Experiment,xx31w44,
61,vgpdm_dyn(15)-lvm(25)_final(0).webm,True,left,0,training(41).webm,0,60,60,63,,,,,,,,10:18:07:974,10:18:08:632,10:18:11:635,left,10:18:12:252,,2013_Jan_13_1010,59.9492109003,MP-Perception Experiment,xx31w44,
62,vgpdm_dyn(35)-lvm(30)_final(5).webm,False,left,0,training(27).webm,0,61,61,136,,,,,,,,10:18:12:927,10:18:13:753,10:18:16:756,right,10:18:19:325,,2013_Jan_13_1010,59.9492109003,MP-Perception Experiment,xx31w44,
63,training(26).webm,True,right,0,tmp_numprim(6)_final(6).webm,0,62,62,2,,,,,,,,10:18:20:005,10:18:20:826,10:18:23:829,right,10:18:24:413,,2013_Jan_13_1010,59.9492109003,MP-Perception Experiment,xx31w44,
64,vgpdm_dyn(25)-lvm(30)_final(4).webm,True,left,0,training(12).webm,0,63,63,119,,,,,,,,10:18:25:083,10:18:25:914,10:18:28:914,left,10:18:29:431,,2013_Jan_13_1010,59.9492109003,MP-Perception Experiment,xx31w44,
65,map_gpdm_final(0).webm,False,left,0,training(17).webm,0,64,64,157,,,,,,,,10:18:30:105,10:18:30:933,10:18:33:936,left,10:18:34:403,,2013_Jan_13_1010,59.9492109003,MP-Perception Experiment,xx31w44,
66,vgpdm_dyn(20)-lvm(20)_final(0).webm,False,left,0,training(4).webm,0,65,65,93,,,,,,,,10:18:35:080,10:18:35:904,10:18:38:907,right,10:18:44:096,,2013_Jan_13_1010,59.9492109003,MP-Perception Experiment,xx31w44,
67,training(15).webm,False,right,0,vcgpdm_dyn(15)-lvm(5)_final(7).webm,0,66,66,112,,,,,,,,10:18:44:935,10:18:45:597,10:18:48:600,right,10:18:50:869,,2013_Jan_13_1010,59.9492109003,MP-Perception Experiment,xx31w44,
68,training(29).webm,True,right,0,vcgpdm_dyn(30)-lvm(20)_final(1).webm,0,67,67,65,,,,,,,,10:18:51:550,10:18:52:370,10:18:55:373,left,10:18:56:757,,2013_Jan_13_1010,59.9492109003,MP-Perception Experiment,xx31w44,
69,training(39).webm,False,right,0,vcgpdm_dyn(25)-lvm(15)_final(4).webm,0,68,68,35,,,,,,,,10:18:57:592,10:18:58:258,10:19:01:261,right,10:19:02:028,,2013_Jan_13_1010,59.9492109003,MP-Perception Experiment,xx31w44,
70,vgpdm_dyn(10)-lvm(35)_final(3).webm,True,left,0,training(30).webm,0,69,69,129,,,,,,,,10:19:02:704,10:19:03:529,10:19:06:532,left,10:19:08:268,,2013_Jan_13_1010,59.9492109003,MP-Perception Experiment,xx31w44,
71,dmp_npsi(45)_final(5).webm,True,left,0,training(11).webm,0,70,70,32,,,,,,,,10:19:08:948,10:19:09:769,10:19:12:771,left,10:19:13:372,,2013_Jan_13_1010,59.9492109003,MP-Perception Experiment,xx31w44,
72,training(24).webm,True,right,0,vcgpdm_dyn(10)-lvm(10)_final(9).webm,0,71,71,158,,,,,,,,10:19:14:051,10:19:14:873,10:19:17:875,left,10:19:18:774,,2013_Jan_13_1010,59.9492109003,MP-Perception Experiment,xx31w44,
73,training(35).webm,False,right,0,vgpdm_dyn(10)-lvm(20)_final(2).webm,0,72,72,131,,,,,,,,10:19:19:498,10:19:20:275,10:19:23:278,right,10:19:24:579,,2013_Jan_13_1010,59.9492109003,MP-Perception Experiment,xx31w44,
74,vcgpdm_dyn(5)-lvm(20)_final(9).webm,False,left,0,training(8).webm,0,73,73,62,,,,,,,,10:19:25:253,10:19:26:081,10:19:29:084,right,10:19:30:053,,2013_Jan_13_1010,59.9492109003,MP-Perception Experiment,xx31w44,
75,training(19).webm,True,right,0,vcgpdm_dyn(15)-lvm(10)_final(9).webm,0,74,74,1,,,,,,,,10:19:30:728,10:19:31:554,10:19:34:557,left,10:19:36:475,,2013_Jan_13_1010,59.9492109003,MP-Perception Experiment,xx31w44,
76,training(14).webm,False,right,0,vgpdm_dyn(30)-lvm(15)_final(7).webm,0,75,75,16,,,,,,,,10:19:37:306,10:19:37:976,10:19:40:978,right,10:19:42:046,,2013_Jan_13_1010,59.9492109003,MP-Perception Experiment,xx31w44,
77,vcgpdm_dyn(30)-lvm(10)_final(8).webm,True,left,0,training(28).webm,0,76,76,59,,,,,,,,10:19:42:732,10:19:43:548,10:19:46:567,left,10:19:48:636,,2013_Jan_13_1010,59.9492109003,MP-Perception Experiment,xx31w44,
78,training(24).webm,True,right,0,vcgpdm_dyn(5)-lvm(10)_final(5).webm,0,77,77,15,,,,,,,,10:19:49:311,10:19:50:137,10:19:53:139,left,10:19:54:057,,2013_Jan_13_1010,59.9492109003,MP-Perception Experiment,xx31w44,
79,training(2).webm,False,right,0,vgpdm_dyn(10)-lvm(15)_final(7).webm,0,78,78,77,,,,,,,,10:19:54:735,10:19:55:558,10:19:58:560,right,10:20:01:013,,2013_Jan_13_1010,59.9492109003,MP-Perception Experiment,xx31w44,
80,vgpdm_dyn(20)-lvm(15)_final(2).webm,True,left,0,training(28).webm,0,79,79,73,,,,,,,,10:20:01:717,10:20:02:514,10:20:05:517,right,10:20:07:135,,2013_Jan_13_1010,59.9492109003,MP-Perception Experiment,xx31w44,
81,training(32).webm,True,right,0,vgpdm_dyn(20)-lvm(35)_final(2).webm,0,80,80,71,,,,,,,,10:20:07:814,10:20:08:651,10:20:11:637,left,10:20:12:187,,2013_Jan_13_1010,59.9492109003,MP-Perception Experiment,xx31w44,
82,training(14).webm,True,right,0,vcgpdm_dyn(25)-lvm(10)_final(1).webm,0,81,81,47,,,,,,,,10:20:12:868,10:20:13:688,10:20:16:691,right,10:20:17:492,,2013_Jan_13_1010,59.9492109003,MP-Perception Experiment,xx31w44,
83,training(35).webm,True,right,0,vgpdm_dyn(30)-lvm(10)_final(1).webm,0,82,82,79,,,,,,,,10:20:18:175,10:20:18:994,10:20:21:981,left,10:20:22:848,,2013_Jan_13_1010,59.9492109003,MP-Perception Experiment,xx31w44,
84,vgpdm_dyn(30)-lvm(5)_final(7).webm,True,left,0,training(26).webm,0,83,83,110,,,,,,,,10:20:23:612,10:20:24:350,10:20:27:352,left,10:20:28:820,,2013_Jan_13_1010,59.9492109003,MP-Perception Experiment,xx31w44,
85,tmp_numprim(6)_final(5).webm,False,left,0,training(37).webm,0,84,84,151,,,,,,,,10:20:29:676,10:20:30:321,10:20:33:340,left,10:20:34:675,,2013_Jan_13_1010,59.9492109003,MP-Perception Experiment,xx31w44,
86,map_cgpdm_final(2).webm,False,left,0,training(12).webm,0,85,85,55,,,,,,,,10:20:35:357,10:20:36:177,10:20:39:179,left,10:20:39:830,,2013_Jan_13_1010,59.9492109003,MP-Perception Experiment,xx31w44,
87,training(25).webm,True,right,0,vgpdm_dyn(5)-lvm(10)_final(8).webm,0,86,86,14,,,,,,,,10:20:40:674,10:20:41:331,10:20:44:334,right,10:20:45:034,,2013_Jan_13_1010,59.9492109003,MP-Perception Experiment,xx31w44,
88,tmp_numprim(8)_final(7).webm,False,left,0,training(39).webm,0,87,87,70,,,,,,,,10:20:45:714,10:20:46:535,10:20:49:538,left,10:20:50:438,,2013_Jan_13_1010,59.9492109003,MP-Perception Experiment,xx31w44,
89,vcgpdm_dyn(25)-lvm(20)_final(1).webm,True,left,0,training(23).webm,0,88,88,53,,,,,,,,10:20:51:205,10:20:51:940,10:20:54:943,right,10:20:57:695,,2013_Jan_13_1010,59.9492109003,MP-Perception Experiment,xx31w44,
90,tmp_numprim(3)_final(0).webm,True,left,0,training(21).webm,0,89,89,76,,,,,,,,10:20:58:372,10:20:59:211,10:21:02:197,left,10:21:02:731,,2013_Jan_13_1010,59.9492109003,MP-Perception Experiment,xx31w44,
91,vgpdm_dyn(25)-lvm(5)_final(4).webm,True,left,0,training(9).webm,0,90,90,11,,,,,,,,10:21:03:437,10:21:04:232,10:21:07:235,left,10:21:08:269,,2013_Jan_13_1010,59.9492109003,MP-Perception Experiment,xx31w44,
92,training(38).webm,False,right,0,vcgpdm_dyn(15)-lvm(15)_final(6).webm,0,91,91,92,,,,,,,,10:21:08:952,10:21:09:771,10:21:12:758,right,10:21:13:693,,2013_Jan_13_1010,59.9492109003,MP-Perception Experiment,xx31w44,
93,vgpdm_dyn(30)-lvm(10)_final(5).webm,True,left,0,training(41).webm,0,92,92,143,,,,,,,,10:21:14:371,10:21:15:194,10:21:18:196,left,10:21:18:580,,2013_Jan_13_1010,59.9492109003,MP-Perception Experiment,xx31w44,
94,training(2).webm,True,right,0,map_gpdm_final(3).webm,0,93,93,135,,,,,,,,10:21:19:262,10:21:20:081,10:21:23:084,right,10:21:23:584,,2013_Jan_13_1010,59.9492109003,MP-Perception Experiment,xx31w44,
95,vcgpdm_dyn(20)-lvm(15)_final(8).webm,False,left,0,training(26).webm,0,94,94,34,,,,,,,,10:21:24:262,10:21:25:085,10:21:28:089,right,10:21:31:341,,2013_Jan_13_1010,59.9492109003,MP-Perception Experiment,xx31w44,
96,vcgpdm_dyn(30)-lvm(30)_final(2).webm,False,left,0,training(48).webm,0,95,95,19,,,,,,,,10:21:32:127,10:21:32:842,10:21:35:845,left,10:21:37:246,,2013_Jan_13_1010,59.9492109003,MP-Perception Experiment,xx31w44,
97,training(48).webm,False,right,0,dmp_npsi(25)_final(4).webm,0,96,96,52,,,,,,,,10:21:37:920,10:21:38:747,10:21:41:750,right,10:21:42:367,,2013_Jan_13_1010,59.9492109003,MP-Perception Experiment,xx31w44,
98,vcgpdm_dyn(30)-lvm(35)_final(8).webm,False,left,0,training(14).webm,0,97,97,113,,,,,,,,10:21:43:045,10:21:43:868,10:21:46:871,left,10:21:47:522,,2013_Jan_13_1010,59.9492109003,MP-Perception Experiment,xx31w44,
99,vgpdm_dyn(15)-lvm(25)_final(0).webm,False,left,0,training(0).webm,0,98,98,100,,,,,,,,10:21:48:191,10:21:49:038,10:21:52:024,right,10:21:52:591,,2013_Jan_13_1010,59.9492109003,MP-Perception Experiment,xx31w44,
100,vcgpdm_dyn(25)-lvm(20)_final(7).webm,True,left,0,training(15).webm,0,99,99,36,,,,,,,,10:21:53:352,10:21:54:092,10:21:57:094,left,10:21:58:145,,2013_Jan_13_1010,59.9492109003,MP-Perception Experiment,xx31w44,
101,tmp_numprim(8)_final(9).webm,True,left,0,training(19).webm,0,100,100,50,,,,,,,,10:21:58:828,10:21:59:646,10:22:02:635,left,10:22:03:753,,2013_Jan_13_1010,59.9492109003,MP-Perception Experiment,xx31w44,
102,dmp_npsi(25)_final(8).webm,True,left,0,training(16).webm,0,101,101,80,,,,,,,,10:22:04:460,10:22:05:254,10:22:08:256,left,10:22:08:973,,2013_Jan_13_1010,59.9492109003,MP-Perception Experiment,xx31w44,
103,vgpdm_dyn(5)-lvm(15)_final(9).webm,False,left,0,training(13).webm,0,102,102,126,,,,,,,,10:22:09:647,10:22:10:475,10:22:13:477,left,10:22:14:361,,2013_Jan_13_1010,59.9492109003,MP-Perception Experiment,xx31w44,
104,training(18).webm,True,right,0,vcgpdm_dyn(5)-lvm(15)_final(4).webm,0,103,103,24,,,,,,,,10:22:15:042,10:22:15:862,10:22:18:865,right,10:22:20:067,,2013_Jan_13_1010,59.9492109003,MP-Perception Experiment,xx31w44,
105,vcgpdm_dyn(10)-lvm(30)_final(4).webm,True,left,0,training(30).webm,0,104,104,139,,,,,,,,10:22:20:743,10:22:21:568,10:22:24:571,left,10:22:27:006,,2013_Jan_13_1010,59.9492109003,MP-Perception Experiment,xx31w44,
106,training(27).webm,False,right,0,vcgpdm_dyn(35)-lvm(35)_final(2)_bad.webm,0,105,105,137,,,,,,,,10:22:27:853,10:22:28:507,10:22:31:509,right,10:22:32:343,,2013_Jan_13_1010,59.9492109003,MP-Perception Experiment,xx31w44,
107,dmp_npsi(35)_final(6).webm,True,left,0,training(36).webm,0,106,106,60,,,,,,,,10:22:33:013,10:22:33:844,10:22:36:847,right,10:22:38:082,,2013_Jan_13_1010,59.9492109003,MP-Perception Experiment,xx31w44,
108,training(16).webm,False,right,0,vgpdm_dyn(20)-lvm(25)_final(7).webm,0,107,107,107,,,,,,,,10:22:38:920,10:22:39:598,10:22:42:584,right,10:22:43:502,,2013_Jan_13_1010,59.9492109003,MP-Perception Experiment,xx31w44,
109,vcgpdm_dyn(25)-lvm(5)_final(1).webm,True,left,0,training(37).webm,0,108,108,104,,,,,,,,10:22:44:226,10:22:45:003,10:22:48:005,left,10:22:48:656,,2013_Jan_13_1010,59.9492109003,MP-Perception Experiment,xx31w44,
110,dmp_npsi(45)_final(4).webm,False,left,0,training(8).webm,0,109,109,108,,,,,,,,10:22:49:489,10:22:50:157,10:22:53:144,right,10:22:54:663,,2013_Jan_13_1010,59.9492109003,MP-Perception Experiment,xx31w44,
111,training(31).webm,False,right,0,dmp_npsi(35)_final(9).webm,0,110,110,141,,,,,,,,10:22:55:345,10:22:56:164,10:22:59:167,right,10:22:59:968,,2013_Jan_13_1010,59.9492109003,MP-Perception Experiment,xx31w44,
112,training(8).webm,True,right,0,vcgpdm_dyn(10)-lvm(25)_final(4).webm,0,111,111,99,,,,,,,,10:23:00:645,10:23:01:469,10:23:04:471,right,10:23:05:639,,2013_Jan_13_1010,59.9492109003,MP-Perception Experiment,xx31w44,
113,training(23).webm,False,right,0,vgpdm_dyn(10)-lvm(5)_final(6).webm,0,112,112,149,,,,,,,,10:23:06:345,10:23:07:140,10:23:10:143,right,10:23:12:077,,2013_Jan_13_1010,59.9492109003,MP-Perception Experiment,xx31w44,
114,vcgpdm_dyn(20)-lvm(30)_final(6).webm,False,left,0,training(22).webm,0,113,113,98,,,,,,,,10:23:12:758,10:23:13:580,10:23:16:582,left,10:23:17:549,,2013_Jan_13_1010,59.9492109003,MP-Perception Experiment,xx31w44,
115,vgpdm_dyn(20)-lvm(35)_final(9).webm,False,left,0,training(17).webm,0,114,114,6,,,,,,,,10:23:18:231,10:23:19:067,10:23:22:053,left,10:23:25:389,,2013_Jan_13_1010,59.9492109003,MP-Perception Experiment,xx31w44,
116,vgpdm_dyn(25)-lvm(25)_final(4)_bad.webm,True,left,0,training(23).webm,0,115,115,5,,,,,,,,10:23:26:069,10:23:26:890,10:23:29:892,left,10:23:30:609,,2013_Jan_13_1010,59.9492109003,MP-Perception Experiment,xx31w44,
117,training(15).webm,False,right,0,map_gpdm_final(1).webm,0,116,116,154,,,,,,,,10:23:31:288,10:23:32:110,10:23:35:113,right,10:23:35:930,,2013_Jan_13_1010,59.9492109003,MP-Perception Experiment,xx31w44,
118,vgpdm_dyn(30)-lvm(35)_final(3).webm,False,left,0,training(18).webm,0,117,117,116,,,,,,,,10:23:36:603,10:23:37:431,10:23:40:434,left,10:23:41:351,,2013_Jan_13_1010,59.9492109003,MP-Perception Experiment,xx31w44,
119,training(8).webm,True,right,0,vgpdm_dyn(30)-lvm(10)_final(5).webm,0,118,118,123,,,,,,,,10:23:42:021,10:23:42:852,10:23:45:840,left,10:23:46:524,,2013_Jan_13_1010,59.9492109003,MP-Perception Experiment,xx31w44,
120,training(1).webm,True,right,0,vcgpdm_dyn(15)-lvm(20)_final(6).webm,0,119,119,140,,,,,,,,10:23:47:200,10:23:48:026,10:23:51:029,right,10:23:52:163,,2013_Jan_13_1010,59.9492109003,MP-Perception Experiment,xx31w44,
121,vcgpdm_dyn(10)-lvm(5)_final(4).webm,True,left,0,training(12).webm,0,120,120,91,,,,,,,,10:23:52:844,10:23:53:664,10:23:56:667,left,10:23:57:250,,2013_Jan_13_1010,59.9492109003,MP-Perception Experiment,xx31w44,
122,training(36).webm,True,right,0,vgpdm_dyn(20)-lvm(5)_final(7).webm,0,121,121,118,,,,,,,,10:23:57:928,10:23:58:751,10:24:01:754,right,10:24:02:655,,2013_Jan_13_1010,59.9492109003,MP-Perception Experiment,xx31w44,
123,training(21).webm,True,right,0,tmp_numprim(3)_final(1).webm,0,122,122,95,,,,,,,,10:24:03:333,10:24:04:156,10:24:07:159,right,10:24:08:010,,2013_Jan_13_1010,59.9492109003,MP-Perception Experiment,xx31w44,
124,vcgpdm_dyn(25)-lvm(15)_final(3).webm,True,left,0,training(33).webm,0,123,123,106,,,,,,,,10:24:08:709,10:24:09:511,10:24:12:514,right,10:24:13:181,,2013_Jan_13_1010,59.9492109003,MP-Perception Experiment,xx31w44,
125,training(39).webm,True,right,0,vgpdm_dyn(35)-lvm(20)_final(9)_out_of_screen.webm,0,124,124,64,,,,,,,,10:24:13:858,10:24:14:682,10:24:17:684,right,10:24:18:485,,2013_Jan_13_1010,59.9492109003,MP-Perception Experiment,xx31w44,
126,training(31).webm,True,right,0,vgpdm_dyn(10)-lvm(35)_final(5).webm,0,125,125,18,,,,,,,,10:24:19:184,10:24:20:001,10:24:23:005,right,10:24:23:605,,2013_Jan_13_1010,59.9492109003,MP-Perception Experiment,xx31w44,
127,training(38).webm,True,right,0,vgpdm_dyn(35)-lvm(5)_final(7).webm,0,126,126,82,,,,,,,,10:24:24:284,10:24:25:106,10:24:28:109,right,10:24:29:193,,2013_Jan_13_1010,59.9492109003,MP-Perception Experiment,xx31w44,
128,training(20).webm,False,right,0,vgpdm_dyn(25)-lvm(30)_final(3).webm,0,127,127,146,,,,,,,,10:24:30:042,10:24:30:694,10:24:33:681,right,10:24:34:299,,2013_Jan_13_1010,59.9492109003,MP-Perception Experiment,xx31w44,
129,training(14).webm,True,right,0,vgpdm_dyn(15)-lvm(5)_final(5).webm,0,128,128,27,,,,,,,,10:24:34:968,10:24:35:800,10:24:38:803,right,10:24:39:704,,2013_Jan_13_1010,59.9492109003,MP-Perception Experiment,xx31w44,
130,training(4).webm,False,right,0,vcgpdm_dyn(10)-lvm(10)_final(1).webm,0,129,129,105,,,,,,,,10:24:40:533,10:24:41:205,10:24:44:208,right,10:24:45:609,,2013_Jan_13_1010,59.9492109003,MP-Perception Experiment,xx31w44,
131,training(14).webm,True,right,0,vcgpdm_dyn(25)-lvm(35)_final(3).webm,0,130,130,46,,,,,,,,10:24:46:437,10:24:47:110,10:24:50:113,right,10:24:50:780,,2013_Jan_13_1010,59.9492109003,MP-Perception Experiment,xx31w44,
132,vcgpdm_dyn(10)-lvm(20)_final(4).webm,False,left,0,training(2).webm,0,131,131,54,,,,,,,,10:24:51:461,10:24:52:281,10:24:55:283,left,10:24:56:217,,2013_Jan_13_1010,59.9492109003,MP-Perception Experiment,xx31w44,
133,dmp_npsi(15)_final(3).webm,False,left,0,training(12).webm,0,132,132,58,,,,,,,,10:24:56:963,10:24:57:720,10:25:00:722,left,10:25:01:373,,2013_Jan_13_1010,59.9492109003,MP-Perception Experiment,xx31w44,
134,tmp_numprim(2)_final(4).webm,False,left,0,training(29).webm,0,133,133,51,,,,,,,,10:25:02:142,10:25:02:874,10:25:05:876,left,10:25:06:410,,2013_Jan_13_1010,59.9492109003,MP-Perception Experiment,xx31w44,
135,vcgpdm_dyn(25)-lvm(30)_final(5).webm,False,left,0,training(21).webm,0,134,134,130,,,,,,,,10:25:07:083,10:25:07:911,10:25:10:912,right,10:25:11:696,,2013_Jan_13_1010,59.9492109003,MP-Perception Experiment,xx31w44,
136,training(16).webm,True,right,0,vgpdm_dyn(10)-lvm(15)_final(9).webm,0,135,135,4,,,,,,,,10:25:12:542,10:25:13:197,10:25:16:201,right,10:25:20:988,,2013_Jan_13_1010,59.9492109003,MP-Perception Experiment,xx31w44,
137,vgpdm_dyn(10)-lvm(20)_final(7).webm,False,left,0,training(4).webm,0,136,136,48,,,,,,,,10:25:21:764,10:25:22:489,10:25:25:476,right,10:25:26:127,,2013_Jan_13_1010,59.9492109003,MP-Perception Experiment,xx31w44,
138,vcgpdm_dyn(35)-lvm(30)_final(1).webm,True,left,0,training(40).webm,0,137,137,10,,,,,,,,10:25:26:978,10:25:27:628,10:25:30:631,left,10:25:31:181,,2013_Jan_13_1010,59.9492109003,MP-Perception Experiment,xx31w44,
139,vgpdm_dyn(15)-lvm(5)_final(0).webm,True,left,0,training(36).webm,0,138,138,101,,,,,,,,10:25:32:023,10:25:32:683,10:25:35:686,left,10:25:36:103,,2013_Jan_13_1010,59.9492109003,MP-Perception Experiment,xx31w44,
140,training(37).webm,False,right,0,vcgpdm_dyn(5)-lvm(15)_final(8).webm,0,139,139,144,,,,,,,,10:25:36:777,10:25:37:604,10:25:40:606,right,10:25:42:091,,2013_Jan_13_1010,59.9492109003,MP-Perception Experiment,xx31w44,
141,vgpdm_dyn(20)-lvm(25)_final(9).webm,True,left,0,training(0).webm,0,140,140,44,,,,,,,,10:25:42:771,10:25:43:592,10:25:46:595,left,10:25:47:162,,2013_Jan_13_1010,59.9492109003,MP-Perception Experiment,xx31w44,
142,vcgpdm_dyn(30)-lvm(20)_final(7).webm,False,left,0,training(4).webm,0,141,141,81,,,,,,,,10:25:47:883,10:25:48:663,10:25:51:666,right,10:25:52:333,,2013_Jan_13_1010,59.9492109003,MP-Perception Experiment,xx31w44,
143,vcgpdm_dyn(25)-lvm(30)_final(2).webm,True,left,0,training(41).webm,0,142,142,148,,,,,,,,10:25:53:074,10:25:53:835,10:25:56:837,left,10:25:58:522,,2013_Jan_13_1010,59.9492109003,MP-Perception Experiment,xx31w44,
144,vcgpdm_dyn(25)-lvm(10)_final(7).webm,True,left,0,training(18).webm,0,143,143,8,,,,,,,,10:25:59:380,10:26:00:038,10:26:03:040,left,10:26:03:491,,2013_Jan_13_1010,59.9492109003,MP-Perception Experiment,xx31w44,
145,training(21).webm,False,right,0,vcgpdm_dyn(25)-lvm(20)_final(8).webm,0,144,144,128,,,,,,,,10:26:04:166,10:26:04:992,10:26:07:995,right,10:26:08:479,,2013_Jan_13_1010,59.9492109003,MP-Perception Experiment,xx31w44,
146,vcgpdm_dyn(30)-lvm(15)_final(6).webm,False,left,0,training(35).webm,0,145,145,69,,,,,,,,10:26:09:293,10:26:09:980,10:26:12:968,left,10:26:13:585,,2013_Jan_13_1010,59.9492109003,MP-Perception Experiment,xx31w44,
147,training(34).webm,False,right,0,vcgpdm_dyn(35)-lvm(15)_final(0)_out_of_screen.webm,0,146,146,22,,,,,,,,10:26:14:294,10:26:15:086,10:26:18:089,right,10:26:18:689,,2013_Jan_13_1010,59.9492109003,MP-Perception Experiment,xx31w44,
148,vgpdm_dyn(5)-lvm(5)_final(4)_out_of_screen.webm,False,left,0,training(23).webm,0,147,147,21,,,,,,,,10:26:19:366,10:26:20:190,10:26:23:193,right,10:26:25:612,,2013_Jan_13_1010,59.9492109003,MP-Perception Experiment,xx31w44,
149,vcgpdm_dyn(20)-lvm(20)_final(8).webm,False,left,0,training(3).webm,0,148,148,26,,,,,,,,10:26:26:282,10:26:27:114,10:26:30:116,left,10:26:30:633,,2013_Jan_13_1010,59.9492109003,MP-Perception Experiment,xx31w44,
150,training(31).webm,False,right,0,vgpdm_dyn(35)-lvm(30)_final(2).webm,0,149,149,134,,,,,,,,10:26:31:311,10:26:32:134,10:26:35:137,right,10:26:35:637,,2013_Jan_13_1010,59.9492109003,MP-Perception Experiment,xx31w44,
151,vgpdm_dyn(35)-lvm(10)_final(5).webm,True,left,0,training(3).webm,0,150,150,66,,,,,,,,10:26:36:282,10:26:37:138,10:26:40:141,left,10:26:40:708,,2013_Jan_13_1010,59.9492109003,MP-Perception Experiment,xx31w44,
152,vcgpdm_dyn(5)-lvm(5)_final(3).webm,True,left,0,training(17).webm,0,151,151,29,,,,,,,,10:26:41:390,10:26:42:210,10:26:45:213,left,10:26:45:680,,2013_Jan_13_1010,59.9492109003,MP-Perception Experiment,xx31w44,
153,vgpdm_dyn(5)-lvm(20)_final(4).webm,False,left,0,training(27).webm,0,152,152,61,,,,,,,,10:26:46:358,10:26:47:181,10:26:50:181,left,10:26:50:949,,2013_Jan_13_1010,59.9492109003,MP-Perception Experiment,xx31w44,
154,vgpdm_dyn(10)-lvm(15)_final(0).webm,True,left,0,training(31).webm,0,153,153,3,,,,,,,,10:26:51:625,10:26:52:450,10:26:55:452,left,10:26:56:003,,2013_Jan_13_1010,59.9492109003,MP-Perception Experiment,xx31w44,
155,training(3).webm,False,right,0,tmp_numprim(8)_final(9).webm,0,154,154,150,,,,,,,,10:26:56:673,10:26:57:521,10:27:00:507,right,10:27:01:191,,2013_Jan_13_1010,59.9492109003,MP-Perception Experiment,xx31w44,
156,vgpdm_dyn(15)-lvm(15)_final(5).webm,True,left,0,training(34).webm,0,155,155,85,,,,,,,,10:27:01:906,10:27:02:692,10:27:05:680,left,10:27:06:564,,2013_Jan_13_1010,59.9492109003,MP-Perception Experiment,xx31w44,
157,vgpdm_dyn(15)-lvm(35)_final(2).webm,True,left,0,training(21).webm,0,156,156,156,,,,,,,,10:27:07:241,10:27:08:065,10:27:11:068,right,10:27:12:619,,2013_Jan_13_1010,59.9492109003,MP-Perception Experiment,xx31w44,
158,vcgpdm_dyn(30)-lvm(25)_final(5).webm,True,left,0,training(16).webm,0,157,157,40,,,,,,,,10:27:13:298,10:27:14:120,10:27:17:124,left,10:27:17:791,,2013_Jan_13_1010,59.9492109003,MP-Perception Experiment,xx31w44,
159,training(4).webm,True,right,0,vgpdm_dyn(15)-lvm(35)_final(5).webm,0,158,158,42,,,,,,,,10:27:18:488,10:27:19:292,10:27:22:294,right,10:27:22:962,,2013_Jan_13_1010,59.9492109003,MP-Perception Experiment,xx31w44,
160,training(40).webm,False,right,1,tmp_numprim(7)_final(7).webm,0,0,0,64,,,,,,,,10:31:42:798,10:31:43:637,10:31:46:623,right,10:31:47:373,,2013_Jan_13_1010,59.9492109003,MP-Perception Experiment,xx31w44,
161,vgpdm_dyn(25)-lvm(20)_final(9).webm,False,left,1,training(41).webm,0,1,1,134,,,,,,,,10:31:48:144,10:31:48:874,10:31:51:875,left,10:31:53:760,,2013_Jan_13_1010,59.9492109003,MP-Perception Experiment,xx31w44,
162,training(3).webm,False,right,1,vcgpdm_dyn(15)-lvm(20)_final(9).webm,0,2,2,34,,,,,,,,10:31:54:440,10:31:55:261,10:31:58:265,right,10:31:59:199,,2013_Jan_13_1010,59.9492109003,MP-Perception Experiment,xx31w44,
163,training(3).webm,False,right,1,vgpdm_dyn(30)-lvm(25)_final(0).webm,0,3,3,143,,,,,,,,10:31:59:879,10:32:00:700,10:32:03:688,left,10:32:04:955,,2013_Jan_13_1010,59.9492109003,MP-Perception Experiment,xx31w44,
164,training(33).webm,True,right,1,vcgpdm_dyn(35)-lvm(5)_final(7).webm,0,4,4,116,,,,,,,,10:32:05:632,10:32:06:456,10:32:09:459,left,10:32:09:943,,2013_Jan_13_1010,59.9492109003,MP-Perception Experiment,xx31w44,
165,vgpdm_dyn(20)-lvm(30)_final(8).webm,True,left,1,training(19).webm,0,5,5,152,,,,,,,,10:32:10:757,10:32:11:444,10:32:14:447,left,10:32:14:864,,2013_Jan_13_1010,59.9492109003,MP-Perception Experiment,xx31w44,
166,training(0).webm,True,right,1,vcgpdm_dyn(15)-lvm(30)_final(5).webm,0,6,6,81,,,,,,,,10:32:15:543,10:32:16:365,10:32:19:368,right,10:32:19:968,,2013_Jan_13_1010,59.9492109003,MP-Perception Experiment,xx31w44,
167,training(48).webm,False,right,1,tmp_numprim(9)_final(6).webm,0,7,7,59,,,,,,,,10:32:20:644,10:32:21:469,10:32:24:472,right,10:32:25:223,,2013_Jan_13_1010,59.9492109003,MP-Perception Experiment,xx31w44,
168,tmp_numprim(3)_final(3).webm,False,left,1,training(14).webm,0,8,8,129,,,,,,,,10:32:25:902,10:32:26:724,10:32:29:726,left,10:32:30:377,,2013_Jan_13_1010,59.9492109003,MP-Perception Experiment,xx31w44,
169,vcgpdm_dyn(20)-lvm(15)_final(4).webm,False,left,1,training(26).webm,0,9,9,94,,,,,,,,10:32:31:053,10:32:31:879,10:32:34:881,left,10:32:35:615,,2013_Jan_13_1010,59.9492109003,MP-Perception Experiment,xx31w44,
170,training(37).webm,False,right,1,vcgpdm_dyn(20)-lvm(25)_final(9).webm,0,10,10,11,,,,,,,,10:32:36:298,10:32:37:116,10:32:40:117,right,10:32:40:651,,2013_Jan_13_1010,59.9492109003,MP-Perception Experiment,xx31w44,
171,vcgpdm_dyn(30)-lvm(5)_final(8).webm,True,left,1,training(3).webm,0,11,11,23,,,,,,,,10:32:41:330,10:32:42:152,10:32:45:155,left,10:32:46:039,,2013_Jan_13_1010,59.9492109003,MP-Perception Experiment,xx31w44,
172,vgpdm_dyn(5)-lvm(15)_final(1).webm,False,left,1,training(35).webm,0,12,12,17,,,,,,,,10:32:46:740,10:32:47:540,10:32:50:543,left,10:32:51:029,,2013_Jan_13_1010,59.9492109003,MP-Perception Experiment,xx31w44,
173,vcgpdm_dyn(15)-lvm(10)_final(9).webm,True,left,1,training(2).webm,0,13,13,75,,,,,,,,10:32:51:701,10:32:52:530,10:32:55:532,right,10:32:56:350,,2013_Jan_13_1010,59.9492109003,MP-Perception Experiment,xx31w44,
174,vcgpdm_dyn(5)-lvm(35)_final(5)_bad.webm,False,left,1,training(14).webm,0,14,14,47,,,,,,,,10:32:57:026,10:32:57:851,10:33:00:853,left,10:33:02:905,,2013_Jan_13_1010,59.9492109003,MP-Perception Experiment,xx31w44,
175,vgpdm_dyn(30)-lvm(10)_final(1).webm,True,left,1,training(1).webm,0,15,15,101,,,,,,,,10:33:03:574,10:33:04:406,10:33:07:410,left,10:33:08:077,,2013_Jan_13_1010,59.9492109003,MP-Perception Experiment,xx31w44,
176,training(48).webm,True,right,1,vgpdm_dyn(35)-lvm(10)_final(5).webm,0,16,16,73,,,,,,,,10:33:08:750,10:33:09:578,10:33:12:581,left,10:33:13:131,,2013_Jan_13_1010,59.9492109003,MP-Perception Experiment,xx31w44,
177,vgpdm_dyn(5)-lvm(15)_final(8).webm,True,left,1,training(18).webm,0,17,17,31,,,,,,,,10:33:13:973,10:33:14:632,10:33:17:635,left,10:33:18:068,,2013_Jan_13_1010,59.9492109003,MP-Perception Experiment,xx31w44,
178,vgpdm_dyn(30)-lvm(25)_final(2).webm,False,left,1,training(2).webm,0,18,18,57,,,,,,,,10:33:18:739,10:33:19:569,10:33:22:572,right,10:33:23:139,,2013_Jan_13_1010,59.9492109003,MP-Perception Experiment,xx31w44,
179,training(33).webm,False,right,1,vgpdm_dyn(15)-lvm(15)_final(5).webm,0,19,19,6,,,,,,,,10:33:23:813,10:33:24:641,10:33:27:644,right,10:33:28:261,,2013_Jan_13_1010,59.9492109003,MP-Perception Experiment,xx31w44,
180,vgpdm_dyn(20)-lvm(15)_final(7).webm,True,left,1,training(5).webm,0,20,20,103,,,,,,,,10:33:28:934,10:33:29:777,10:33:32:763,left,10:33:33:380,,2013_Jan_13_1010,59.9492109003,MP-Perception Experiment,xx31w44,
181,vgpdm_dyn(15)-lvm(25)_final(6).webm,False,left,1,training(2).webm,0,21,21,91,,,,,,,,10:33:34:126,10:33:34:881,10:33:37:883,left,10:33:38:717,,2013_Jan_13_1010,59.9492109003,MP-Perception Experiment,xx31w44,
182,training(41).webm,True,right,1,vcgpdm_dyn(30)-lvm(30)_final(8).webm,0,22,22,36,,,,,,,,10:33:39:564,10:33:40:219,10:33:43:224,right,10:33:43:724,,2013_Jan_13_1010,59.9492109003,MP-Perception Experiment,xx31w44,
183,vcgpdm_dyn(35)-lvm(10)_final(4).webm,False,left,1,training(14).webm,0,23,23,124,,,,,,,,10:33:44:547,10:33:45:225,10:33:48:228,left,10:33:49:396,,2013_Jan_13_1010,59.9492109003,MP-Perception Experiment,xx31w44,
184,training(31).webm,True,right,1,dmp_npsi(10)_final(0)_bad.webm,0,24,24,112,,,,,,,,10:33:50:100,10:33:50:897,10:33:53:899,right,10:33:54:433,,2013_Jan_13_1010,59.9492109003,MP-Perception Experiment,xx31w44,
185,vcgpdm_dyn(5)-lvm(5)_final(9).webm,True,left,1,training(10).webm,0,25,25,98,,,,,,,,10:33:55:172,10:33:55:934,10:33:58:937,right,10:34:00:355,,2013_Jan_13_1010,59.9492109003,MP-Perception Experiment,xx31w44,
186,vgpdm_dyn(5)-lvm(20)_final(3).webm,True,left,1,training(40).webm,0,26,26,92,,,,,,,,10:34:01:204,10:34:01:857,10:34:04:859,left,10:34:05:359,,2013_Jan_13_1010,59.9492109003,MP-Perception Experiment,xx31w44,
187,vcgpdm_dyn(30)-lvm(35)_final(8).webm,True,left,1,training(5).webm,0,27,27,33,,,,,,,,10:34:06:035,10:34:06:861,10:34:09:863,left,10:34:10:530,,2013_Jan_13_1010,59.9492109003,MP-Perception Experiment,xx31w44,
188,vgpdm_dyn(5)-lvm(10)_final(0).webm,True,left,1,training(31).webm,0,28,28,28,,,,,,,,10:34:11:377,10:34:12:031,10:34:15:034,left,10:34:15:518,,2013_Jan_13_1010,59.9492109003,MP-Perception Experiment,xx31w44,
189,vcgpdm_dyn(25)-lvm(20)_final(6).webm,True,left,1,training(0).webm,0,29,29,40,,,,,,,,10:34:16:197,10:34:17:020,10:34:20:020,left,10:34:21:739,,2013_Jan_13_1010,59.9492109003,MP-Perception Experiment,xx31w44,
190,vcgpdm_dyn(30)-lvm(5)_final(2).webm,False,left,1,training(24).webm,0,30,30,74,,,,,,,,10:34:22:417,10:34:23:240,10:34:26:242,right,10:34:27:043,,2013_Jan_13_1010,59.9492109003,MP-Perception Experiment,xx31w44,
191,training(27).webm,False,right,1,vcgpdm_dyn(30)-lvm(25)_final(7).webm,0,31,31,44,,,,,,,,10:34:27:729,10:34:28:544,10:34:31:531,right,10:34:32:015,,2013_Jan_13_1010,59.9492109003,MP-Perception Experiment,xx31w44,
192,vcgpdm_dyn(15)-lvm(25)_final(9).webm,False,left,1,training(34).webm,0,32,32,156,,,,,,,,10:34:32:702,10:34:33:516,10:34:36:520,left,10:34:39:055,,2013_Jan_13_1010,59.9492109003,MP-Perception Experiment,xx31w44,
193,vcgpdm_dyn(30)-lvm(35)_final(2).webm,True,left,1,training(2).webm,0,33,33,77,,,,,,,,10:34:39:737,10:34:40:556,10:34:43:559,left,10:34:44:576,,2013_Jan_13_1010,59.9492109003,MP-Perception Experiment,xx31w44,
194,training(35).webm,True,right,1,map_cgpdm_final(0).webm,0,34,34,49,,,,,,,,10:34:45:257,10:34:46:078,10:34:49:080,right,10:34:49:697,,2013_Jan_13_1010,59.9492109003,MP-Perception Experiment,xx31w44,
195,vgpdm_dyn(30)-lvm(20)_final(9).webm,False,left,1,training(16).webm,0,35,35,149,,,,,,,,10:34:50:405,10:34:51:198,10:34:54:202,right,10:34:54:886,,2013_Jan_13_1010,59.9492109003,MP-Perception Experiment,xx31w44,
196,vcgpdm_dyn(25)-lvm(15)_final(4).webm,True,left,1,training(13).webm,0,36,36,29,,,,,,,,10:34:55:558,10:34:56:387,10:34:59:389,left,10:35:01:241,,2013_Jan_13_1010,59.9492109003,MP-Perception Experiment,xx31w44,
197,training(15).webm,False,right,1,vcgpdm_dyn(15)-lvm(35)_final(3).webm,0,37,37,104,,,,,,,,10:35:01:912,10:35:02:742,10:35:05:745,right,10:35:06:178,,2013_Jan_13_1010,59.9492109003,MP-Perception Experiment,xx31w44,
198,training(10).webm,True,right,1,tmp_numprim(9)_final(0).webm,0,38,38,158,,,,,,,,10:35:06:855,10:35:07:679,10:35:10:681,left,10:35:11:231,,2013_Jan_13_1010,59.9492109003,MP-Perception Experiment,xx31w44,
199,training(27).webm,True,right,1,vcgpdm_dyn(20)-lvm(20)_final(5).webm,0,39,39,18,,,,,,,,10:35:12:084,10:35:12:733,10:35:15:735,left,10:35:17:487,,2013_Jan_13_1010,59.9492109003,MP-Perception Experiment,xx31w44,
200,vgpdm_dyn(35)-lvm(35)_final(7).webm,False,left,1,training(38).webm,0,40,40,125,,,,,,,,10:35:18:164,10:35:18:988,10:35:21:990,right,10:35:22:524,,2013_Jan_13_1010,59.9492109003,MP-Perception Experiment,xx31w44,
201,training(21).webm,True,right,1,vgpdm_dyn(30)-lvm(20)_final(2).webm,0,41,41,138,,,,,,,,10:35:23:369,10:35:24:027,10:35:27:014,left,10:35:27:698,,2013_Jan_13_1010,59.9492109003,MP-Perception Experiment,xx31w44,
202,vgpdm_dyn(25)-lvm(5)_final(7).webm,True,left,1,training(48).webm,0,42,42,25,,,,,,,,10:35:28:377,10:35:29:199,10:35:32:201,left,10:35:32:718,,2013_Jan_13_1010,59.9492109003,MP-Perception Experiment,xx31w44,
203,dmp_npsi(25)_final(8).webm,False,left,1,training(40).webm,0,43,43,102,,,,,,,,10:35:33:391,10:35:34:219,10:35:37:222,left,10:35:37:889,,2013_Jan_13_1010,59.9492109003,MP-Perception Experiment,xx31w44,
204,dmp_npsi(20)_final(2).webm,True,left,1,training(31).webm,0,44,44,45,,,,,,,,10:35:38:563,10:35:39:390,10:35:42:392,left,10:35:42:860,,2013_Jan_13_1010,59.9492109003,MP-Perception Experiment,xx31w44,
205,training(4).webm,True,right,1,tmp_numprim(4)_final(5).webm,0,45,45,83,,,,,,,,10:35:43:529,10:35:44:362,10:35:47:364,right,10:35:47:882,,2013_Jan_13_1010,59.9492109003,MP-Perception Experiment,xx31w44,
206,vcgpdm_dyn(35)-lvm(25)_final(5).webm,True,left,1,training(3).webm,0,46,46,132,,,,,,,,10:35:48:557,10:35:49:383,10:35:52:385,left,10:35:52:869,,2013_Jan_13_1010,59.9492109003,MP-Perception Experiment,xx31w44,
207,vgpdm_dyn(35)-lvm(35)_final(2).webm,True,left,1,training(2).webm,0,47,47,142,,,,,,,,10:35:53:720,10:35:54:370,10:35:57:373,left,10:35:57:973,,2013_Jan_13_1010,59.9492109003,MP-Perception Experiment,xx31w44,
208,training(2).webm,False,right,1,tmp_numprim(7)_final(3).webm,0,48,48,96,,,,,,,,10:35:58:801,10:35:59:489,10:36:02:476,right,10:36:03:043,,2013_Jan_13_1010,59.9492109003,MP-Perception Experiment,xx31w44,
209,training(17).webm,False,right,1,dmp_npsi(30)_final(5).webm,0,49,49,115,,,,,,,,10:36:03:891,10:36:04:544,10:36:07:547,right,10:36:08:114,,2013_Jan_13_1010,59.9492109003,MP-Perception Experiment,xx31w44,
210,vcgpdm_dyn(20)-lvm(5)_final(2).webm,False,left,1,training(11).webm,0,50,50,41,,,,,,,,10:36:08:878,10:36:09:615,10:36:12:602,left,10:36:13:453,,2013_Jan_13_1010,59.9492109003,MP-Perception Experiment,xx31w44,
211,vcgpdm_dyn(20)-lvm(10)_final(8).webm,True,left,1,training(35).webm,0,51,51,136,,,,,,,,10:36:14:231,10:36:14:954,10:36:17:957,left,10:36:18:474,,2013_Jan_13_1010,59.9492109003,MP-Perception Experiment,xx31w44,
212,training(36).webm,False,right,1,vgpdm_dyn(30)-lvm(5)_final(5).webm,0,52,52,128,,,,,,,,10:36:19:322,10:36:19:976,10:36:22:979,right,10:36:23:529,,2013_Jan_13_1010,59.9492109003,MP-Perception Experiment,xx31w44,
213,training(34).webm,False,right,1,vcgpdm_dyn(35)-lvm(10)_final(2).webm,0,53,53,113,,,,,,,,10:36:24:374,10:36:25:030,10:36:28:033,right,10:36:28:700,,2013_Jan_13_1010,59.9492109003,MP-Perception Experiment,xx31w44,
214,training(17).webm,True,right,1,vcgpdm_dyn(15)-lvm(25)_final(5).webm,0,54,54,21,,,,,,,,10:36:29:514,10:36:30:201,10:36:33:204,left,10:36:33:904,,2013_Jan_13_1010,59.9492109003,MP-Perception Experiment,xx31w44,
215,training(6).webm,False,right,1,vgpdm_dyn(10)-lvm(30)_final(3).webm,0,55,55,63,,,,,,,,10:36:34:759,10:36:35:405,10:36:38:409,right,10:36:38:525,,2013_Jan_13_1010,59.9492109003,MP-Perception Experiment,xx31w44,
216,vcgpdm_dyn(35)-lvm(20)_final(7).webm,False,left,1,training(11).webm,0,56,56,69,,,,,,,,10:36:39:214,10:36:40:027,10:36:43:029,right,10:36:44:597,,2013_Jan_13_1010,59.9492109003,MP-Perception Experiment,xx31w44,
217,training(32).webm,True,right,1,vgpdm_dyn(20)-lvm(20)_final(1).webm,0,57,57,139,,,,,,,,10:36:45:435,10:36:46:098,10:36:49:101,left,10:36:49:649,,2013_Jan_13_1010,59.9492109003,MP-Perception Experiment,xx31w44,
218,vgpdm_dyn(10)-lvm(25)_final(3).webm,True,left,1,training(32).webm,0,58,58,100,,,,,,,,10:36:50:365,10:36:51:150,10:36:54:154,left,10:36:55:005,,2013_Jan_13_1010,59.9492109003,MP-Perception Experiment,xx31w44,
219,vcgpdm_dyn(30)-lvm(30)_final(7).webm,True,left,1,training(10).webm,0,59,59,153,,,,,,,,10:36:55:734,10:36:56:506,10:36:59:508,left,10:37:00:009,,2013_Jan_13_1010,59.9492109003,MP-Perception Experiment,xx31w44,
220,training(31).webm,False,right,1,vcgpdm_dyn(15)-lvm(25)_final(3).webm,0,60,60,53,,,,,,,,10:37:00:710,10:37:01:512,10:37:04:497,right,10:37:05:198,,2013_Jan_13_1010,59.9492109003,MP-Perception Experiment,xx31w44,
221,training(16).webm,True,right,1,tmp_numprim(5)_final(3).webm,0,61,61,15,,,,,,,,10:37:05:880,10:37:06:699,10:37:09:702,right,10:37:10:252,,2013_Jan_13_1010,59.9492109003,MP-Perception Experiment,xx31w44,
222,vcgpdm_dyn(20)-lvm(15)_final(2).webm,True,left,1,training(2).webm,0,62,62,157,,,,,,,,10:37:10:928,10:37:11:754,10:37:14:757,right,10:37:15:624,,2013_Jan_13_1010,59.9492109003,MP-Perception Experiment,xx31w44,
223,vcgpdm_dyn(5)-lvm(20)_final(2).webm,False,left,1,training(13).webm,0,63,63,88,,,,,,,,10:37:16:303,10:37:17:125,10:37:20:128,left,10:37:23:213,,2013_Jan_13_1010,59.9492109003,MP-Perception Experiment,xx31w44,
224,vcgpdm_dyn(5)-lvm(10)_final(9).webm,True,left,1,training(4).webm,0,64,64,145,,,,,,,,10:37:23:898,10:37:24:715,10:37:27:717,left,10:37:28:134,,2013_Jan_13_1010,59.9492109003,MP-Perception Experiment,xx31w44,
225,vgpdm_dyn(20)-lvm(25)_final(7).webm,False,left,1,training(13).webm,0,65,65,9,,,,,,,,10:37:28:810,10:37:29:636,10:37:32:639,right,10:37:33:223,,2013_Jan_13_1010,59.9492109003,MP-Perception Experiment,xx31w44,
226,vgpdm_dyn(5)-lvm(30)_final(4).webm,False,left,1,training(27).webm,0,66,66,119,,,,,,,,10:37:33:901,10:37:34:724,10:37:37:726,left,10:37:38:210,,2013_Jan_13_1010,59.9492109003,MP-Perception Experiment,xx31w44,
227,training(12).webm,False,right,1,vgpdm_dyn(5)-lvm(20)_final(6).webm,0,67,67,7,,,,,,,,10:37:38:892,10:37:39:726,10:37:42:712,right,10:37:43:112,,2013_Jan_13_1010,59.9492109003,MP-Perception Experiment,xx31w44,
228,training(22).webm,True,right,1,tmp_numprim(6)_final(9).webm,0,68,68,141,,,,,,,,10:37:43:793,10:37:44:613,10:37:47:617,left,10:37:48:100,,2013_Jan_13_1010,59.9492109003,MP-Perception Experiment,xx31w44,
229,vcgpdm_dyn(35)-lvm(25)_final(9).webm,True,left,1,training(40).webm,0,69,69,13,,,,,,,,10:37:48:790,10:37:49:602,10:37:52:589,left,10:37:53:323,,2013_Jan_13_1010,59.9492109003,MP-Perception Experiment,xx31w44,
230,vgpdm_dyn(10)-lvm(10)_final(3).webm,False,left,1,training(19).webm,0,70,70,46,,,,,,,,10:37:54:001,10:37:54:824,10:37:57:827,right,10:37:58:444,,2013_Jan_13_1010,59.9492109003,MP-Perception Experiment,xx31w44,
231,vgpdm_dyn(20)-lvm(15)_final(2).webm,False,left,1,training(37).webm,0,71,71,109,,,,,,,,10:37:59:124,10:37:59:945,10:38:02:947,right,10:38:03:598,,2013_Jan_13_1010,59.9492109003,MP-Perception Experiment,xx31w44,
232,vcgpdm_dyn(15)-lvm(35)_final(0).webm,False,left,1,training(26).webm,0,72,72,133,,,,,,,,10:38:04:299,10:38:05:100,10:38:08:103,left,10:38:08:670,,2013_Jan_13_1010,59.9492109003,MP-Perception Experiment,xx31w44,
233,training(15).webm,True,right,1,map_cgpdm_final(9).webm,0,73,73,137,,,,,,,,10:38:09:355,10:38:10:171,10:38:13:174,right,10:38:13:841,,2013_Jan_13_1010,59.9492109003,MP-Perception Experiment,xx31w44,
234,training(25).webm,False,right,1,vgpdm_dyn(35)-lvm(10)_final(7).webm,0,74,74,3,,,,,,,,10:38:14:517,10:38:15:342,10:38:18:344,left,10:38:20:913,,2013_Jan_13_1010,59.9492109003,MP-Perception Experiment,xx31w44,
235,training(35).webm,True,right,1,map_gpdm_final(5).webm,0,75,75,19,,,,,,,,10:38:21:738,10:38:22:432,10:38:25:418,right,10:38:25:951,,2013_Jan_13_1010,59.9492109003,MP-Perception Experiment,xx31w44,
236,vgpdm_dyn(20)-lvm(20)_final(7).webm,True,left,1,training(20).webm,0,76,76,43,,,,,,,,10:38:26:733,10:38:27:453,10:38:30:453,left,10:38:31:171,,2013_Jan_13_1010,59.9492109003,MP-Perception Experiment,xx31w44,
237,training(8).webm,True,right,1,vgpdm_dyn(10)-lvm(15)_final(9).webm,0,77,77,111,,,,,,,,10:38:31:847,10:38:32:672,10:38:35:674,left,10:38:37:843,,2013_Jan_13_1010,59.9492109003,MP-Perception Experiment,xx31w44,
238,training(22).webm,True,right,1,vgpdm_dyn(35)-lvm(30)_final(9).webm,0,78,78,122,,,,,,,,10:38:38:524,10:38:39:345,10:38:42:347,left,10:38:44:301,,2013_Jan_13_1010,59.9492109003,MP-Perception Experiment,xx31w44,
239,tmp_numprim(4)_final(3).webm,True,left,1,training(6).webm,0,79,79,48,,,,,,,,10:38:44:983,10:38:45:802,10:38:48:804,left,10:38:49:271,,2013_Jan_13_1010,59.9492109003,MP-Perception Experiment,xx31w44,
240,vcgpdm_dyn(15)-lvm(25)_final(8).webm,True,left,1,training(39).webm,0,80,80,8,,,,,,,,10:38:50:003,10:38:50:772,10:38:53:775,left,10:38:54:976,,2013_Jan_13_1010,59.9492109003,MP-Perception Experiment,xx31w44,
241,training(4).webm,False,right,1,tmp_numprim(9)_final(4).webm,0,81,81,82,,,,,,,,10:38:55:653,10:38:56:478,10:38:59:481,right,10:39:00:098,,2013_Jan_13_1010,59.9492109003,MP-Perception Experiment,xx31w44,
242,vgpdm_dyn(15)-lvm(35)_final(5).webm,True,left,1,training(23).webm,0,82,82,117,,,,,,,,10:39:00:772,10:39:01:599,10:39:04:601,right,10:39:05:752,,2013_Jan_13_1010,59.9492109003,MP-Perception Experiment,xx31w44,
243,training(39).webm,True,right,1,vgpdm_dyn(20)-lvm(20)_final(5).webm,0,83,83,58,,,,,,,,10:39:06:455,10:39:07:253,10:39:10:256,right,10:39:10:990,,2013_Jan_13_1010,59.9492109003,MP-Perception Experiment,xx31w44,
244,vcgpdm_dyn(15)-lvm(5)_final(2).webm,True,left,1,training(2).webm,0,84,84,80,,,,,,,,10:39:11:674,10:39:12:491,10:39:15:495,left,10:39:22:098,,2013_Jan_13_1010,59.9492109003,MP-Perception Experiment,xx31w44,
245,training(6).webm,False,right,1,vcgpdm_dyn(10)-lvm(25)_final(1).webm,0,85,85,89,,,,,,,,10:39:22:780,10:39:23:599,10:39:26:602,right,10:39:27:235,,2013_Jan_13_1010,59.9492109003,MP-Perception Experiment,xx31w44,
246,training(25).webm,True,right,1,vcgpdm_dyn(30)-lvm(15)_final(4).webm,0,86,86,32,,,,,,,,10:39:27:915,10:39:28:737,10:39:31:725,left,10:39:32:226,,2013_Jan_13_1010,59.9492109003,MP-Perception Experiment,xx31w44,
247,training(8).webm,True,right,1,vcgpdm_dyn(30)-lvm(25)_final(3).webm,0,87,87,22,,,,,,,,10:39:32:910,10:39:33:727,10:39:36:729,right,10:39:37:296,,2013_Jan_13_1010,59.9492109003,MP-Perception Experiment,xx31w44,
248,vcgpdm_dyn(10)-lvm(20)_final(2).webm,True,left,1,training(31).webm,0,88,88,56,,,,,,,,10:39:37:977,10:39:38:798,10:39:41:800,left,10:39:42:367,,2013_Jan_13_1010,59.9492109003,MP-Perception Experiment,xx31w44,
249,training(21).webm,False,right,1,vcgpdm_dyn(10)-lvm(25)_final(3).webm,0,89,89,118,,,,,,,,10:39:43:048,10:39:43:868,10:39:46:871,right,10:39:47:405,,2013_Jan_13_1010,59.9492109003,MP-Perception Experiment,xx31w44,
250,training(21).webm,True,right,1,vcgpdm_dyn(30)-lvm(20)_final(9).webm,0,90,90,20,,,,,,,,10:39:48:084,10:39:48:907,10:39:51:909,left,10:39:53:877,,2013_Jan_13_1010,59.9492109003,MP-Perception Experiment,xx31w44,
251,training(5).webm,True,right,1,vcgpdm_dyn(35)-lvm(10)_final(5).webm,0,91,91,154,,,,,,,,10:39:54:554,10:39:55:379,10:39:58:381,right,10:39:58:998,,2013_Jan_13_1010,59.9492109003,MP-Perception Experiment,xx31w44,
252,training(29).webm,True,right,1,vgpdm_dyn(30)-lvm(35)_final(0).webm,0,92,92,144,,,,,,,,10:39:59:840,10:40:00:499,10:40:03:502,left,10:40:04:069,,2013_Jan_13_1010,59.9492109003,MP-Perception Experiment,xx31w44,
253,vcgpdm_dyn(10)-lvm(10)_final(4).webm,False,left,1,training(22).webm,0,93,93,105,,,,,,,,10:40:04:886,10:40:05:570,10:40:08:574,left,10:40:09:291,,2013_Jan_13_1010,59.9492109003,MP-Perception Experiment,xx31w44,
254,training(2).webm,True,right,1,dmp_npsi(45)_final(3).webm,0,94,94,65,,,,,,,,10:40:10:156,10:40:10:807,10:40:13:809,right,10:40:15:961,,2013_Jan_13_1010,59.9492109003,MP-Perception Experiment,xx31w44,
255,tmp_numprim(3)_final(3).webm,True,left,1,training(48).webm,0,95,95,61,,,,,,,,10:40:16:636,10:40:17:462,10:40:20:465,left,10:40:20:949,,2013_Jan_13_1010,59.9492109003,MP-Perception Experiment,xx31w44,
256,tmp_numprim(7)_final(2).webm,False,left,1,training(31).webm,0,96,96,120,,,,,,,,10:40:21:678,10:40:22:451,10:40:25:455,left,10:40:26:039,,2013_Jan_13_1010,59.9492109003,MP-Perception Experiment,xx31w44,
257,vgpdm_dyn(15)-lvm(30)_final(2).webm,False,left,1,training(3).webm,0,97,97,108,,,,,,,,10:40:26:722,10:40:27:540,10:40:30:542,left,10:40:31:109,,2013_Jan_13_1010,59.9492109003,MP-Perception Experiment,xx31w44,
258,vgpdm_dyn(20)-lvm(25)_final(7).webm,True,left,1,training(28).webm,0,98,98,135,,,,,,,,10:40:31:784,10:40:32:611,10:40:35:613,left,10:40:36:480,,2013_Jan_13_1010,59.9492109003,MP-Perception Experiment,xx31w44,
259,vgpdm_dyn(15)-lvm(30)_final(4).webm,True,left,1,training(39).webm,0,99,99,86,,,,,,,,10:40:37:309,10:40:37:982,10:40:40:984,left,10:40:41:285,,2013_Jan_13_1010,59.9492109003,MP-Perception Experiment,xx31w44,
260,dmp_npsi(15)_final(0).webm,False,left,1,training(36).webm,0,100,100,2,,,,,,,,10:40:41:962,10:40:42:786,10:40:45:789,left,10:40:46:306,,2013_Jan_13_1010,59.9492109003,MP-Perception Experiment,xx31w44,
261,vgpdm_dyn(5)-lvm(15)_final(3).webm,False,left,1,training(39).webm,0,101,101,93,,,,,,,,10:40:47:048,10:40:47:807,10:40:50:810,left,10:40:51:460,,2013_Jan_13_1010,59.9492109003,MP-Perception Experiment,xx31w44,
262,map_cgpdm_final(5).webm,False,left,1,training(25).webm,0,102,102,71,,,,,,,,10:40:52:142,10:40:52:961,10:40:55:964,left,10:40:56:481,,2013_Jan_13_1010,59.9492109003,MP-Perception Experiment,xx31w44,
263,training(14).webm,False,right,1,vcgpdm_dyn(30)-lvm(15)_final(1).webm,0,103,103,68,,,,,,,,10:40:57:159,10:40:57:982,10:41:00:984,right,10:41:01:634,,2013_Jan_13_1010,59.9492109003,MP-Perception Experiment,xx31w44,
264,dmp_npsi(25)_final(5).webm,True,left,1,training(24).webm,0,104,104,78,,,,,,,,10:41:02:403,10:41:03:135,10:41:06:138,left,10:41:06:738,,2013_Jan_13_1010,59.9492109003,MP-Perception Experiment,xx31w44,
265,vcgpdm_dyn(20)-lvm(15)_final(4).webm,False,left,1,training(13).webm,0,105,105,66,,,,,,,,10:41:07:415,10:41:08:240,10:41:11:242,right,10:41:11:793,,2013_Jan_13_1010,59.9492109003,MP-Perception Experiment,xx31w44,
266,training(16).webm,True,right,1,vgpdm_dyn(5)-lvm(10)_final(9).webm,0,106,106,146,,,,,,,,10:41:12:649,10:41:13:294,10:41:16:282,right,10:41:16:866,,2013_Jan_13_1010,59.9492109003,MP-Perception Experiment,xx31w44,
267,training(11).webm,False,right,1,vgpdm_dyn(30)-lvm(20)_final(0).webm,0,107,107,54,,,,,,,,10:41:17:549,10:41:18:367,10:41:21:370,right,10:41:22:170,,2013_Jan_13_1010,59.9492109003,MP-Perception Experiment,xx31w44,
268,vgpdm_dyn(20)-lvm(25)_final(0).webm,True,left,1,training(37).webm,0,108,108,107,,,,,,,,10:41:22:948,10:41:23:671,10:41:26:674,right,10:41:28:142,,2013_Jan_13_1010,59.9492109003,MP-Perception Experiment,xx31w44,
269,tmp_numprim(7)_final(3).webm,True,left,1,training(29).webm,0,109,109,24,,,,,,,,10:41:28:815,10:41:29:643,10:41:32:646,left,10:41:33:179,,2013_Jan_13_1010,59.9492109003,MP-Perception Experiment,xx31w44,
270,vgpdm_dyn(35)-lvm(5)_final(4).webm,True,left,1,training(25).webm,0,110,110,35,,,,,,,,10:41:33:998,10:41:34:681,10:41:37:684,left,10:41:38:251,,2013_Jan_13_1010,59.9492109003,MP-Perception Experiment,xx31w44,
271,training(20).webm,True,right,1,vcgpdm_dyn(5)-lvm(20)_final(1).webm,0,111,111,14,,,,,,,,10:41:38:930,10:41:39:752,10:41:42:755,right,10:41:43:222,,2013_Jan_13_1010,59.9492109003,MP-Perception Experiment,xx31w44,
272,vcgpdm_dyn(30)-lvm(15)_final(6).webm,True,left,1,training(37).webm,0,112,112,72,,,,,,,,10:41:43:897,10:41:44:723,10:41:47:725,left,10:41:48:176,,2013_Jan_13_1010,59.9492109003,MP-Perception Experiment,xx31w44,
273,vgpdm_dyn(30)-lvm(5)_final(3).webm,False,left,1,training(30).webm,0,113,113,148,,,,,,,,10:41:48:862,10:41:49:692,10:41:52:679,left,10:41:53:596,,2013_Jan_13_1010,59.9492109003,MP-Perception Experiment,xx31w44,
274,training(40).webm,True,right,1,vgpdm_dyn(15)-lvm(25)_final(9).webm,0,114,114,123,,,,,,,,10:41:54:423,10:41:55:097,10:41:58:100,left,10:41:58:650,,2013_Jan_13_1010,59.9492109003,MP-Perception Experiment,xx31w44,
275,training(1).webm,True,right,1,vgpdm_dyn(10)-lvm(35)_final(9).webm,0,115,115,147,,,,,,,,10:41:59:333,10:42:00:151,10:42:03:139,right,10:42:03:706,,2013_Jan_13_1010,59.9492109003,MP-Perception Experiment,xx31w44,
276,vcgpdm_dyn(15)-lvm(35)_final(9).webm,True,left,1,training(33).webm,0,116,116,42,,,,,,,,10:42:04:485,10:42:05:207,10:42:08:210,left,10:42:08:761,,2013_Jan_13_1010,59.9492109003,MP-Perception Experiment,xx31w44,
277,vcgpdm_dyn(20)-lvm(30)_final(5).webm,False,left,1,training(28).webm,0,117,117,90,,,,,,,,10:42:09:441,10:42:10:262,10:42:13:265,left,10:42:13:698,,2013_Jan_13_1010,59.9492109003,MP-Perception Experiment,xx31w44,
278,training(14).webm,True,right,1,vgpdm_dyn(15)-lvm(35)_final(0).webm,0,118,118,110,,,,,,,,10:42:14:403,10:42:15:199,10:42:18:202,right,10:42:18:752,,2013_Jan_13_1010,59.9492109003,MP-Perception Experiment,xx31w44,
279,training(0).webm,False,right,1,vcgpdm_dyn(30)-lvm(5)_final(4).webm,0,119,119,84,,,,,,,,10:42:19:439,10:42:20:254,10:42:23:256,right,10:42:24:023,,2013_Jan_13_1010,59.9492109003,MP-Perception Experiment,xx31w44,
280,training(13).webm,False,right,1,vcgpdm_dyn(10)-lvm(15)_final(3).webm,0,120,120,30,,,,,,,,10:42:24:879,10:42:25:524,10:42:28:528,right,10:42:29:045,,2013_Jan_13_1010,59.9492109003,MP-Perception Experiment,xx31w44,
281,training(21).webm,False,right,1,dmp_npsi(30)_final(0).webm,0,121,121,150,,,,,,,,10:42:29:728,10:42:30:546,10:42:33:549,right,10:42:34:349,,2013_Jan_13_1010,59.9492109003,MP-Perception Experiment,xx31w44,
282,training(33).webm,False,right,1,vcgpdm_dyn(15)-lvm(20)_final(0).webm,0,122,122,126,,,,,,,,10:42:35:025,10:42:35:850,10:42:38:853,right,10:42:39:635,,2013_Jan_13_1010,59.9492109003,MP-Perception Experiment,xx31w44,
283,vgpdm_dyn(10)-lvm(10)_final(1).webm,True,left,1,training(38).webm,0,123,123,38,,,,,,,,10:42:40:318,10:42:41:136,10:42:44:140,left,10:42:44:974,,2013_Jan_13_1010,59.9492109003,MP-Perception Experiment,xx31w44,
284,vcgpdm_dyn(25)-lvm(25)_final(1).webm,False,left,1,training(13).webm,0,124,124,121,,,,,,,,10:42:45:704,10:42:46:475,10:42:49:477,right,10:42:50:045,,2013_Jan_13_1010,59.9492109003,MP-Perception Experiment,xx31w44,
285,dmp_npsi(50)_final(6).webm,True,left,1,training(16).webm,0,125,125,10,,,,,,,,10:42:50:812,10:42:51:547,10:42:54:533,left,10:42:55:084,,2013_Jan_13_1010,59.9492109003,MP-Perception Experiment,xx31w44,
286,training(11).webm,True,right,1,map_gpdm_final(8).webm,0,126,126,26,,,,,,,,10:42:55:937,10:42:56:585,10:42:59:587,right,10:43:00:138,,2013_Jan_13_1010,59.9492109003,MP-Perception Experiment,xx31w44,
287,training(33).webm,False,right,1,vcgpdm_dyn(35)-lvm(20)_final(0).webm,0,127,127,60,,,,,,,,10:43:00:947,10:43:01:640,10:43:04:643,right,10:43:05:143,,2013_Jan_13_1010,59.9492109003,MP-Perception Experiment,xx31w44,
288,vgpdm_dyn(25)-lvm(35)_final(3).webm,True,left,1,training(16).webm,0,128,128,87,,,,,,,,10:43:05:917,10:43:06:644,10:43:09:647,right,10:43:11:214,,2013_Jan_13_1010,59.9492109003,MP-Perception Experiment,xx31w44,
289,training(36).webm,False,right,1,vcgpdm_dyn(35)-lvm(5)_final(4).webm,0,129,129,0,,,,,,,,10:43:11:896,10:43:12:716,10:43:15:718,right,10:43:16:152,,2013_Jan_13_1010,59.9492109003,MP-Perception Experiment,xx31w44,
290,training(26).webm,False,right,1,vgpdm_dyn(25)-lvm(35)_final(0).webm,0,130,130,52,,,,,,,,10:43:16:990,10:43:17:653,10:43:20:656,left,10:43:21:507,,2013_Jan_13_1010,59.9492109003,MP-Perception Experiment,xx31w44,
291,training(33).webm,False,right,1,vgpdm_dyn(10)-lvm(5)_final(8).webm,0,131,131,97,,,,,,,,10:43:22:360,10:43:23:008,10:43:26:011,right,10:43:26:494,,2013_Jan_13_1010,59.9492109003,MP-Perception Experiment,xx31w44,
292,vcgpdm_dyn(25)-lvm(15)_final(2).webm,True,left,1,training(5).webm,0,132,132,55,,,,,,,,10:43:27:339,10:43:27:996,10:43:30:996,left,10:43:31:430,,2013_Jan_13_1010,59.9492109003,MP-Perception Experiment,xx31w44,
293,vgpdm_dyn(35)-lvm(5)_final(1).webm,False,left,1,training(20).webm,0,133,133,79,,,,,,,,10:43:32:255,10:43:32:931,10:43:35:934,right,10:43:36:418,,2013_Jan_13_1010,59.9492109003,MP-Perception Experiment,xx31w44,
294,vgpdm_dyn(35)-lvm(25)_final(9).webm,True,left,1,training(2).webm,0,134,134,127,,,,,,,,10:43:37:265,10:43:37:919,10:43:40:922,right,10:43:42:308,,2013_Jan_13_1010,59.9492109003,MP-Perception Experiment,xx31w44,
295,training(22).webm,True,right,1,vgpdm_dyn(10)-lvm(35)_final(9).webm,0,135,135,39,,,,,,,,10:43:42:981,10:43:43:809,10:43:46:812,right,10:43:47:496,,2013_Jan_13_1010,59.9492109003,MP-Perception Experiment,xx31w44,
296,vcgpdm_dyn(20)-lvm(35)_final(8).webm,True,left,1,training(14).webm,0,136,136,131,,,,,,,,10:43:48:178,10:43:48:997,10:43:51:999,left,10:43:52:466,,2013_Jan_13_1010,59.9492109003,MP-Perception Experiment,xx31w44,
297,training(15).webm,False,right,1,vgpdm_dyn(10)-lvm(25)_final(5).webm,0,137,137,76,,,,,,,,10:43:53:317,10:43:53:968,10:43:56:971,right,10:43:58:889,,2013_Jan_13_1010,59.9492109003,MP-Perception Experiment,xx31w44,
298,training(17).webm,True,right,1,vcgpdm_dyn(20)-lvm(5)_final(0).webm,0,138,138,151,,,,,,,,10:43:59:738,10:44:00:390,10:44:03:393,right,10:44:04:877,,2013_Jan_13_1010,59.9492109003,MP-Perception Experiment,xx31w44,
299,training(15).webm,True,right,1,dmp_npsi(40)_final(4).webm,0,139,139,114,,,,,,,,10:44:05:555,10:44:06:378,10:44:09:381,right,10:44:09:898,,2013_Jan_13_1010,59.9492109003,MP-Perception Experiment,xx31w44,
300,training(37).webm,False,right,1,vgpdm_dyn(20)-lvm(35)_final(5).webm,0,140,140,67,,,,,,,,10:44:10:731,10:44:11:400,10:44:14:403,right,10:44:14:903,,2013_Jan_13_1010,59.9492109003,MP-Perception Experiment,xx31w44,
301,vcgpdm_dyn(5)-lvm(5)_final(1).webm,False,left,1,training(2).webm,0,141,141,27,,,,,,,,10:44:15:749,10:44:16:404,10:44:19:407,right,10:44:19:839,,2013_Jan_13_1010,59.9492109003,MP-Perception Experiment,xx31w44,
302,training(4).webm,True,right,1,vcgpdm_dyn(25)-lvm(25)_final(6).webm,0,142,142,50,,,,,,,,10:44:20:674,10:44:21:340,10:44:24:342,left,10:44:26:511,,2013_Jan_13_1010,59.9492109003,MP-Perception Experiment,xx31w44,
303,vcgpdm_dyn(5)-lvm(25)_final(2).webm,True,left,1,training(22).webm,0,143,143,16,,,,,,,,10:44:27:197,10:44:28:012,10:44:31:000,left,10:44:31:501,,2013_Jan_13_1010,59.9492109003,MP-Perception Experiment,xx31w44,
304,vcgpdm_dyn(20)-lvm(30)_final(7).webm,False,left,1,training(13).webm,0,144,144,130,,,,,,,,10:44:32:178,10:44:33:002,10:44:36:005,left,10:44:36:488,,2013_Jan_13_1010,59.9492109003,MP-Perception Experiment,xx31w44,
305,vgpdm_dyn(35)-lvm(25)_final(1).webm,True,left,1,training(24).webm,0,145,145,1,,,,,,,,10:44:37:169,10:44:37:989,10:44:40:992,right,10:44:41:843,,2013_Jan_13_1010,59.9492109003,MP-Perception Experiment,xx31w44,
306,vcgpdm_dyn(30)-lvm(20)_final(4).webm,True,left,1,training(11).webm,0,146,146,4,,,,,,,,10:44:42:525,10:44:43:344,10:44:46:347,left,10:44:46:814,,2013_Jan_13_1010,59.9492109003,MP-Perception Experiment,xx31w44,
307,training(14).webm,False,right,1,vgpdm_dyn(10)-lvm(30)_final(5).webm,0,147,147,155,,,,,,,,10:44:47:490,10:44:48:315,10:44:51:318,right,10:44:51:902,,2013_Jan_13_1010,59.9492109003,MP-Perception Experiment,xx31w44,
308,vgpdm_dyn(35)-lvm(5)_final(8).webm,False,left,1,training(39).webm,0,148,148,62,,,,,,,,10:44:52:575,10:44:53:403,10:44:56:405,right,10:44:56:989,,2013_Jan_13_1010,59.9492109003,MP-Perception Experiment,xx31w44,
309,training(17).webm,False,right,1,vcgpdm_dyn(30)-lvm(35)_final(9).webm,0,149,149,95,,,,,,,,10:44:57:667,10:44:58:490,10:45:01:493,right,10:45:02:460,,2013_Jan_13_1010,59.9492109003,MP-Perception Experiment,xx31w44,
310,vcgpdm_dyn(35)-lvm(30)_final(0).webm,True,left,1,training(17).webm,0,150,150,37,,,,,,,,10:45:03:139,10:45:03:962,10:45:06:965,left,10:45:07:732,,2013_Jan_13_1010,59.9492109003,MP-Perception Experiment,xx31w44,
311,dmp_npsi(20)_final(5).webm,True,left,1,training(10).webm,0,151,151,99,,,,,,,,10:45:08:412,10:45:09:233,10:45:12:234,left,10:45:13:085,,2013_Jan_13_1010,59.9492109003,MP-Perception Experiment,xx31w44,
312,vcgpdm_dyn(35)-lvm(30)_final(1).webm,True,left,1,training(39).webm,0,152,152,106,,,,,,,,10:45:13:761,10:45:14:586,10:45:17:588,left,10:45:18:239,,2013_Jan_13_1010,59.9492109003,MP-Perception Experiment,xx31w44,
313,training(33).webm,True,right,1,vgpdm_dyn(10)-lvm(15)_final(1).webm,0,153,153,12,,,,,,,,10:45:18:922,10:45:19:740,10:45:22:728,left,10:45:23:179,,2013_Jan_13_1010,59.9492109003,MP-Perception Experiment,xx31w44,
314,vgpdm_dyn(20)-lvm(30)_final(1).webm,False,left,1,training(26).webm,0,154,154,140,,,,,,,,10:45:23:882,10:45:24:680,10:45:27:683,right,10:45:28:200,,2013_Jan_13_1010,59.9492109003,MP-Perception Experiment,xx31w44,
315,training(13).webm,True,right,1,vgpdm_dyn(15)-lvm(25)_final(9).webm,0,155,155,51,,,,,,,,10:45:28:880,10:45:29:701,10:45:32:703,left,10:45:33:170,,2013_Jan_13_1010,59.9492109003,MP-Perception Experiment,xx31w44,
316,training(24).webm,False,right,1,dmp_npsi(40)_final(7).webm,0,156,156,70,,,,,,,,10:45:33:852,10:45:34:671,10:45:37:674,left,10:45:38:324,,2013_Jan_13_1010,59.9492109003,MP-Perception Experiment,xx31w44,
317,dmp_npsi(50)_final(1).webm,False,left,1,training(17).webm,0,157,157,85,,,,,,,,10:45:39:007,10:45:39:827,10:45:42:829,left,10:45:43:363,,2013_Jan_13_1010,59.9492109003,MP-Perception Experiment,xx31w44,
318,vcgpdm_dyn(15)-lvm(25)_final(1).webm,False,left,1,training(12).webm,0,158,158,5,,,,,,,,10:45:44:126,10:45:44:864,10:45:47:867,left,10:45:48:417,,2013_Jan_13_1010,59.9492109003,MP-Perception Experiment,xx31w44,
319,vcgpdm_dyn(30)-lvm(25)_final(7).webm,False,left,2,training(12).webm,0,0,0,21,,,,,,,,10:48:23:734,10:48:24:569,10:48:27:554,left,10:48:28:338,,2013_Jan_13_1010,59.9492109003,MP-Perception Experiment,xx31w44,
320,training(7).webm,False,right,2,tmp_numprim(2)_final(6).webm,0,1,1,19,,,,,,,,10:48:29:020,10:48:29:854,10:48:32:840,right,10:48:33:525,,2013_Jan_13_1010,59.9492109003,MP-Perception Experiment,xx31w44,
321,vcgpdm_dyn(35)-lvm(20)_final(9).webm,False,left,2,training(23).webm,0,2,2,0,,,,,,,,10:48:34:209,10:48:35:026,10:48:38:029,right,10:48:38:846,,2013_Jan_13_1010,59.9492109003,MP-Perception Experiment,xx31w44,
322,training(38).webm,True,right,2,dmp_npsi(5)_final(6)_bad.webm,0,3,3,26,,,,,,,,10:48:39:542,10:48:40:347,10:48:43:335,right,10:48:44:753,,2013_Jan_13_1010,59.9492109003,MP-Perception Experiment,xx31w44,
323,vcgpdm_dyn(20)-lvm(15)_final(7).webm,False,left,2,training(18).webm,0,4,4,130,,,,,,,,10:48:45:599,10:48:46:254,10:48:49:256,right,10:48:50:390,,2013_Jan_13_1010,59.9492109003,MP-Perception Experiment,xx31w44,
324,training(7).webm,True,right,2,vgpdm_dyn(10)-lvm(25)_final(3).webm,0,5,5,46,,,,,,,,10:48:51:068,10:48:51:893,10:48:54:895,right,10:48:56:113,,2013_Jan_13_1010,59.9492109003,MP-Perception Experiment,xx31w44,
325,vcgpdm_dyn(20)-lvm(35)_final(2).webm,False,left,2,training(35).webm,0,6,6,3,,,,,,,,10:48:56:790,10:48:57:614,10:49:00:617,right,10:49:01:267,,2013_Jan_13_1010,59.9492109003,MP-Perception Experiment,xx31w44,
326,training(30).webm,False,right,2,vcgpdm_dyn(35)-lvm(5)_final(1).webm,0,7,7,5,,,,,,,,10:49:01:950,10:49:02:768,10:49:05:771,right,10:49:06:421,,2013_Jan_13_1010,59.9492109003,MP-Perception Experiment,xx31w44,
327,training(31).webm,True,right,2,map_cgpdm_final(7).webm,0,8,8,22,,,,,,,,10:49:07:268,10:49:07:922,10:49:10:926,right,10:49:11:276,,2013_Jan_13_1010,59.9492109003,MP-Perception Experiment,xx31w44,
328,vcgpdm_dyn(20)-lvm(20)_final(4).webm,True,left,2,training(38).webm,0,9,9,116,,,,,,,,10:49:11:956,10:49:12:777,10:49:15:780,left,10:49:18:715,,2013_Jan_13_1010,59.9492109003,MP-Perception Experiment,xx31w44,
329,tmp_numprim(4)_final(3).webm,True,left,2,training(22).webm,0,10,10,48,,,,,,,,10:49:19:390,10:49:20:231,10:49:23:217,left,10:49:23:801,,2013_Jan_13_1010,59.9492109003,MP-Perception Experiment,xx31w44,
330,vcgpdm_dyn(10)-lvm(25)_final(2).webm,True,left,2,training(19).webm,0,11,11,81,,,,,,,,10:49:24:477,10:49:25:302,10:49:28:306,left,10:49:28:706,,2013_Jan_13_1010,59.9492109003,MP-Perception Experiment,xx31w44,
331,dmp_npsi(30)_final(5).webm,True,left,2,training(7).webm,0,12,12,129,,,,,,,,10:49:29:383,10:49:30:207,10:49:33:195,left,10:49:33:562,,2013_Jan_13_1010,59.9492109003,MP-Perception Experiment,xx31w44,
332,vcgpdm_dyn(10)-lvm(20)_final(4).webm,True,left,2,training(20).webm,0,13,13,156,,,,,,,,10:49:34:238,10:49:35:063,10:49:38:065,left,10:49:38:399,,2013_Jan_13_1010,59.9492109003,MP-Perception Experiment,xx31w44,
333,training(2).webm,False,right,2,vgpdm_dyn(30)-lvm(30)_final(1).webm,0,14,14,52,,,,,,,,10:49:39:083,10:49:39:900,10:49:42:903,right,10:49:43:654,,2013_Jan_13_1010,59.9492109003,MP-Perception Experiment,xx31w44,
334,vgpdm_dyn(5)-lvm(35)_final(1)_bad.webm,True,left,2,training(13).webm,0,15,15,72,,,,,,,,10:49:44:341,10:49:45:155,10:49:48:158,left,10:49:48:458,,2013_Jan_13_1010,59.9492109003,MP-Perception Experiment,xx31w44,
335,training(25).webm,False,right,2,vgpdm_dyn(25)-lvm(5)_final(8).webm,0,16,16,9,,,,,,,,10:49:49:142,10:49:49:959,10:49:52:962,right,10:49:53:462,,2013_Jan_13_1010,59.9492109003,MP-Perception Experiment,xx31w44,
336,vcgpdm_dyn(10)-lvm(5)_final(1).webm,True,left,2,training(36).webm,0,17,17,82,,,,,,,,10:49:54:141,10:49:54:963,10:49:57:966,left,10:49:58:499,,2013_Jan_13_1010,59.9492109003,MP-Perception Experiment,xx31w44,
337,training(40).webm,False,right,2,vgpdm_dyn(5)-lvm(25)_final(5)_out_of_screen.webm,0,18,18,85,,,,,,,,10:49:59:186,10:50:00:001,10:50:03:004,right,10:50:04:756,,2013_Jan_13_1010,59.9492109003,MP-Perception Experiment,xx31w44,
338,training(38).webm,True,right,2,tmp_numprim(9)_final(9).webm,0,19,19,13,,,,,,,,10:50:05:439,10:50:06:257,10:50:09:259,right,10:50:09:743,,2013_Jan_13_1010,59.9492109003,MP-Perception Experiment,xx31w44,
339,training(33).webm,True,right,2,vgpdm_dyn(35)-lvm(35)_final(0).webm,0,20,20,71,,,,,,,,10:50:10:438,10:50:11:259,10:50:14:261,right,10:50:14:678,,2013_Jan_13_1010,59.9492109003,MP-Perception Experiment,xx31w44,
340,training(10).webm,False,right,2,vgpdm_dyn(5)-lvm(30)_final(6).webm,0,21,21,123,,,,,,,,10:50:15:365,10:50:16:180,10:50:19:183,right,10:50:19:700,,2013_Jan_13_1010,59.9492109003,MP-Perception Experiment,xx31w44,
341,tmp_numprim(4)_final(6).webm,False,left,2,training(20).webm,0,22,22,157,,,,,,,,10:50:20:381,10:50:21:203,10:50:24:189,left,10:50:24:856,,2013_Jan_13_1010,59.9492109003,MP-Perception Experiment,xx31w44,
342,vcgpdm_dyn(35)-lvm(30)_final(8).webm,True,left,2,training(13).webm,0,23,23,25,,,,,,,,10:50:25:535,10:50:26:357,10:50:29:360,left,10:50:29:910,,2013_Jan_13_1010,59.9492109003,MP-Perception Experiment,xx31w44,
343,vcgpdm_dyn(10)-lvm(35)_final(4).webm,False,left,2,training(13).webm,0,24,24,64,,,,,,,,10:50:30:591,10:50:31:411,10:50:34:414,left,10:50:34:914,,2013_Jan_13_1010,59.9492109003,MP-Perception Experiment,xx31w44,
344,vcgpdm_dyn(15)-lvm(15)_final(5).webm,True,left,2,training(0).webm,0,25,25,96,,,,,,,,10:50:35:597,10:50:36:416,10:50:39:419,left,10:50:39:836,,2013_Jan_13_1010,59.9492109003,MP-Perception Experiment,xx31w44,
345,training(24).webm,False,right,2,vcgpdm_dyn(15)-lvm(35)_final(0).webm,0,26,26,1,,,,,,,,10:50:40:513,10:50:41:337,10:50:44:340,right,10:50:44:957,,2013_Jan_13_1010,59.9492109003,MP-Perception Experiment,xx31w44,
346,training(30).webm,True,right,2,map_cgpdm_final(8).webm,0,27,27,140,,,,,,,,10:50:45:661,10:50:46:458,10:50:49:460,right,10:50:49:877,,2013_Jan_13_1010,59.9492109003,MP-Perception Experiment,xx31w44,
347,training(13).webm,True,right,2,vcgpdm_dyn(10)-lvm(35)_final(8).webm,0,28,28,154,,,,,,,,10:50:50:556,10:50:51:378,10:50:54:382,right,10:50:54:849,,2013_Jan_13_1010,59.9492109003,MP-Perception Experiment,xx31w44,
348,vgpdm_dyn(30)-lvm(5)_final(0).webm,False,left,2,training(31).webm,0,29,29,76,,,,,,,,10:50:55:532,10:50:56:350,10:50:59:353,left,10:51:01:019,,2013_Jan_13_1010,59.9492109003,MP-Perception Experiment,xx31w44,
349,training(32).webm,False,right,2,tmp_numprim(10)_final(8).webm,0,30,30,141,,,,,,,,10:51:01:831,10:51:02:520,10:51:05:522,right,10:51:05:990,,2013_Jan_13_1010,59.9492109003,MP-Perception Experiment,xx31w44,
350,vcgpdm_dyn(15)-lvm(10)_final(9).webm,False,left,2,training(28).webm,0,31,31,4,,,,,,,,10:51:06:666,10:51:07:491,10:51:10:493,right,10:51:10:978,,2013_Jan_13_1010,59.9492109003,MP-Perception Experiment,xx31w44,
351,map_cgpdm_final(1).webm,True,left,2,training(40).webm,0,32,32,110,,,,,,,,10:51:11:756,10:51:12:481,10:51:15:483,left,10:51:15:984,,2013_Jan_13_1010,59.9492109003,MP-Perception Experiment,xx31w44,
352,vcgpdm_dyn(35)-lvm(10)_final(2).webm,False,left,2,training(1).webm,0,33,33,115,,,,,,,,10:51:16:661,10:51:17:485,10:51:20:487,right,10:51:20:854,,2013_Jan_13_1010,59.9492109003,MP-Perception Experiment,xx31w44,
353,training(36).webm,False,right,2,vcgpdm_dyn(35)-lvm(20)_final(5).webm,0,34,34,90,,,,,,,,10:51:21:538,10:51:22:355,10:51:25:358,right,10:51:25:792,,2013_Jan_13_1010,59.9492109003,MP-Perception Experiment,xx31w44,
354,training(8).webm,False,right,2,vcgpdm_dyn(30)-lvm(10)_final(3).webm,0,35,35,15,,,,,,,,10:51:26:476,10:51:27:293,10:51:30:296,right,10:51:30:713,,2013_Jan_13_1010,59.9492109003,MP-Perception Experiment,xx31w44,
355,training(38).webm,False,right,2,vcgpdm_dyn(5)-lvm(15)_final(0).webm,0,36,36,6,,,,,,,,10:51:31:401,10:51:32:214,10:51:35:217,right,10:51:35:917,,2013_Jan_13_1010,59.9492109003,MP-Perception Experiment,xx31w44,
356,vgpdm_dyn(35)-lvm(30)_final(2).webm,False,left,2,training(34).webm,0,37,37,66,,,,,,,,10:51:36:591,10:51:37:419,10:51:40:421,right,10:51:40:888,,2013_Jan_13_1010,59.9492109003,MP-Perception Experiment,xx31w44,
357,tmp_numprim(10)_final(9).webm,False,left,2,training(33).webm,0,38,38,120,,,,,,,,10:51:41:569,10:51:42:389,10:51:45:392,left,10:51:45:810,,2013_Jan_13_1010,59.9492109003,MP-Perception Experiment,xx31w44,
358,vgpdm_dyn(10)-lvm(30)_final(0).webm,False,left,2,training(17).webm,0,39,39,32,,,,,,,,10:51:46:513,10:51:47:311,10:51:50:312,left,10:51:50:879,,2013_Jan_13_1010,59.9492109003,MP-Perception Experiment,xx31w44,
359,training(19).webm,True,right,2,vgpdm_dyn(30)-lvm(35)_final(6).webm,0,40,40,11,,,,,,,,10:51:51:559,10:51:52:380,10:51:55:382,left,10:51:55:916,,2013_Jan_13_1010,59.9492109003,MP-Perception Experiment,xx31w44,
360,training(12).webm,True,right,2,vgpdm_dyn(30)-lvm(20)_final(1).webm,0,41,41,137,,,,,,,,10:51:56:601,10:51:57:417,10:52:00:420,right,10:52:01:270,,2013_Jan_13_1010,59.9492109003,MP-Perception Experiment,xx31w44,
361,vcgpdm_dyn(10)-lvm(20)_final(4).webm,False,left,2,training(24).webm,0,42,42,61,,,,,,,,10:52:01:946,10:52:02:772,10:52:05:760,right,10:52:06:527,,2013_Jan_13_1010,59.9492109003,MP-Perception Experiment,xx31w44,
362,vcgpdm_dyn(10)-lvm(15)_final(0).webm,False,left,2,training(27).webm,0,43,43,104,,,,,,,,10:52:07:205,10:52:08:029,10:52:11:031,right,10:52:11:465,,2013_Jan_13_1010,59.9492109003,MP-Perception Experiment,xx31w44,
363,vgpdm_dyn(5)-lvm(10)_final(4).webm,True,left,2,training(24).webm,0,44,44,58,,,,,,,,10:52:12:293,10:52:12:966,10:52:15:969,left,10:52:16:686,,2013_Jan_13_1010,59.9492109003,MP-Perception Experiment,xx31w44,
364,training(24).webm,False,right,2,tmp_numprim(9)_final(0).webm,0,45,45,105,,,,,,,,10:52:17:361,10:52:18:187,10:52:21:190,right,10:52:21:924,,2013_Jan_13_1010,59.9492109003,MP-Perception Experiment,xx31w44,
365,vgpdm_dyn(20)-lvm(25)_final(2).webm,False,left,2,training(8).webm,0,46,46,107,,,,,,,,10:52:22:659,10:52:23:425,10:52:26:428,left,10:52:27:279,,2013_Jan_13_1010,59.9492109003,MP-Perception Experiment,xx31w44,
366,training(37).webm,True,right,2,vgpdm_dyn(10)-lvm(25)_final(5).webm,0,47,47,56,,,,,,,,10:52:27:952,10:52:28:780,10:52:31:782,right,10:52:32:900,,2013_Jan_13_1010,59.9492109003,MP-Perception Experiment,xx31w44,
367,vcgpdm_dyn(15)-lvm(5)_final(4).webm,False,left,2,training(36).webm,0,48,48,78,,,,,,,,10:52:33:577,10:52:34:401,10:52:37:404,right,10:52:38:639,,2013_Jan_13_1010,59.9492109003,MP-Perception Experiment,xx31w44,
368,training(41).webm,True,right,2,vgpdm_dyn(30)-lvm(35)_final(8).webm,0,49,49,99,,,,,,,,10:52:39:319,10:52:40:155,10:52:43:141,left,10:52:43:708,,2013_Jan_13_1010,59.9492109003,MP-Perception Experiment,xx31w44,
369,vgpdm_dyn(25)-lvm(20)_final(2).webm,False,left,2,training(24).webm,0,50,50,108,,,,,,,,10:52:44:389,10:52:45:209,10:52:48:211,right,10:52:48:645,,2013_Jan_13_1010,59.9492109003,MP-Perception Experiment,xx31w44,
370,training(4).webm,False,right,2,vgpdm_dyn(5)-lvm(20)_final(6).webm,0,51,51,28,,,,,,,,10:52:49:324,10:52:50:146,10:52:53:134,right,10:52:53:734,,2013_Jan_13_1010,59.9492109003,MP-Perception Experiment,xx31w44,
371,vgpdm_dyn(25)-lvm(20)_final(5).webm,False,left,2,training(34).webm,0,52,52,127,,,,,,,,10:52:54:441,10:52:55:235,10:52:58:239,left,10:52:59:573,,2013_Jan_13_1010,59.9492109003,MP-Perception Experiment,xx31w44,
372,training(48).webm,False,right,2,vgpdm_dyn(35)-lvm(5)_final(6).webm,0,53,53,37,,,,,,,,10:53:00:255,10:53:01:074,10:53:04:077,right,10:53:04:511,,2013_Jan_13_1010,59.9492109003,MP-Perception Experiment,xx31w44,
373,vgpdm_dyn(25)-lvm(20)_final(0).webm,False,left,2,training(18).webm,0,54,54,7,,,,,,,,10:53:05:192,10:53:06:012,10:53:09:014,right,10:53:10:465,,2013_Jan_13_1010,59.9492109003,MP-Perception Experiment,xx31w44,
374,training(30).webm,True,right,2,vcgpdm_dyn(35)-lvm(5)_final(5).webm,0,55,55,65,,,,,,,,10:53:11:152,10:53:11:967,10:53:14:970,left,10:53:15:571,,2013_Jan_13_1010,59.9492109003,MP-Perception Experiment,xx31w44,
375,training(28).webm,False,right,2,vgpdm_dyn(30)-lvm(25)_final(9).webm,0,56,56,155,,,,,,,,10:53:16:249,10:53:17:072,10:53:20:074,left,10:53:20:958,,2013_Jan_13_1010,59.9492109003,MP-Perception Experiment,xx31w44,
376,training(15).webm,False,right,2,tmp_numprim(10)_final(7).webm,0,57,57,126,,,,,,,,10:53:21:644,10:53:22:459,10:53:25:462,right,10:53:26:263,,2013_Jan_13_1010,59.9492109003,MP-Perception Experiment,xx31w44,
377,training(26).webm,True,right,2,vcgpdm_dyn(5)-lvm(15)_final(0).webm,0,58,58,132,,,,,,,,10:53:26:936,10:53:27:764,10:53:30:765,right,10:53:31:099,,2013_Jan_13_1010,59.9492109003,MP-Perception Experiment,xx31w44,
378,training(5).webm,False,right,2,vcgpdm_dyn(5)-lvm(25)_final(7).webm,0,59,59,121,,,,,,,,10:53:31:780,10:53:32:600,10:53:35:603,right,10:53:36:086,,2013_Jan_13_1010,59.9492109003,MP-Perception Experiment,xx31w44,
379,tmp_numprim(6)_final(1).webm,True,left,2,training(41).webm,0,60,60,62,,,,,,,,10:53:36:769,10:53:37:587,10:53:40:590,left,10:53:40:990,,2013_Jan_13_1010,59.9492109003,MP-Perception Experiment,xx31w44,
380,vcgpdm_dyn(30)-lvm(5)_final(8).webm,False,left,2,training(38).webm,0,61,61,150,,,,,,,,10:53:41:669,10:53:42:491,10:53:45:479,left,10:53:45:896,,2013_Jan_13_1010,59.9492109003,MP-Perception Experiment,xx31w44,
381,training(15).webm,True,right,2,dmp_npsi(35)_final(0).webm,0,62,62,12,,,,,,,,10:53:46:722,10:53:47:397,10:53:50:401,left,10:53:51:001,,2013_Jan_13_1010,59.9492109003,MP-Perception Experiment,xx31w44,
382,vcgpdm_dyn(10)-lvm(5)_final(4).webm,False,left,2,training(26).webm,0,63,63,54,,,,,,,,10:53:51:679,10:53:52:502,10:53:55:505,right,10:53:56:239,,2013_Jan_13_1010,59.9492109003,MP-Perception Experiment,xx31w44,
383,training(5).webm,True,right,2,vcgpdm_dyn(25)-lvm(35)_final(8).webm,0,64,64,106,,,,,,,,10:53:57:095,10:53:57:740,10:54:00:742,left,10:54:01:276,,2013_Jan_13_1010,59.9492109003,MP-Perception Experiment,xx31w44,
384,training(10).webm,True,right,2,vgpdm_dyn(15)-lvm(5)_final(2).webm,0,65,65,41,,,,,,,,10:54:02:124,10:54:02:777,10:54:05:781,right,10:54:06:281,,2013_Jan_13_1010,59.9492109003,MP-Perception Experiment,xx31w44,
385,training(17).webm,False,right,2,tmp_numprim(7)_final(3).webm,0,66,66,67,,,,,,,,10:54:06:957,10:54:07:782,10:54:10:785,left,10:54:12:603,,2013_Jan_13_1010,59.9492109003,MP-Perception Experiment,xx31w44,
386,training(19).webm,False,right,2,vgpdm_dyn(20)-lvm(30)_final(6).webm,0,67,67,14,,,,,,,,10:54:13:287,10:54:14:104,10:54:17:107,right,10:54:17:640,,2013_Jan_13_1010,59.9492109003,MP-Perception Experiment,xx31w44,
387,vcgpdm_dyn(35)-lvm(20)_final(1).webm,False,left,2,training(31).webm,0,68,68,158,,,,,,,,10:54:18:321,10:54:19:141,10:54:22:142,left,10:54:23:644,,2013_Jan_13_1010,59.9492109003,MP-Perception Experiment,xx31w44,
388,dmp_npsi(35)_final(6).webm,False,left,2,training(27).webm,0,69,69,112,,,,,,,,10:54:24:318,10:54:25:146,10:54:28:148,right,10:54:28:582,,2013_Jan_13_1010,59.9492109003,MP-Perception Experiment,xx31w44,
389,vcgpdm_dyn(30)-lvm(30)_final(5).webm,False,left,2,training(5).webm,0,70,70,88,,,,,,,,10:54:29:264,10:54:30:083,10:54:33:070,left,10:54:33:571,,2013_Jan_13_1010,59.9492109003,MP-Perception Experiment,xx31w44,
390,training(27).webm,True,right,2,dmp_npsi(40)_final(9).webm,0,71,71,60,,,,,,,,10:54:34:252,10:54:35:072,10:54:38:074,left,10:54:38:492,,2013_Jan_13_1010,59.9492109003,MP-Perception Experiment,xx31w44,
391,vcgpdm_dyn(25)-lvm(10)_final(6).webm,True,left,2,training(31).webm,0,72,72,134,,,,,,,,10:54:39:175,10:54:39:993,10:54:42:996,left,10:54:43:597,,2013_Jan_13_1010,59.9492109003,MP-Perception Experiment,xx31w44,
392,vgpdm_dyn(15)-lvm(15)_final(9).webm,False,left,2,training(7).webm,0,73,73,45,,,,,,,,10:54:44:278,10:54:45:098,10:54:48:100,right,10:54:48:501,,2013_Jan_13_1010,59.9492109003,MP-Perception Experiment,xx31w44,
393,training(7).webm,True,right,2,dmp_npsi(40)_final(2).webm,0,74,74,29,,,,,,,,10:54:49:188,10:54:50:002,10:54:53:004,right,10:54:53:588,,2013_Jan_13_1010,59.9492109003,MP-Perception Experiment,xx31w44,
394,vgpdm_dyn(10)-lvm(10)_final(6).webm,True,left,2,training(29).webm,0,75,75,79,,,,,,,,10:54:54:331,10:54:55:089,10:54:58:093,left,10:54:58:693,,2013_Jan_13_1010,59.9492109003,MP-Perception Experiment,xx31w44,
395,training(17).webm,True,right,2,dmp_npsi(15)_final(6).webm,0,76,76,77,,,,,,,,10:54:59:404,10:55:00:194,10:55:03:197,right,10:55:03:681,,2013_Jan_13_1010,59.9492109003,MP-Perception Experiment,xx31w44,
396,vgpdm_dyn(20)-lvm(5)_final(3).webm,False,left,2,training(38).webm,0,77,77,128,,,,,,,,10:55:04:448,10:55:05:182,10:55:08:184,left,10:55:11:635,,2013_Jan_13_1010,59.9492109003,MP-Perception Experiment,xx31w44,
397,vgpdm_dyn(25)-lvm(35)_final(9).webm,True,left,2,training(34).webm,0,78,78,80,,,,,,,,10:55:12:489,10:55:13:136,10:55:16:140,left,10:55:16:674,,2013_Jan_13_1010,59.9492109003,MP-Perception Experiment,xx31w44,
398,vcgpdm_dyn(10)-lvm(30)_final(9).webm,False,left,2,training(8).webm,0,79,79,70,,,,,,,,10:55:17:357,10:55:18:175,10:55:21:177,left,10:55:21:828,,2013_Jan_13_1010,59.9492109003,MP-Perception Experiment,xx31w44,
399,training(29).webm,False,right,2,vgpdm_dyn(10)-lvm(5)_final(0).webm,0,80,80,144,,,,,,,,10:55:22:641,10:55:23:331,10:55:26:333,right,10:55:26:800,,2013_Jan_13_1010,59.9492109003,MP-Perception Experiment,xx31w44,
400,training(16).webm,False,right,2,vgpdm_dyn(10)-lvm(20)_final(0).webm,0,81,81,47,,,,,,,,10:55:27:628,10:55:28:301,10:55:31:304,right,10:55:31:871,,2013_Jan_13_1010,59.9492109003,MP-Perception Experiment,xx31w44,
401,training(48).webm,False,right,2,vgpdm_dyn(35)-lvm(35)_final(9).webm,0,82,82,153,,,,,,,,10:55:32:721,10:55:33:373,10:55:36:376,right,10:55:36:793,,2013_Jan_13_1010,59.9492109003,MP-Perception Experiment,xx31w44,
402,training(25).webm,False,right,2,vcgpdm_dyn(30)-lvm(35)_final(6).webm,0,83,83,136,,,,,,,,10:55:37:473,10:55:38:294,10:55:41:296,right,10:55:42:264,,2013_Jan_13_1010,59.9492109003,MP-Perception Experiment,xx31w44,
403,vcgpdm_dyn(25)-lvm(25)_final(8).webm,False,left,2,training(16).webm,0,84,84,97,,,,,,,,10:55:42:948,10:55:43:765,10:55:46:767,right,10:55:47:585,,2013_Jan_13_1010,59.9492109003,MP-Perception Experiment,xx31w44,
404,training(19).webm,True,right,2,tmp_numprim(4)_final(5).webm,0,85,85,143,,,,,,,,10:55:48:259,10:55:49:086,10:55:52:089,right,10:55:52:606,,2013_Jan_13_1010,59.9492109003,MP-Perception Experiment,xx31w44,
405,training(10).webm,False,right,2,dmp_npsi(20)_final(9).webm,0,86,86,69,,,,,,,,10:55:53:453,10:55:54:107,10:55:57:110,right,10:55:57:644,,2013_Jan_13_1010,59.9492109003,MP-Perception Experiment,xx31w44,
406,vcgpdm_dyn(30)-lvm(30)_final(9).webm,False,left,2,training(3).webm,0,87,87,111,,,,,,,,10:55:58:371,10:55:59:145,10:56:02:146,left,10:56:02:629,,2013_Jan_13_1010,59.9492109003,MP-Perception Experiment,xx31w44,
407,training(3).webm,False,right,2,vcgpdm_dyn(25)-lvm(5)_final(1).webm,0,88,88,84,,,,,,,,10:56:03:304,10:56:04:130,10:56:07:133,right,10:56:07:818,,2013_Jan_13_1010,59.9492109003,MP-Perception Experiment,xx31w44,
408,dmp_npsi(30)_final(8).webm,True,left,2,training(39).webm,0,89,89,122,,,,,,,,10:56:08:521,10:56:09:319,10:56:12:321,left,10:56:12:788,,2013_Jan_13_1010,59.9492109003,MP-Perception Experiment,xx31w44,
409,vcgpdm_dyn(25)-lvm(25)_final(8).webm,False,left,2,training(5).webm,0,90,90,117,,,,,,,,10:56:13:462,10:56:14:290,10:56:17:277,right,10:56:17:694,,2013_Jan_13_1010,59.9492109003,MP-Perception Experiment,xx31w44,
410,vgpdm_dyn(20)-lvm(5)_final(5).webm,True,left,2,training(33).webm,0,91,91,138,,,,,,,,10:56:18:376,10:56:19:195,10:56:22:198,left,10:56:22:698,,2013_Jan_13_1010,59.9492109003,MP-Perception Experiment,xx31w44,
411,training(25).webm,False,right,2,vcgpdm_dyn(5)-lvm(25)_final(9).webm,0,92,92,24,,,,,,,,10:56:23:377,10:56:24:199,10:56:27:203,right,10:56:27:753,,2013_Jan_13_1010,59.9492109003,MP-Perception Experiment,xx31w44,
412,vgpdm_dyn(30)-lvm(30)_final(6).webm,False,left,2,training(4).webm,0,93,93,35,,,,,,,,10:56:28:432,10:56:29:254,10:56:32:257,right,10:56:32:791,,2013_Jan_13_1010,59.9492109003,MP-Perception Experiment,xx31w44,
413,vcgpdm_dyn(20)-lvm(35)_final(8).webm,True,left,2,training(36).webm,0,94,94,43,,,,,,,,10:56:33:467,10:56:34:292,10:56:37:294,left,10:56:42:665,,2013_Jan_13_1010,59.9492109003,MP-Perception Experiment,xx31w44,
414,vgpdm_dyn(30)-lvm(30)_final(1).webm,True,left,2,training(41).webm,0,95,95,23,,,,,,,,10:56:43:340,10:56:44:168,10:56:47:170,left,10:56:47:687,,2013_Jan_13_1010,59.9492109003,MP-Perception Experiment,xx31w44,
415,vcgpdm_dyn(10)-lvm(15)_final(0).webm,True,left,2,training(25).webm,0,96,96,109,,,,,,,,10:56:48:360,10:56:49:188,10:56:52:189,left,10:56:52:489,,2013_Jan_13_1010,59.9492109003,MP-Perception Experiment,xx31w44,
416,vcgpdm_dyn(20)-lvm(10)_final(7).webm,True,left,2,training(26).webm,0,97,97,103,,,,,,,,10:56:53:216,10:56:53:990,10:56:56:993,left,10:56:57:343,,2013_Jan_13_1010,59.9492109003,MP-Perception Experiment,xx31w44,
417,tmp_numprim(7)_final(3).webm,True,left,2,training(4).webm,0,98,98,51,,,,,,,,10:56:58:021,10:56:58:844,10:57:01:848,left,10:57:02:333,,2013_Jan_13_1010,59.9492109003,MP-Perception Experiment,xx31w44,
418,training(3).webm,True,right,2,vgpdm_dyn(15)-lvm(30)_final(9).webm,0,99,99,124,,,,,,,,10:57:03:181,10:57:03:834,10:57:06:837,right,10:57:07:387,,2013_Jan_13_1010,59.9492109003,MP-Perception Experiment,xx31w44,
419,training(7).webm,True,right,2,vcgpdm_dyn(15)-lvm(20)_final(2).webm,0,100,100,102,,,,,,,,10:57:08:201,10:57:08:889,10:57:11:891,left,10:57:12:425,,2013_Jan_13_1010,59.9492109003,MP-Perception Experiment,xx31w44,
420,training(16).webm,False,right,2,vgpdm_dyn(5)-lvm(30)_final(3).webm,0,101,101,89,,,,,,,,10:57:13:098,10:57:13:926,10:57:16:928,right,10:57:17:379,,2013_Jan_13_1010,59.9492109003,MP-Perception Experiment,xx31w44,
421,training(4).webm,False,right,2,vgpdm_dyn(30)-lvm(15)_final(2).webm,0,102,102,53,,,,,,,,10:57:18:200,10:57:18:881,10:57:21:883,right,10:57:22:534,,2013_Jan_13_1010,59.9492109003,MP-Perception Experiment,xx31w44,
422,training(27).webm,True,right,2,vgpdm_dyn(25)-lvm(15)_final(5)_out_of_screen.webm,0,103,103,8,,,,,,,,10:57:23:392,10:57:24:035,10:57:27:038,left,10:57:27:855,,2013_Jan_13_1010,59.9492109003,MP-Perception Experiment,xx31w44,
423,training(1).webm,False,right,2,vcgpdm_dyn(30)-lvm(10)_final(6).webm,0,104,104,101,,,,,,,,10:57:28:540,10:57:29:356,10:57:32:359,right,10:57:32:742,,2013_Jan_13_1010,59.9492109003,MP-Perception Experiment,xx31w44,
424,tmp_numprim(5)_final(0).webm,False,left,2,training(30).webm,0,105,105,151,,,,,,,,10:57:33:420,10:57:34:243,10:57:37:247,left,10:57:37:681,,2013_Jan_13_1010,59.9492109003,MP-Perception Experiment,xx31w44,
425,training(33).webm,False,right,2,vcgpdm_dyn(35)-lvm(10)_final(3).webm,0,106,106,50,,,,,,,,10:57:38:514,10:57:39:182,10:57:42:182,right,10:57:42:699,,2013_Jan_13_1010,59.9492109003,MP-Perception Experiment,xx31w44,
426,vgpdm_dyn(20)-lvm(20)_final(4).webm,False,left,2,training(37).webm,0,107,107,91,,,,,,,,10:57:43:443,10:57:44:201,10:57:47:203,right,10:57:47:704,,2013_Jan_13_1010,59.9492109003,MP-Perception Experiment,xx31w44,
427,map_cgpdm_final(3).webm,False,left,2,training(28).webm,0,108,108,93,,,,,,,,10:57:48:410,10:57:49:205,10:57:52:207,left,10:57:52:624,,2013_Jan_13_1010,59.9492109003,MP-Perception Experiment,xx31w44,
428,vgpdm_dyn(15)-lvm(5)_final(4).webm,True,left,2,training(16).webm,0,109,109,57,,,,,,,,10:57:53:356,10:57:54:126,10:57:57:114,left,10:57:57:748,,2013_Jan_13_1010,59.9492109003,MP-Perception Experiment,xx31w44,
429,vcgpdm_dyn(30)-lvm(20)_final(4).webm,False,left,2,training(11).webm,0,110,110,98,,,,,,,,10:57:58:423,10:57:59:249,10:58:02:251,left,10:58:03:219,,2013_Jan_13_1010,59.9492109003,MP-Perception Experiment,xx31w44,
430,training(6).webm,True,right,2,vgpdm_dyn(10)-lvm(30)_final(6).webm,0,111,111,74,,,,,,,,10:58:04:072,10:58:04:720,10:58:07:722,right,10:58:08:089,,2013_Jan_13_1010,59.9492109003,MP-Perception Experiment,xx31w44,
431,training(34).webm,False,right,2,vcgpdm_dyn(10)-lvm(30)_final(7).webm,0,112,112,33,,,,,,,,10:58:08:933,10:58:09:591,10:58:12:594,right,10:58:13:061,,2013_Jan_13_1010,59.9492109003,MP-Perception Experiment,xx31w44,
432,training(19).webm,False,right,2,vcgpdm_dyn(20)-lvm(5)_final(3).webm,0,113,113,42,,,,,,,,10:58:13:908,10:58:14:562,10:58:17:565,right,10:58:17:982,,2013_Jan_13_1010,59.9492109003,MP-Perception Experiment,xx31w44,
433,training(15).webm,False,right,2,vcgpdm_dyn(5)-lvm(15)_final(3).webm,0,114,114,49,,,,,,,,10:58:18:687,10:58:19:483,10:58:22:485,left,10:58:23:169,,2013_Jan_13_1010,59.9492109003,MP-Perception Experiment,xx31w44,
434,tmp_numprim(5)_final(7).webm,True,left,2,training(7).webm,0,115,115,142,,,,,,,,10:58:23:996,10:58:24:670,10:58:27:674,left,10:58:28:057,,2013_Jan_13_1010,59.9492109003,MP-Perception Experiment,xx31w44,
435,training(22).webm,False,right,2,dmp_npsi(50)_final(7).webm,0,116,116,147,,,,,,,,10:58:28:738,10:58:29:559,10:58:32:559,right,10:58:33:093,,2013_Jan_13_1010,59.9492109003,MP-Perception Experiment,xx31w44,
436,dmp_npsi(20)_final(6).webm,True,left,2,training(8).webm,0,117,117,44,,,,,,,,10:58:33:940,10:58:34:594,10:58:37:597,left,10:58:37:980,,2013_Jan_13_1010,59.9492109003,MP-Perception Experiment,xx31w44,
437,training(27).webm,True,right,2,vcgpdm_dyn(25)-lvm(25)_final(3).webm,0,118,118,152,,,,,,,,10:58:38:661,10:58:39:482,10:58:42:484,left,10:58:42:801,,2013_Jan_13_1010,59.9492109003,MP-Perception Experiment,xx31w44,
438,vgpdm_dyn(10)-lvm(10)_final(4).webm,False,left,2,training(13).webm,0,119,119,135,,,,,,,,10:58:43:486,10:58:44:302,10:58:47:291,right,10:58:47:691,,2013_Jan_13_1010,59.9492109003,MP-Perception Experiment,xx31w44,
439,vcgpdm_dyn(15)-lvm(10)_final(3).webm,True,left,2,training(12).webm,0,120,120,114,,,,,,,,10:58:48:376,10:58:49:192,10:58:52:195,left,10:58:52:995,,2013_Jan_13_1010,59.9492109003,MP-Perception Experiment,xx31w44,
440,vcgpdm_dyn(25)-lvm(5)_final(7).webm,True,left,2,training(34).webm,0,121,121,95,,,,,,,,10:58:53:793,10:58:54:496,10:58:57:499,left,10:58:57:999,,2013_Jan_13_1010,59.9492109003,MP-Perception Experiment,xx31w44,
441,training(39).webm,False,right,2,tmp_numprim(10)_final(1).webm,0,122,122,118,,,,,,,,10:58:58:678,10:58:59:500,10:59:02:503,right,10:59:03:205,,2013_Jan_13_1010,59.9492109003,MP-Perception Experiment,xx31w44,
442,vgpdm_dyn(35)-lvm(25)_final(6).webm,True,left,2,training(12).webm,0,123,123,148,,,,,,,,10:59:03:885,10:59:04:706,10:59:07:708,left,10:59:08:642,,2013_Jan_13_1010,59.9492109003,MP-Perception Experiment,xx31w44,
443,training(21).webm,True,right,2,vgpdm_dyn(25)-lvm(35)_final(2).webm,0,124,124,20,,,,,,,,10:59:09:328,10:59:10:143,10:59:13:146,left,10:59:14:013,,2013_Jan_13_1010,59.9492109003,MP-Perception Experiment,xx31w44,
444,training(21).webm,False,right,2,vcgpdm_dyn(10)-lvm(5)_final(4).webm,0,125,125,119,,,,,,,,10:59:14:685,10:59:15:514,10:59:18:517,right,10:59:18:950,,2013_Jan_13_1010,59.9492109003,MP-Perception Experiment,xx31w44,
445,training(27).webm,True,right,2,tmp_numprim(8)_final(0).webm,0,126,126,75,,,,,,,,10:59:19:654,10:59:20:468,10:59:23:453,left,10:59:24:604,,2013_Jan_13_1010,59.9492109003,MP-Perception Experiment,xx31w44,
446,training(37).webm,False,right,2,vgpdm_dyn(10)-lvm(5)_final(1).webm,0,127,127,146,,,,,,,,10:59:25:290,10:59:26:106,10:59:29:108,right,10:59:29:608,,2013_Jan_13_1010,59.9492109003,MP-Perception Experiment,xx31w44,
447,training(20).webm,True,right,2,vcgpdm_dyn(5)-lvm(20)_final(5).webm,0,128,128,2,,,,,,,,10:59:30:290,10:59:31:110,10:59:34:097,right,10:59:35:565,,2013_Jan_13_1010,59.9492109003,MP-Perception Experiment,xx31w44,
448,training(18).webm,True,right,2,vcgpdm_dyn(30)-lvm(5)_final(8).webm,0,129,129,38,,,,,,,,10:59:36:236,10:59:37:066,10:59:40:070,right,10:59:40:553,,2013_Jan_13_1010,59.9492109003,MP-Perception Experiment,xx31w44,
449,vgpdm_dyn(20)-lvm(5)_final(7).webm,False,left,2,training(20).webm,0,130,130,139,,,,,,,,10:59:41:231,10:59:42:054,10:59:45:057,right,10:59:45:591,,2013_Jan_13_1010,59.9492109003,MP-Perception Experiment,xx31w44,
450,vcgpdm_dyn(10)-lvm(30)_final(9).webm,True,left,2,training(28).webm,0,131,131,113,,,,,,,,10:59:46:269,10:59:47:092,10:59:50:094,left,10:59:50:511,,2013_Jan_13_1010,59.9492109003,MP-Perception Experiment,xx31w44,
451,training(35).webm,True,right,2,dmp_npsi(40)_final(8).webm,0,132,132,87,,,,,,,,10:59:51:195,10:59:52:013,10:59:55:015,right,10:59:55:600,,2013_Jan_13_1010,59.9492109003,MP-Perception Experiment,xx31w44,
452,vgpdm_dyn(20)-lvm(35)_final(5).webm,False,left,2,training(12).webm,0,133,133,55,,,,,,,,10:59:56:277,10:59:57:101,11:00:00:104,left,11:00:00:604,,2013_Jan_13_1010,59.9492109003,MP-Perception Experiment,xx31w44,
453,vgpdm_dyn(15)-lvm(25)_final(0).webm,False,left,2,training(32).webm,0,134,134,27,,,,,,,,11:00:01:274,11:00:02:105,11:00:05:108,right,11:00:05:424,,2013_Jan_13_1010,59.9492109003,MP-Perception Experiment,xx31w44,
454,vgpdm_dyn(15)-lvm(15)_final(0).webm,True,left,2,training(3).webm,0,135,135,83,,,,,,,,11:00:06:109,11:00:06:926,11:00:09:928,right,11:00:10:343,,2013_Jan_13_1010,59.9492109003,MP-Perception Experiment,xx31w44,
455,dmp_npsi(30)_final(0).webm,True,left,2,training(23).webm,0,136,136,133,,,,,,,,11:00:11:023,11:00:11:844,11:00:14:848,left,11:00:15:432,,2013_Jan_13_1010,59.9492109003,MP-Perception Experiment,xx31w44,
456,training(12).webm,True,right,2,vcgpdm_dyn(20)-lvm(30)_final(8).webm,0,137,137,18,,,,,,,,11:00:16:113,11:00:16:933,11:00:19:935,right,11:00:20:419,,2013_Jan_13_1010,59.9492109003,MP-Perception Experiment,xx31w44,
457,tmp_numprim(2)_final(6).webm,True,left,2,training(1).webm,0,138,138,145,,,,,,,,11:00:21:093,11:00:21:920,11:00:24:908,left,11:00:25:625,,2013_Jan_13_1010,59.9492109003,MP-Perception Experiment,xx31w44,
458,training(48).webm,True,right,2,vcgpdm_dyn(15)-lvm(10)_final(0).webm,0,139,139,17,,,,,,,,11:00:26:325,11:00:27:126,11:00:30:130,right,11:00:30:764,,2013_Jan_13_1010,59.9492109003,MP-Perception Experiment,xx31w44,
459,training(40).webm,False,right,2,vcgpdm_dyn(25)-lvm(35)_final(8).webm,0,140,140,30,,,,,,,,11:00:31:438,11:00:32:265,11:00:35:267,right,11:00:37:019,,2013_Jan_13_1010,59.9492109003,MP-Perception Experiment,xx31w44,
460,vcgpdm_dyn(35)-lvm(30)_final(6).webm,True,left,2,training(0).webm,0,141,141,31,,,,,,,,11:00:37:693,11:00:38:520,11:00:41:522,left,11:00:42:156,,2013_Jan_13_1010,59.9492109003,MP-Perception Experiment,xx31w44,
461,vgpdm_dyn(25)-lvm(5)_final(2).webm,True,left,2,training(5).webm,0,142,142,149,,,,,,,,11:00:42:839,11:00:43:657,11:00:46:660,left,11:00:47:143,,2013_Jan_13_1010,59.9492109003,MP-Perception Experiment,xx31w44,
462,vgpdm_dyn(25)-lvm(20)_final(2).webm,True,left,2,training(14).webm,0,143,143,86,,,,,,,,11:00:47:819,11:00:48:646,11:00:51:648,left,11:00:52:165,,2013_Jan_13_1010,59.9492109003,MP-Perception Experiment,xx31w44,
463,vcgpdm_dyn(15)-lvm(30)_final(0).webm,True,left,2,training(16).webm,0,144,144,40,,,,,,,,11:00:52:846,11:00:53:666,11:00:56:669,left,11:00:57:286,,2013_Jan_13_1010,59.9492109003,MP-Perception Experiment,xx31w44,
464,vcgpdm_dyn(20)-lvm(20)_final(6).webm,True,left,2,training(18).webm,0,145,145,36,,,,,,,,11:00:57:971,11:00:58:787,11:01:01:788,left,11:01:02:805,,2013_Jan_13_1010,59.9492109003,MP-Perception Experiment,xx31w44,
465,vcgpdm_dyn(25)-lvm(15)_final(6).webm,True,left,2,training(21).webm,0,146,146,125,,,,,,,,11:01:03:649,11:01:04:306,11:01:07:310,left,11:01:09:395,,2013_Jan_13_1010,59.9492109003,MP-Perception Experiment,xx31w44,
466,vgpdm_dyn(5)-lvm(15)_final(5).webm,True,left,2,training(38).webm,0,147,147,10,,,,,,,,11:01:10:078,11:01:10:896,11:01:13:899,left,11:01:14:316,,2013_Jan_13_1010,59.9492109003,MP-Perception Experiment,xx31w44,
467,training(38).webm,True,right,2,vgpdm_dyn(35)-lvm(10)_final(5).webm,0,148,148,100,,,,,,,,11:01:14:997,11:01:15:819,11:01:18:821,right,11:01:19:321,,2013_Jan_13_1010,59.9492109003,MP-Perception Experiment,xx31w44,
468,training(48).webm,True,right,2,vgpdm_dyn(20)-lvm(15)_final(0).webm,0,149,149,68,,,,,,,,11:01:20:000,11:01:20:823,11:01:23:826,left,11:01:24:143,,2013_Jan_13_1010,59.9492109003,MP-Perception Experiment,xx31w44,
469,dmp_npsi(20)_final(7).webm,True,left,2,training(24).webm,0,150,150,131,,,,,,,,11:01:24:827,11:01:25:644,11:01:28:646,left,11:01:29:180,,2013_Jan_13_1010,59.9492109003,MP-Perception Experiment,xx31w44,
