n_trial,mov_file_generated,mov_file_natural,mirrored,switch_stim_pos,correct_answer,trials.thisRepN,trials.thisTrialN,trials.thisN,trials.thisIndex,stimulus_onset,stimulus_off,stimulus_length,block,response.keys,response.corr,response.rt,age,gender,condition,participant,date,expName,frameRate,
1,resources/videos_generated\model(vcgpdm)-dataset(walking)-mode(ELBO)-parts(2)-dyn(24)-lvm(19)_final(5).mov,resources/videos_natural\training(38).mov,True,False,right,0,0,0,0,2018-09-19 14:05:27.274187,2018-09-19 14:05:31.895451,0:00:04.621264,1,right,1,1.4334588209783306,21,f,1,10,2018_Sep_19_1404,MP_PerceptionTuring2,59.941473488847386,
2,resources/videos_generated\model(vcgpdm)-dataset(walking)-mode(ELBO)-parts(1)-dyn(28)-lvm(23)_final(1).mov,resources/videos_natural\training(6).mov,False,True,left,0,1,1,1,2018-09-19 14:05:34.447597,2018-09-19 14:05:38.366821,0:00:03.919224,1,left,1,1.0344562971707774,21,f,1,10,2018_Sep_19_1404,MP_PerceptionTuring2,59.941473488847386,
3,resources/videos_generated\model(vcgpdm)-dataset(walking)-mode(ELBO)-parts(1)-dyn(25)-lvm(28)_final(6).mov,resources/videos_natural\training(29).mov,True,False,right,0,2,2,2,2018-09-19 14:05:40.585948,2018-09-19 14:05:44.506173,0:00:03.920225,1,left,0,1.601595299333212,21,f,1,10,2018_Sep_19_1404,MP_PerceptionTuring2,59.941473488847386,
4,resources/videos_generated\model(vcgpdm)-dataset(walking)-mode(ELBO)-parts(2)-dyn(26)-lvm(17)_final(3).mov,resources/videos_natural\training(21).mov,True,True,left,0,3,3,3,2018-09-19 14:05:47.224328,2018-09-19 14:05:51.128551,0:00:03.904223,1,right,0,0.9010733711201624,21,f,1,10,2018_Sep_19_1404,MP_PerceptionTuring2,59.941473488847386,
5,resources/videos_generated\model(vcgpdm)-dataset(walking)-mode(ELBO)-parts(1)-dyn(27)-lvm(24)_final(1).mov,resources/videos_natural\training(12).mov,False,True,left,0,4,4,4,2018-09-19 14:05:53.146667,2018-09-19 14:05:57.249901,0:00:04.103234,1,left,1,1.1012134153319835,21,f,1,10,2018_Sep_19_1404,MP_PerceptionTuring2,59.941473488847386,
6,resources/videos_generated\model(dmp)-dataset(walking)-npsi(50)_final(2).mov,resources/videos_natural\training(35).mov,False,True,left,0,5,5,5,2018-09-19 14:05:59.469028,2018-09-19 14:06:03.539261,0:00:04.070233,1,left,1,1.184653563748725,21,f,1,10,2018_Sep_19_1404,MP_PerceptionTuring2,59.941473488847386,
7,resources/videos_generated\model(vcgpdm)-dataset(walking)-mode(ELBO)-parts(2)-dyn(25)-lvm(22)_final(3).mov,resources/videos_natural\training(27).mov,False,False,right,0,6,6,6,2018-09-19 14:06:05.841393,2018-09-19 14:06:09.760617,0:00:03.919224,1,right,1,0.15027135448349327,21,f,1,10,2018_Sep_19_1404,MP_PerceptionTuring2,59.941473488847386,
8,resources/videos_generated\model(vcgpdm)-dataset(walking)-mode(ELBO)-parts(2)-dyn(28)-lvm(23)_final(7).mov,resources/videos_natural\training(41).mov,True,True,left,0,7,7,7,2018-09-19 14:06:11.028690,2018-09-19 14:06:15.115923,0:00:04.087233,1,left,1,1.0844433468458874,21,f,1,10,2018_Sep_19_1404,MP_PerceptionTuring2,59.941473488847386,
9,resources/videos_generated\model(vcgpdm)-dataset(walking)-mode(ELBO)-parts(2)-dyn(22)-lvm(21)_final(7).mov,resources/videos_natural\training(13).mov,False,False,right,0,8,8,8,2018-09-19 14:06:17.317049,2018-09-19 14:06:21.221273,0:00:03.904224,1,right,1,0.4007194959613116,21,f,1,10,2018_Sep_19_1404,MP_PerceptionTuring2,59.941473488847386,
10,resources/videos_generated\model(vcgpdm)-dataset(walking)-mode(ELBO)-parts(1)-dyn(27)-lvm(24)_final(3).mov,resources/videos_natural\training(22).mov,False,False,right,0,9,9,9,2018-09-19 14:06:22.738359,2018-09-19 14:06:26.642583,0:00:03.904224,1,right,1,0.7675711816117428,21,f,1,10,2018_Sep_19_1404,MP_PerceptionTuring2,59.941473488847386,
11,resources/videos_generated\model(vcgpdm)-dataset(walking)-mode(ELBO)-parts(1)-dyn(24)-lvm(27)_final(2).mov,resources/videos_natural\training(0).mov,True,False,right,0,10,10,10,2018-09-19 14:06:28.526690,2018-09-19 14:06:32.596923,0:00:04.070233,1,left,0,0.617413669519749,21,f,1,10,2018_Sep_19_1404,MP_PerceptionTuring2,59.941473488847386,
12,resources/videos_generated\model(vcgpdm)-dataset(walking)-mode(ELBO)-parts(2)-dyn(27)-lvm(20)_final(3).mov,resources/videos_natural\training(7).mov,False,True,left,0,11,11,11,2018-09-19 14:06:34.332022,2018-09-19 14:06:38.369253,0:00:04.037231,1,right,0,0.7008920665707024,21,f,1,10,2018_Sep_19_1404,MP_PerceptionTuring2,59.941473488847386,
13,resources/videos_generated\model(vcgpdm)-dataset(walking)-mode(ELBO)-parts(1)-dyn(27)-lvm(22)_final(5).mov,resources/videos_natural\training(18).mov,True,True,left,0,12,12,12,2018-09-19 14:06:40.187357,2018-09-19 14:06:44.257590,0:00:04.070233,1,left,1,0.4339596672670041,21,f,1,10,2018_Sep_19_1404,MP_PerceptionTuring2,59.941473488847386,
14,resources/videos_generated\model(vcgpdm)-dataset(walking)-mode(ELBO)-parts(2)-dyn(24)-lvm(19)_final(3).mov,resources/videos_natural\training(27).mov,True,False,right,0,13,13,13,2018-09-19 14:06:45.808679,2018-09-19 14:06:49.728903,0:00:03.920224,1,left,0,0.517318499689793,21,f,1,10,2018_Sep_19_1404,MP_PerceptionTuring2,59.941473488847386,
15,resources/videos_generated\model(vcgpdm)-dataset(walking)-mode(ELBO)-parts(2)-dyn(26)-lvm(23)_final(1).mov,resources/videos_natural\training(28).mov,False,False,right,0,14,14,14,2018-09-19 14:06:51.363997,2018-09-19 14:06:55.267220,0:00:03.903223,1,right,1,0.850944169040929,21,f,1,10,2018_Sep_19_1404,MP_PerceptionTuring2,59.941473488847386,
16,resources/videos_generated\model(dmp)-dataset(walking)-npsi(80)_final(4).mov,resources/videos_natural\training(8).mov,False,False,right,0,15,15,15,2018-09-19 14:06:57.235332,2018-09-19 14:07:01.288564,0:00:04.053232,1,left,0,0.667396502809936,21,f,1,10,2018_Sep_19_1404,MP_PerceptionTuring2,59.941473488847386,
17,resources/videos_generated\model(vcgpdm)-dataset(walking)-mode(ELBO)-parts(1)-dyn(23)-lvm(22)_final(1)_fail.mov,resources/videos_natural\training(32).mov,True,True,left,0,16,16,16,2018-09-19 14:07:03.073666,2018-09-19 14:07:07.160900,0:00:04.087234,1,left,1,0.6007131713839726,21,f,1,10,2018_Sep_19_1404,MP_PerceptionTuring2,59.941473488847386,
18,resources/videos_generated\model(vcgpdm)-dataset(walking)-mode(ELBO)-parts(2)-dyn(24)-lvm(17)_final(7).mov,resources/videos_natural\training(16).mov,False,False,right,0,17,17,17,2018-09-19 14:07:08.878998,2018-09-19 14:07:12.965232,0:00:04.086234,1,left,0,0.46726338551610525,21,f,1,10,2018_Sep_19_1404,MP_PerceptionTuring2,59.941473488847386,
19,resources/videos_generated\model(vcgpdm)-dataset(walking)-mode(ELBO)-parts(1)-dyn(23)-lvm(26)_final(5)_hip-corrected.mov,resources/videos_natural\training(41).mov,True,False,right,0,18,18,18,2018-09-19 14:07:14.550323,2018-09-19 14:07:18.570553,0:00:04.020230,1,right,1,0.5008839349712844,21,f,1,10,2018_Sep_19_1404,MP_PerceptionTuring2,59.941473488847386,
20,resources/videos_generated\model(vcgpdm)-dataset(walking)-mode(ELBO)-parts(2)-dyn(22)-lvm(17)_final(7).mov,resources/videos_natural\training(38).mov,False,True,left,0,19,19,19,2018-09-19 14:07:20.188645,2018-09-19 14:07:24.124870,0:00:03.936225,1,right,0,0.46732934182227837,21,f,1,10,2018_Sep_19_1404,MP_PerceptionTuring2,59.941473488847386,
21,resources/videos_generated\model(vcgpdm)-dataset(walking)-mode(ELBO)-parts(1)-dyn(27)-lvm(28)_final(5).mov,resources/videos_natural\training(33).mov,True,False,right,0,20,20,20,2018-09-19 14:07:25.709961,2018-09-19 14:07:29.813196,0:00:04.103235,1,right,1,0.05025659713646746,21,f,1,10,2018_Sep_19_1404,MP_PerceptionTuring2,59.941473488847386,
22,resources/videos_generated\model(vcgpdm)-dataset(walking)-mode(ELBO)-parts(1)-dyn(23)-lvm(28)_final(0).mov,resources/videos_natural\training(48).mov,False,False,right,0,21,21,21,2018-09-19 14:07:30.981263,2018-09-19 14:07:34.884486,0:00:03.903223,1,right,1,0.4340623663556471,21,f,1,10,2018_Sep_19_1404,MP_PerceptionTuring2,59.941473488847386,
23,resources/videos_generated\model(vcgpdm)-dataset(walking)-mode(ELBO)-parts(2)-dyn(24)-lvm(19)_final(9).mov,resources/videos_natural\training(8).mov,False,False,right,0,22,22,22,2018-09-19 14:07:36.435575,2018-09-19 14:07:40.489806,0:00:04.054231,1,right,1,0.9845439377420462,21,f,1,10,2018_Sep_19_1404,MP_PerceptionTuring2,59.941473488847386,
24,resources/videos_generated\model(vcgpdm)-dataset(walking)-mode(ELBO)-parts(1)-dyn(27)-lvm(26)_final(1).mov,resources/videos_natural\training(27).mov,False,True,left,0,23,23,23,2018-09-19 14:07:42.590927,2018-09-19 14:07:46.511151,0:00:03.920224,1,left,1,0.7009757919274193,21,f,1,10,2018_Sep_19_1404,MP_PerceptionTuring2,59.941473488847386,
25,resources/videos_generated\model(vcgpdm)-dataset(walking)-mode(ELBO)-parts(2)-dyn(28)-lvm(17)_final(5).mov,resources/videos_natural\training(34).mov,True,False,right,0,24,24,24,2018-09-19 14:07:48.329255,2018-09-19 14:07:52.416489,0:00:04.087234,1,left,0,0.4005580686547887,21,f,1,10,2018_Sep_19_1404,MP_PerceptionTuring2,59.941473488847386,
26,resources/videos_generated\model(vcgpdm)-dataset(walking)-mode(ELBO)-parts(2)-dyn(22)-lvm(19)_final(7).mov,resources/videos_natural\training(46).mov,False,True,left,0,25,25,25,2018-09-19 14:07:53.934575,2018-09-19 14:07:57.854800,0:00:03.920225,1,left,1,0.4173121751124995,21,f,1,10,2018_Sep_19_1404,MP_PerceptionTuring2,59.941473488847386,
27,resources/videos_generated\model(vcgpdm)-dataset(walking)-mode(ELBO)-parts(2)-dyn(28)-lvm(21)_final(3).mov,resources/videos_natural\training(1).mov,True,False,right,0,26,26,26,2018-09-19 14:07:59.388887,2018-09-19 14:08:03.476121,0:00:04.087234,1,left,0,0.3838786524433999,21,f,1,10,2018_Sep_19_1404,MP_PerceptionTuring2,59.941473488847386,
28,resources/videos_generated\model(vcgpdm)-dataset(walking)-mode(ELBO)-parts(1)-dyn(25)-lvm(22)_final(0).mov,resources/videos_natural\training(5).mov,True,False,right,0,27,27,27,2018-09-19 14:08:04.977207,2018-09-19 14:08:08.914432,0:00:03.937225,1,right,1,0.6508360488859921,21,f,1,10,2018_Sep_19_1404,MP_PerceptionTuring2,59.941473488847386,
29,resources/videos_generated\model(vcgpdm)-dataset(walking)-mode(ELBO)-parts(2)-dyn(27)-lvm(20)_final(9).mov,resources/videos_natural\training(40).mov,True,False,right,0,28,28,28,2018-09-19 14:08:10.682533,2018-09-19 14:08:14.735765,0:00:04.053232,1,left,0,0.767457941560906,21,f,1,10,2018_Sep_19_1404,MP_PerceptionTuring2,59.941473488847386,
30,resources/videos_generated\model(vcgpdm)-dataset(walking)-mode(ELBO)-parts(1)-dyn(25)-lvm(22)_final(4).mov,resources/videos_natural\training(42).mov,True,False,right,0,29,29,29,2018-09-19 14:08:16.620873,2018-09-19 14:08:20.691106,0:00:04.070233,1,left,0,0.46758262608500445,21,f,1,10,2018_Sep_19_1404,MP_PerceptionTuring2,59.941473488847386,
31,resources/videos_generated\model(vcgpdm)-dataset(walking)-mode(ELBO)-parts(2)-dyn(22)-lvm(23)_final(1).mov,resources/videos_natural\training(46).mov,True,True,left,0,30,30,30,2018-09-19 14:08:22.275196,2018-09-19 14:08:26.212422,0:00:03.937226,1,left,1,0.3838894945758966,21,f,1,10,2018_Sep_19_1404,MP_PerceptionTuring2,59.941473488847386,
32,resources/videos_generated\model(vcgpdm)-dataset(walking)-mode(ELBO)-parts(2)-dyn(26)-lvm(21)_final(9).mov,resources/videos_natural\training(2).mov,True,False,right,0,31,31,31,2018-09-19 14:08:27.713507,2018-09-19 14:08:31.766739,0:00:04.053232,1,left,0,0.3838431143424259,21,f,1,10,2018_Sep_19_1404,MP_PerceptionTuring2,59.941473488847386,
33,resources/videos_generated\model(vcgpdm)-dataset(walking)-mode(ELBO)-parts(1)-dyn(26)-lvm(22)_final(7).mov,resources/videos_natural\training(30).mov,False,False,right,0,32,32,32,2018-09-19 14:08:33.268825,2018-09-19 14:08:37.339058,0:00:04.070233,1,right,1,0.35049783458521233,21,f,1,10,2018_Sep_19_1404,MP_PerceptionTuring2,59.941473488847386,
34,resources/videos_generated\model(vcgpdm)-dataset(walking)-mode(ELBO)-parts(1)-dyn(24)-lvm(25)_final(8).mov,resources/videos_natural\training(30).mov,False,False,right,0,33,33,33,2018-09-19 14:08:38.806142,2018-09-19 14:08:42.726366,0:00:03.920224,1,right,1,0.5674266198446958,21,f,1,10,2018_Sep_19_1404,MP_PerceptionTuring2,59.941473488847386,
35,resources/videos_generated\model(tmp)-dataset(walking)-numprim(15)_final(2).mov,resources/videos_natural\training(26).mov,True,True,left,0,34,34,34,2018-09-19 14:08:44.411463,2018-09-19 14:08:48.464694,0:00:04.053231,1,left,1,0.2837196344996755,21,f,1,10,2018_Sep_19_1404,MP_PerceptionTuring2,59.941473488847386,
36,resources/videos_generated\model(vcgpdm)-dataset(walking)-mode(ELBO)-parts(1)-dyn(28)-lvm(27)_final(5).mov,resources/videos_natural\training(41).mov,True,False,right,0,35,35,35,2018-09-19 14:08:49.865775,2018-09-19 14:08:53.820001,0:00:03.954226,1,left,0,1.3014356790487227,21,f,1,10,2018_Sep_19_1404,MP_PerceptionTuring2,59.941473488847386,
37,resources/videos_generated\model(vcgpdm)-dataset(walking)-mode(ELBO)-parts(1)-dyn(22)-lvm(22)_final(4).mov,resources/videos_natural\training(19).mov,False,True,left,0,36,36,36,2018-09-19 14:08:56.238139,2018-09-19 14:09:00.241368,0:00:04.003229,1,left,1,0.450707750317747,21,f,1,10,2018_Sep_19_1404,MP_PerceptionTuring2,59.941473488847386,
38,resources/videos_generated\model(vcgpdm)-dataset(walking)-mode(ELBO)-parts(2)-dyn(27)-lvm(20)_final(7).mov,resources/videos_natural\training(46).mov,False,False,right,0,37,37,37,2018-09-19 14:09:01.809458,2018-09-19 14:09:05.846689,0:00:04.037231,1,right,1,0.4672742276486588,21,f,1,10,2018_Sep_19_1404,MP_PerceptionTuring2,59.941473488847386,
39,resources/videos_generated\model(vcgpdm)-dataset(walking)-mode(ELBO)-parts(2)-dyn(28)-lvm(19)_final(1).mov,resources/videos_natural\training(28).mov,True,False,right,0,38,38,38,2018-09-19 14:09:07.430779,2018-09-19 14:09:11.535014,0:00:04.104235,1,left,0,1.2680614869382225,21,f,1,10,2018_Sep_19_1404,MP_PerceptionTuring2,59.941473488847386,
40,resources/videos_generated\model(vcgpdm)-dataset(walking)-mode(ELBO)-parts(1)-dyn(26)-lvm(23)_final(7).mov,resources/videos_natural\training(48).mov,False,True,left,0,39,39,39,2018-09-19 14:09:13.920150,2018-09-19 14:09:17.840375,0:00:03.920225,1,right,0,1.067798565224507,21,f,1,10,2018_Sep_19_1404,MP_PerceptionTuring2,59.941473488847386,
41,resources/videos_generated\model(dmp)-dataset(walking)-npsi(50)_final(4).mov,resources/videos_natural\training(35).mov,True,False,right,0,40,40,40,2018-09-19 14:09:20.025500,2018-09-19 14:09:23.978726,0:00:03.953226,1,right,1,0.8008625518766621,21,f,1,10,2018_Sep_19_1404,MP_PerceptionTuring2,59.941473488847386,
42,resources/videos_generated\model(vcgpdm)-dataset(walking)-mode(ELBO)-parts(1)-dyn(22)-lvm(23)_final(2).mov,resources/videos_natural\training(2).mov,True,True,left,0,41,41,41,2018-09-19 14:09:25.896835,2018-09-19 14:09:29.817060,0:00:03.920225,1,left,1,0.4673687951379861,21,f,1,10,2018_Sep_19_1404,MP_PerceptionTuring2,59.941473488847386,
43,resources/videos_generated\model(vcgpdm)-dataset(walking)-mode(ELBO)-parts(1)-dyn(23)-lvm(22)_final(9)_fail.mov,resources/videos_natural\training(39).mov,True,True,left,0,42,42,42,2018-09-19 14:09:31.402150,2018-09-19 14:09:35.488384,0:00:04.086234,1,left,1,0.4340982056270377,21,f,1,10,2018_Sep_19_1404,MP_PerceptionTuring2,59.941473488847386,
44,resources/videos_generated\model(vcgpdm)-dataset(walking)-mode(ELBO)-parts(1)-dyn(24)-lvm(23)_final(2).mov,resources/videos_natural\training(25).mov,False,False,right,0,43,43,43,2018-09-19 14:09:37.040473,2018-09-19 14:09:41.143707,0:00:04.103234,1,left,0,0.6007306392641567,21,f,1,10,2018_Sep_19_1404,MP_PerceptionTuring2,59.941473488847386,
45,resources/videos_generated\model(vcgpdm)-dataset(walking)-mode(ELBO)-parts(1)-dyn(28)-lvm(27)_final(3).mov,resources/videos_natural\training(4).mov,True,True,left,0,44,44,44,2018-09-19 14:09:42.861806,2018-09-19 14:09:46.949040,0:00:04.087234,1,right,0,0.450518615339206,21,f,1,10,2018_Sep_19_1404,MP_PerceptionTuring2,59.941473488847386,
46,resources/videos_generated\model(dmp)-dataset(walking)-npsi(50)_final(0).mov,resources/videos_natural\training(13).mov,True,True,left,0,45,45,45,2018-09-19 14:10:20.894981,2018-09-19 14:10:24.798204,0:00:03.903223,2,left,1,0.5172814557370202,21,f,1,10,2018_Sep_19_1404,MP_PerceptionTuring2,59.941473488847386,
47,resources/videos_generated\model(vcgpdm)-dataset(walking)-mode(ELBO)-parts(2)-dyn(28)-lvm(19)_final(9).mov,resources/videos_natural\training(25).mov,False,False,right,0,46,46,46,2018-09-19 14:10:26.433298,2018-09-19 14:10:30.369523,0:00:03.936225,2,right,1,0.5006556478475659,21,f,1,10,2018_Sep_19_1404,MP_PerceptionTuring2,59.941473488847386,
48,resources/videos_generated\model(tmp)-dataset(walking)-numprim(11)_final(2).mov,resources/videos_natural\training(8).mov,True,True,left,0,47,47,47,2018-09-19 14:10:31.987616,2018-09-19 14:10:35.890839,0:00:03.903223,2,right,0,0.4672573621091942,21,f,1,10,2018_Sep_19_1404,MP_PerceptionTuring2,59.941473488847386,
49,resources/videos_generated\model(vcgpdm)-dataset(walking)-mode(ELBO)-parts(2)-dyn(28)-lvm(23)_final(3).mov,resources/videos_natural\training(48).mov,True,True,left,0,48,48,48,2018-09-19 14:10:37.475929,2018-09-19 14:10:41.379153,0:00:03.903224,2,right,0,0.6507071479769593,21,f,1,10,2018_Sep_19_1404,MP_PerceptionTuring2,59.941473488847386,
50,resources/videos_generated\model(vcgpdm)-dataset(walking)-mode(ELBO)-parts(2)-dyn(23)-lvm(18)_final(3).mov,resources/videos_natural\training(43).mov,True,True,left,0,49,49,49,2018-09-19 14:10:43.147254,2018-09-19 14:10:47.100480,0:00:03.953226,2,left,1,0.45065534667719476,21,f,1,10,2018_Sep_19_1404,MP_PerceptionTuring2,59.941473488847386,
51,resources/videos_generated\model(vcgpdm)-dataset(walking)-mode(ELBO)-parts(2)-dyn(23)-lvm(18)_final(1).mov,resources/videos_natural\training(36).mov,False,False,right,0,50,50,50,2018-09-19 14:10:48.668570,2018-09-19 14:10:52.605795,0:00:03.937225,2,right,1,0.4672974177655078,21,f,1,10,2018_Sep_19_1404,MP_PerceptionTuring2,59.941473488847386,
52,resources/videos_generated\model(vcgpdm)-dataset(walking)-mode(ELBO)-parts(1)-dyn(27)-lvm(22)_final(9).mov,resources/videos_natural\training(11).mov,True,True,left,0,51,51,51,2018-09-19 14:10:54.189885,2018-09-19 14:10:58.110110,0:00:03.920225,2,right,0,0.15039603900754628,21,f,1,10,2018_Sep_19_1404,MP_PerceptionTuring2,59.941473488847386,
53,resources/videos_generated\model(vcgpdm)-dataset(walking)-mode(ELBO)-parts(2)-dyn(28)-lvm(17)_final(9).mov,resources/videos_natural\training(15).mov,False,False,right,0,52,52,52,2018-09-19 14:10:59.378182,2018-09-19 14:11:03.281405,0:00:03.903223,2,right,1,0.4173236195856589,21,f,1,10,2018_Sep_19_1404,MP_PerceptionTuring2,59.941473488847386,
54,resources/videos_generated\model(vcgpdm)-dataset(walking)-mode(ELBO)-parts(1)-dyn(23)-lvm(28)_final(4)_hip-corrected.mov,resources/videos_natural\training(10).mov,True,False,right,0,53,53,53,2018-09-19 14:11:04.816493,2018-09-19 14:11:09.219745,0:00:04.403252,2,right,1,0.3671892976105937,21,f,1,10,2018_Sep_19_1404,MP_PerceptionTuring2,59.941473488847386,
55,resources/videos_generated\model(vcgpdm)-dataset(walking)-mode(ELBO)-parts(1)-dyn(24)-lvm(23)_final(0).mov,resources/videos_natural\training(24).mov,True,False,right,0,54,54,54,2018-09-19 14:11:10.704830,2018-09-19 14:11:14.608053,0:00:03.903223,2,left,0,0.450598124311,21,f,1,10,2018_Sep_19_1404,MP_PerceptionTuring2,59.941473488847386,
56,resources/videos_generated\model(vcgpdm)-dataset(walking)-mode(ELBO)-parts(2)-dyn(26)-lvm(19)_final(5).mov,resources/videos_natural\training(31).mov,True,True,left,0,55,55,55,2018-09-19 14:11:16.176143,2018-09-19 14:11:20.096367,0:00:03.920224,2,right,0,0.500777320668135,21,f,1,10,2018_Sep_19_1404,MP_PerceptionTuring2,59.941473488847386,
57,resources/videos_generated\model(vcgpdm)-dataset(walking)-mode(ELBO)-parts(2)-dyn(26)-lvm(17)_final(9).mov,resources/videos_natural\training(48).mov,False,False,right,0,56,56,56,2018-09-19 14:11:21.714460,2018-09-19 14:11:25.634684,0:00:03.920224,2,left,0,0.4006520338034534,21,f,1,10,2018_Sep_19_1404,MP_PerceptionTuring2,59.941473488847386,
58,resources/videos_generated\model(vcgpdm)-dataset(walking)-mode(ELBO)-parts(1)-dyn(23)-lvm(22)_final(5)_fail.mov,resources/videos_natural\training(6).mov,False,True,left,0,57,57,57,2018-09-19 14:11:27.151771,2018-09-19 14:11:31.054994,0:00:03.903223,2,left,1,0.46739800866168935,21,f,1,10,2018_Sep_19_1404,MP_PerceptionTuring2,59.941473488847386,
59,resources/videos_generated\model(vcgpdm)-dataset(walking)-mode(ELBO)-parts(2)-dyn(24)-lvm(23)_final(9).mov,resources/videos_natural\training(2).mov,True,False,right,0,58,58,58,2018-09-19 14:11:32.640085,2018-09-19 14:11:36.543308,0:00:03.903223,2,right,1,0.28379763761972754,21,f,1,10,2018_Sep_19_1404,MP_PerceptionTuring2,59.941473488847386,
60,resources/videos_generated\model(vcgpdm)-dataset(walking)-mode(ELBO)-parts(1)-dyn(28)-lvm(25)_final(1).mov,resources/videos_natural\training(24).mov,True,True,left,0,59,59,59,2018-09-19 14:11:37.944388,2018-09-19 14:11:41.864612,0:00:03.920224,2,right,0,0.4171820695221413,21,f,1,10,2018_Sep_19_1404,MP_PerceptionTuring2,59.941473488847386,
61,resources/videos_generated\model(vcgpdm)-dataset(walking)-mode(ELBO)-parts(1)-dyn(26)-lvm(25)_final(3).mov,resources/videos_natural\training(7).mov,True,True,left,0,60,60,60,2018-09-19 14:11:43.399700,2018-09-19 14:11:47.302923,0:00:03.903223,2,left,1,0.4008989934886813,21,f,1,10,2018_Sep_19_1404,MP_PerceptionTuring2,59.941473488847386,
62,resources/videos_generated\model(tmp)-dataset(walking)-numprim(12)_final(4).mov,resources/videos_natural\training(32).mov,False,False,right,0,61,61,61,2018-09-19 14:11:48.821010,2018-09-19 14:11:52.741234,0:00:03.920224,2,left,0,0.283845222534751,21,f,1,10,2018_Sep_19_1404,MP_PerceptionTuring2,59.941473488847386,
63,resources/videos_generated\model(vcgpdm)-dataset(walking)-mode(ELBO)-parts(1)-dyn(25)-lvm(28)_final(8).mov,resources/videos_natural\training(39).mov,True,False,right,0,62,62,62,2018-09-19 14:11:54.142315,2018-09-19 14:11:58.062539,0:00:03.920224,2,right,1,0.33394882513448465,21,f,1,10,2018_Sep_19_1404,MP_PerceptionTuring2,59.941473488847386,
64,resources/videos_generated\model(vcgpdm)-dataset(walking)-mode(ELBO)-parts(2)-dyn(26)-lvm(19)_final(1).mov,resources/videos_natural\training(46).mov,False,True,left,0,63,63,63,2018-09-19 14:11:59.513622,2018-09-19 14:12:03.433846,0:00:03.920224,2,right,0,0.33387503839912824,21,f,1,10,2018_Sep_19_1404,MP_PerceptionTuring2,59.941473488847386,
65,resources/videos_generated\model(tmp)-dataset(walking)-numprim(11)_final(6).mov,resources/videos_natural\training(43).mov,False,False,right,0,64,64,64,2018-09-19 14:12:04.884929,2018-09-19 14:12:08.821154,0:00:03.936225,2,left,0,0.6173865641884504,21,f,1,10,2018_Sep_19_1404,MP_PerceptionTuring2,59.941473488847386,
66,resources/videos_generated\model(vcgpdm)-dataset(walking)-mode(ELBO)-parts(1)-dyn(26)-lvm(22)_final(0).mov,resources/videos_natural\training(2).mov,True,False,right,0,65,65,65,2018-09-19 14:12:10.556253,2018-09-19 14:12:14.493479,0:00:03.937226,2,right,1,0.45049482288175113,21,f,1,10,2018_Sep_19_1404,MP_PerceptionTuring2,59.941473488847386,
67,resources/videos_generated\model(vcgpdm)-dataset(walking)-mode(ELBO)-parts(1)-dyn(25)-lvm(22)_final(2).mov,resources/videos_natural\training(24).mov,True,True,left,0,66,66,66,2018-09-19 14:12:16.060568,2018-09-19 14:12:19.980792,0:00:03.920224,2,right,0,0.15041802444295627,21,f,1,10,2018_Sep_19_1404,MP_PerceptionTuring2,59.941473488847386,
68,resources/videos_generated\model(dmp)-dataset(walking)-npsi(70)_final(0).mov,resources/videos_natural\training(15).mov,True,False,right,0,67,67,67,2018-09-19 14:12:21.248865,2018-09-19 14:12:25.352100,0:00:04.103235,2,right,1,0.4839265385286353,21,f,1,10,2018_Sep_19_1404,MP_PerceptionTuring2,59.941473488847386,
69,resources/videos_generated\model(vcgpdm)-dataset(walking)-mode(ELBO)-parts(2)-dyn(25)-lvm(20)_final(7).mov,resources/videos_natural\training(33).mov,True,False,right,0,68,68,68,2018-09-19 14:12:26.954191,2018-09-19 14:12:30.840414,0:00:03.886223,2,right,1,0.3337949270867284,21,f,1,10,2018_Sep_19_1404,MP_PerceptionTuring2,59.941473488847386,
70,resources/videos_generated\model(tmp)-dataset(walking)-numprim(11)_final(4).mov,resources/videos_natural\training(8).mov,True,True,left,0,69,69,69,2018-09-19 14:12:32.291497,2018-09-19 14:12:36.261724,0:00:03.970227,2,right,0,0.30043639583414006,21,f,1,10,2018_Sep_19_1404,MP_PerceptionTuring2,59.941473488847386,
71,resources/videos_generated\model(vcgpdm)-dataset(walking)-mode(ELBO)-parts(2)-dyn(22)-lvm(23)_final(3).mov,resources/videos_natural\training(14).mov,True,False,right,0,70,70,70,2018-09-19 14:12:37.679805,2018-09-19 14:12:41.700035,0:00:04.020230,2,right,1,0.7341457905420157,21,f,1,10,2018_Sep_19_1404,MP_PerceptionTuring2,59.941473488847386,
72,resources/videos_generated\model(tmp)-dataset(walking)-numprim(12)_final(8).mov,resources/videos_natural\training(47).mov,False,False,right,0,71,71,71,2018-09-19 14:12:43.551141,2018-09-19 14:12:47.471365,0:00:03.920224,2,right,1,0.25050807437708045,21,f,1,10,2018_Sep_19_1404,MP_PerceptionTuring2,59.941473488847386,
73,resources/videos_generated\model(vcgpdm)-dataset(walking)-mode(ELBO)-parts(2)-dyn(25)-lvm(22)_final(7).mov,resources/videos_natural\training(20).mov,True,True,left,0,72,72,72,2018-09-19 14:12:48.839443,2018-09-19 14:12:52.942678,0:00:04.103235,2,left,1,0.38397231642159113,21,f,1,10,2018_Sep_19_1404,MP_PerceptionTuring2,59.941473488847386,
74,resources/videos_generated\model(vcgpdm)-dataset(walking)-mode(ELBO)-parts(1)-dyn(25)-lvm(28)_final(0).mov,resources/videos_natural\training(47).mov,False,False,right,0,73,73,73,2018-09-19 14:12:54.444764,2018-09-19 14:12:58.514996,0:00:04.070232,2,left,0,0.41723628018473846,21,f,1,10,2018_Sep_19_1404,MP_PerceptionTuring2,59.941473488847386,
75,resources/videos_generated\model(tmp)-dataset(walking)-numprim(15)_final(0).mov,resources/videos_natural\training(2).mov,False,False,right,0,74,74,74,2018-09-19 14:13:00.049084,2018-09-19 14:13:03.936307,0:00:03.887223,2,left,0,0.3675627488420332,21,f,1,10,2018_Sep_19_1404,MP_PerceptionTuring2,59.941473488847386,
76,resources/videos_generated\model(vcgpdm)-dataset(walking)-mode(ELBO)-parts(2)-dyn(24)-lvm(21)_final(1).mov,resources/videos_natural\training(25).mov,False,True,left,0,75,75,75,2018-09-19 14:13:05.420391,2018-09-19 14:13:09.323615,0:00:03.903224,2,right,0,0.48399369951630433,21,f,1,10,2018_Sep_19_1404,MP_PerceptionTuring2,59.941473488847386,
77,resources/videos_generated\model(vcgpdm)-dataset(walking)-mode(ELBO)-parts(2)-dyn(22)-lvm(19)_final(1).mov,resources/videos_natural\training(5).mov,True,True,left,0,76,76,76,2018-09-19 14:13:10.924706,2018-09-19 14:13:14.861931,0:00:03.937225,2,left,1,0.4340385738981922,21,f,1,10,2018_Sep_19_1404,MP_PerceptionTuring2,59.941473488847386,
78,resources/videos_generated\model(vcgpdm)-dataset(walking)-mode(ELBO)-parts(2)-dyn(24)-lvm(23)_final(5).mov,resources/videos_natural\training(30).mov,False,True,left,0,77,77,77,2018-09-19 14:13:16.413020,2018-09-19 14:13:20.333244,0:00:03.920224,2,left,1,0.36742119877851565,21,f,1,10,2018_Sep_19_1404,MP_PerceptionTuring2,59.941473488847386,
79,resources/videos_generated\model(vcgpdm)-dataset(walking)-mode(ELBO)-parts(2)-dyn(26)-lvm(19)_final(7).mov,resources/videos_natural\training(36).mov,True,False,right,0,78,78,78,2018-09-19 14:13:21.818329,2018-09-19 14:13:25.721553,0:00:03.903224,2,right,1,0.33373258482458823,21,f,1,10,2018_Sep_19_1404,MP_PerceptionTuring2,59.941473488847386,
80,resources/videos_generated\model(vcgpdm)-dataset(walking)-mode(ELBO)-parts(2)-dyn(22)-lvm(17)_final(1).mov,resources/videos_natural\training(47).mov,False,False,right,0,79,79,79,2018-09-19 14:13:27.172636,2018-09-19 14:13:31.109861,0:00:03.937225,2,right,1,0.2503451412187587,21,f,1,10,2018_Sep_19_1404,MP_PerceptionTuring2,59.941473488847386,
81,resources/videos_generated\model(vcgpdm)-dataset(walking)-mode(ELBO)-parts(1)-dyn(26)-lvm(25)_final(1).mov,resources/videos_natural\training(42).mov,False,True,left,0,80,80,80,2018-09-19 14:13:32.476939,2018-09-19 14:13:36.380162,0:00:03.903223,2,left,1,0.48391358820367714,21,f,1,10,2018_Sep_19_1404,MP_PerceptionTuring2,59.941473488847386,
82,resources/videos_generated\model(vcgpdm)-dataset(walking)-mode(ELBO)-parts(1)-dyn(22)-lvm(28)_final(7).mov,resources/videos_natural\training(32).mov,False,False,right,0,81,81,81,2018-09-19 14:13:37.982254,2018-09-19 14:13:41.902478,0:00:03.920224,2,left,0,0.4172660960492749,21,f,1,10,2018_Sep_19_1404,MP_PerceptionTuring2,59.941473488847386,
83,resources/videos_generated\model(vcgpdm)-dataset(walking)-mode(ELBO)-parts(2)-dyn(25)-lvm(18)_final(7).mov,resources/videos_natural\training(47).mov,False,True,left,0,82,82,82,2018-09-19 14:13:43.436566,2018-09-19 14:13:47.339789,0:00:03.903223,2,left,1,0.21706431191603315,21,f,1,10,2018_Sep_19_1404,MP_PerceptionTuring2,59.941473488847386,
84,resources/videos_generated\model(vcgpdm)-dataset(walking)-mode(ELBO)-parts(1)-dyn(22)-lvm(23)_final(4)_fail.mov,resources/videos_natural\training(8).mov,False,False,right,0,83,83,83,2018-09-19 14:13:48.674865,2018-09-19 14:13:52.561088,0:00:03.886223,2,right,1,0.3172356778441099,21,f,1,10,2018_Sep_19_1404,MP_PerceptionTuring2,59.941473488847386,
85,resources/videos_generated\model(vcgpdm)-dataset(walking)-mode(ELBO)-parts(2)-dyn(24)-lvm(21)_final(7).mov,resources/videos_natural\training(19).mov,False,False,right,0,84,84,84,2018-09-19 14:13:53.996170,2018-09-19 14:13:57.916394,0:00:03.920224,2,right,1,0.4008170751540092,21,f,1,10,2018_Sep_19_1404,MP_PerceptionTuring2,59.941473488847386,
86,resources/videos_generated\model(dmp)-dataset(walking)-npsi(70)_final(8).mov,resources/videos_natural\training(15).mov,True,True,left,0,85,85,85,2018-09-19 14:13:59.433481,2018-09-19 14:14:03.337704,0:00:03.904223,2,left,1,0.567394093447092,21,f,1,10,2018_Sep_19_1404,MP_PerceptionTuring2,59.941473488847386,
87,resources/videos_generated\model(dmp)-dataset(walking)-npsi(90)_final(8).mov,resources/videos_natural\training(4).mov,True,False,right,0,86,86,86,2018-09-19 14:14:05.021800,2018-09-19 14:14:08.959026,0:00:03.937226,2,right,1,0.4006926918003728,21,f,1,10,2018_Sep_19_1404,MP_PerceptionTuring2,59.941473488847386,
88,resources/videos_generated\model(vcgpdm)-dataset(walking)-mode(ELBO)-parts(1)-dyn(27)-lvm(28)_final(1).mov,resources/videos_natural\training(31).mov,False,False,right,0,87,87,87,2018-09-19 14:14:10.477112,2018-09-19 14:14:14.530344,0:00:04.053232,2,right,1,0.4671188237490469,21,f,1,10,2018_Sep_19_1404,MP_PerceptionTuring2,59.941473488847386,
89,resources/videos_generated\model(vcgpdm)-dataset(walking)-mode(ELBO)-parts(1)-dyn(25)-lvm(23)_final(0).mov,resources/videos_natural\training(34).mov,True,True,left,0,88,88,88,2018-09-19 14:14:16.114435,2018-09-19 14:14:20.018658,0:00:03.904223,2,left,1,0.3005198200205541,21,f,1,10,2018_Sep_19_1404,MP_PerceptionTuring2,59.941473488847386,
90,resources/videos_generated\model(vcgpdm)-dataset(walking)-mode(ELBO)-parts(1)-dyn(26)-lvm(25)_final(9).mov,resources/videos_natural\training(48).mov,True,False,right,0,89,89,89,2018-09-19 14:14:21.435739,2018-09-19 14:14:25.372964,0:00:03.937225,2,right,1,0.4341981941826134,21,f,1,10,2018_Sep_19_1404,MP_PerceptionTuring2,59.941473488847386,
91,resources/videos_generated\model(vcgpdm)-dataset(walking)-mode(ELBO)-parts(1)-dyn(22)-lvm(27)_final(8)_fail.mov,resources/videos_natural\training(16).mov,False,True,left,0,90,90,90,2018-09-19 14:15:00.085950,2018-09-19 14:15:03.989173,0:00:03.903223,3,left,1,0.4339223221437578,21,f,1,10,2018_Sep_19_1404,MP_PerceptionTuring2,59.941473488847386,
92,resources/videos_generated\model(vcgpdm)-dataset(walking)-mode(ELBO)-parts(2)-dyn(24)-lvm(21)_final(3).mov,resources/videos_natural\training(17).mov,True,True,left,0,91,91,91,2018-09-19 14:15:05.541262,2018-09-19 14:15:09.477487,0:00:03.936225,3,right,0,0.3504900041561996,21,f,1,10,2018_Sep_19_1404,MP_PerceptionTuring2,59.941473488847386,
93,resources/videos_generated\model(dmp)-dataset(walking)-npsi(90)_final(4).mov,resources/videos_natural\training(43).mov,True,False,right,0,92,92,92,2018-09-19 14:15:10.945571,2018-09-19 14:15:14.865795,0:00:03.920224,3,left,0,0.2504930158596608,21,f,1,10,2018_Sep_19_1404,MP_PerceptionTuring2,59.941473488847386,
94,resources/videos_generated\model(vcgpdm)-dataset(walking)-mode(ELBO)-parts(2)-dyn(28)-lvm(19)_final(7).mov,resources/videos_natural\training(25).mov,True,False,right,0,93,93,93,2018-09-19 14:15:16.233874,2018-09-19 14:15:20.120096,0:00:03.886222,3,left,0,0.26717514260417374,21,f,1,10,2018_Sep_19_1404,MP_PerceptionTuring2,59.941473488847386,
95,resources/videos_generated\model(vcgpdm)-dataset(walking)-mode(ELBO)-parts(1)-dyn(25)-lvm(28)_final(2).mov,resources/videos_natural\training(15).mov,True,True,left,0,94,94,94,2018-09-19 14:15:21.505175,2018-09-19 14:15:25.424399,0:00:03.919224,3,right,0,0.400620712087175,21,f,1,10,2018_Sep_19_1404,MP_PerceptionTuring2,59.941473488847386,
96,resources/videos_generated\model(vcgpdm)-dataset(walking)-mode(ELBO)-parts(2)-dyn(27)-lvm(18)_final(5).mov,resources/videos_natural\training(13).mov,True,True,left,0,95,95,95,2018-09-19 14:15:26.942486,2018-09-19 14:15:30.862710,0:00:03.920224,3,left,1,0.3178609074865335,21,f,1,10,2018_Sep_19_1404,MP_PerceptionTuring2,59.941473488847386,
97,resources/videos_generated\model(vcgpdm)-dataset(walking)-mode(ELBO)-parts(1)-dyn(27)-lvm(28)_final(7).mov,resources/videos_natural\training(23).mov,True,True,left,0,96,96,96,2018-09-19 14:15:32.297792,2018-09-19 14:15:36.384026,0:00:04.086234,3,right,0,0.31722363103017415,21,f,1,10,2018_Sep_19_1404,MP_PerceptionTuring2,59.941473488847386,
98,resources/videos_generated\model(vcgpdm)-dataset(walking)-mode(ELBO)-parts(1)-dyn(27)-lvm(22)_final(7).mov,resources/videos_natural\training(17).mov,True,False,right,0,97,97,97,2018-09-19 14:15:37.819108,2018-09-19 14:15:41.722331,0:00:03.903223,3,left,0,0.5006896800967979,21,f,1,10,2018_Sep_19_1404,MP_PerceptionTuring2,59.941473488847386,
99,resources/videos_generated\model(vcgpdm)-dataset(walking)-mode(ELBO)-parts(2)-dyn(22)-lvm(19)_final(3).mov,resources/videos_natural\training(0).mov,False,True,left,0,98,98,98,2018-09-19 14:15:43.340424,2018-09-19 14:15:47.293650,0:00:03.953226,3,left,1,0.36731910203047846,21,f,1,10,2018_Sep_19_1404,MP_PerceptionTuring2,59.941473488847386,
100,resources/videos_generated\model(tmp)-dataset(walking)-numprim(13)_final(6).mov,resources/videos_natural\training(25).mov,True,True,left,0,99,99,99,2018-09-19 14:15:48.778735,2018-09-19 14:15:52.731961,0:00:03.953226,3,left,1,0.650639685819101,21,f,1,10,2018_Sep_19_1404,MP_PerceptionTuring2,59.941473488847386,
101,resources/videos_generated\model(vcgpdm)-dataset(walking)-mode(ELBO)-parts(2)-dyn(23)-lvm(20)_final(5).mov,resources/videos_natural\training(40).mov,False,False,right,0,100,100,100,2018-09-19 14:15:54.500062,2018-09-19 14:15:58.437287,0:00:03.937225,3,right,1,0.5174221022895154,21,f,1,10,2018_Sep_19_1404,MP_PerceptionTuring2,59.941473488847386,
102,resources/videos_generated\model(vcgpdm)-dataset(walking)-mode(ELBO)-parts(1)-dyn(28)-lvm(24)_final(2).mov,resources/videos_natural\training(17).mov,True,True,left,0,101,101,101,2018-09-19 14:16:00.071381,2018-09-19 14:16:03.974604,0:00:03.903223,3,right,0,0.250475547979363,21,f,1,10,2018_Sep_19_1404,MP_PerceptionTuring2,59.941473488847386,
103,resources/videos_generated\model(dmp)-dataset(walking)-npsi(80)_final(2).mov,resources/videos_natural\training(41).mov,False,False,right,0,102,102,102,2018-09-19 14:16:05.342682,2018-09-19 14:16:09.262907,0:00:03.920225,3,right,1,0.6008119552581093,21,f,1,10,2018_Sep_19_1404,MP_PerceptionTuring2,59.941473488847386,
104,resources/videos_generated\model(vcgpdm)-dataset(walking)-mode(ELBO)-parts(2)-dyn(28)-lvm(17)_final(1).mov,resources/videos_natural\training(40).mov,True,True,left,0,103,103,103,2018-09-19 14:16:10.981005,2018-09-19 14:16:14.884228,0:00:03.903223,3,right,0,0.6841695829996297,21,f,1,10,2018_Sep_19_1404,MP_PerceptionTuring2,59.941473488847386,
105,resources/videos_generated\model(vcgpdm)-dataset(walking)-mode(ELBO)-parts(1)-dyn(24)-lvm(25)_final(0).mov,resources/videos_natural\training(20).mov,False,True,left,0,104,104,104,2018-09-19 14:16:16.685331,2018-09-19 14:16:20.589554,0:00:03.904223,3,right,0,0.4672374848662457,21,f,1,10,2018_Sep_19_1404,MP_PerceptionTuring2,59.941473488847386,
106,resources/videos_generated\model(tmp)-dataset(walking)-numprim(13)_final(4).mov,resources/videos_natural\training(38).mov,False,True,left,0,105,105,105,2018-09-19 14:16:22.173645,2018-09-19 14:16:26.076868,0:00:03.903223,3,left,1,0.4506490220998103,21,f,1,10,2018_Sep_19_1404,MP_PerceptionTuring2,59.941473488847386,
107,resources/videos_generated\model(vcgpdm)-dataset(walking)-mode(ELBO)-parts(1)-dyn(22)-lvm(27)_final(6)_fail.mov,resources/videos_natural\training(28).mov,True,False,right,0,106,106,106,2018-09-19 14:16:27.644958,2018-09-19 14:16:31.565182,0:00:03.920224,3,right,1,0.6675467868136593,21,f,1,10,2018_Sep_19_1404,MP_PerceptionTuring2,59.941473488847386,
108,resources/videos_generated\model(vcgpdm)-dataset(walking)-mode(ELBO)-parts(2)-dyn(24)-lvm(17)_final(9).mov,resources/videos_natural\training(33).mov,False,False,right,0,107,107,107,2018-09-19 14:16:33.350284,2018-09-19 14:16:37.253508,0:00:03.903224,3,right,1,0.41725194104287766,21,f,1,10,2018_Sep_19_1404,MP_PerceptionTuring2,59.941473488847386,
109,resources/videos_generated\model(dmp)-dataset(walking)-npsi(50)_final(8).mov,resources/videos_natural\training(42).mov,False,False,right,0,108,108,108,2018-09-19 14:16:38.788595,2018-09-19 14:16:42.708820,0:00:03.920225,3,right,1,0.250478258512544,21,f,1,10,2018_Sep_19_1404,MP_PerceptionTuring2,59.941473488847386,
110,resources/videos_generated\model(vcgpdm)-dataset(walking)-mode(ELBO)-parts(1)-dyn(25)-lvm(26)_final(6)_fail.mov,resources/videos_natural\training(6).mov,True,False,right,0,109,109,109,2018-09-19 14:16:44.075898,2018-09-19 14:16:48.063126,0:00:03.987228,3,right,1,0.33384612604584163,21,f,1,10,2018_Sep_19_1404,MP_PerceptionTuring2,59.941473488847386,
111,resources/videos_generated\model(vcgpdm)-dataset(walking)-mode(ELBO)-parts(2)-dyn(22)-lvm(21)_final(9).mov,resources/videos_natural\training(45).mov,True,True,left,0,110,110,110,2018-09-19 14:16:49.514209,2018-09-19 14:16:53.434433,0:00:03.920224,3,right,0,0.28388437467992844,21,f,1,10,2018_Sep_19_1404,MP_PerceptionTuring2,59.941473488847386,
112,resources/videos_generated\model(vcgpdm)-dataset(walking)-mode(ELBO)-parts(2)-dyn(27)-lvm(20)_final(5).mov,resources/videos_natural\training(8).mov,False,True,left,0,111,111,111,2018-09-19 14:16:54.835513,2018-09-19 14:16:58.788739,0:00:03.953226,3,right,0,0.4174190905860087,21,f,1,10,2018_Sep_19_1404,MP_PerceptionTuring2,59.941473488847386,
113,resources/videos_generated\model(vcgpdm)-dataset(walking)-mode(ELBO)-parts(1)-dyn(24)-lvm(27)_final(6).mov,resources/videos_natural\training(10).mov,False,False,right,0,112,112,112,2018-09-19 14:17:00.323827,2018-09-19 14:17:04.260052,0:00:03.936225,3,right,1,0.5009056192361641,21,f,1,10,2018_Sep_19_1404,MP_PerceptionTuring2,59.941473488847386,
114,resources/videos_generated\model(vcgpdm)-dataset(walking)-mode(ELBO)-parts(2)-dyn(22)-lvm(23)_final(9).mov,resources/videos_natural\training(18).mov,True,False,right,0,113,113,113,2018-09-19 14:17:05.878145,2018-09-19 14:17:09.765367,0:00:03.887222,3,right,1,0.6008441804854101,21,f,1,10,2018_Sep_19_1404,MP_PerceptionTuring2,59.941473488847386,
115,resources/videos_generated\model(vcgpdm)-dataset(walking)-mode(ELBO)-parts(2)-dyn(24)-lvm(17)_final(3).mov,resources/videos_natural\training(27).mov,False,True,left,0,114,114,114,2018-09-19 14:17:11.483465,2018-09-19 14:17:15.453693,0:00:03.970228,3,right,0,0.5172176076232518,21,f,1,10,2018_Sep_19_1404,MP_PerceptionTuring2,59.941473488847386,
116,resources/videos_generated\model(vcgpdm)-dataset(walking)-mode(ELBO)-parts(2)-dyn(22)-lvm(17)_final(5).mov,resources/videos_natural\training(26).mov,True,False,right,0,115,115,115,2018-09-19 14:17:17.087786,2018-09-19 14:17:20.991009,0:00:03.903223,3,right,1,0.3340545359267253,21,f,1,10,2018_Sep_19_1404,MP_PerceptionTuring2,59.941473488847386,
117,resources/videos_generated\model(dmp)-dataset(walking)-npsi(80)_final(8).mov,resources/videos_natural\training(37).mov,True,True,left,0,116,116,116,2018-09-19 14:17:22.443092,2018-09-19 14:17:26.479323,0:00:04.036231,3,right,0,0.6005616826989808,21,f,1,10,2018_Sep_19_1404,MP_PerceptionTuring2,59.941473488847386,
118,resources/videos_generated\model(dmp)-dataset(walking)-npsi(90)_final(0).mov,resources/videos_natural\training(5).mov,False,True,left,0,117,117,117,2018-09-19 14:17:28.197421,2018-09-19 14:17:32.084644,0:00:03.887223,3,left,1,0.45065263614401374,21,f,1,10,2018_Sep_19_1404,MP_PerceptionTuring2,59.941473488847386,
119,resources/videos_generated\model(vcgpdm)-dataset(walking)-mode(ELBO)-parts(2)-dyn(25)-lvm(18)_final(5).mov,resources/videos_natural\training(45).mov,True,True,left,0,118,118,118,2018-09-19 14:17:33.652733,2018-09-19 14:17:37.571958,0:00:03.919225,3,left,1,0.40061709804285783,21,f,1,10,2018_Sep_19_1404,MP_PerceptionTuring2,59.941473488847386,
120,resources/videos_generated\model(vcgpdm)-dataset(walking)-mode(ELBO)-parts(2)-dyn(28)-lvm(23)_final(1).mov,resources/videos_natural\training(25).mov,False,False,right,0,119,119,119,2018-09-19 14:17:39.090044,2018-09-19 14:17:43.010269,0:00:03.920225,3,left,0,0.30052072353169024,21,f,1,10,2018_Sep_19_1404,MP_PerceptionTuring2,59.941473488847386,
121,resources/videos_generated\model(dmp)-dataset(walking)-npsi(60)_final(4).mov,resources/videos_natural\training(5).mov,False,False,right,0,120,120,120,2018-09-19 14:17:44.428350,2018-09-19 14:17:48.348574,0:00:03.920224,3,right,1,0.3839644859924647,21,f,1,10,2018_Sep_19_1404,MP_PerceptionTuring2,59.941473488847386,
122,resources/videos_generated\model(vcgpdm)-dataset(walking)-mode(ELBO)-parts(1)-dyn(22)-lvm(22)_final(0).mov,resources/videos_natural\training(4).mov,False,True,left,0,121,121,121,2018-09-19 14:17:49.849660,2018-09-19 14:17:53.752883,0:00:03.903223,3,left,1,0.4338870852132004,21,f,1,10,2018_Sep_19_1404,MP_PerceptionTuring2,59.941473488847386,
123,resources/videos_generated\model(vcgpdm)-dataset(walking)-mode(ELBO)-parts(2)-dyn(27)-lvm(22)_final(1).mov,resources/videos_natural\training(20).mov,True,False,right,0,122,122,122,2018-09-19 14:17:55.303972,2018-09-19 14:17:59.208195,0:00:03.904223,3,right,1,2.1187891144988953,21,f,1,10,2018_Sep_19_1404,MP_PerceptionTuring2,59.941473488847386,
124,resources/videos_generated\model(vcgpdm)-dataset(walking)-mode(ELBO)-parts(2)-dyn(28)-lvm(21)_final(1).mov,resources/videos_natural\training(44).mov,False,True,left,0,123,123,123,2018-09-19 14:18:02.443380,2018-09-19 14:18:06.497612,0:00:04.054232,3,left,1,0.5006475162481365,21,f,1,10,2018_Sep_19_1404,MP_PerceptionTuring2,59.941473488847386,
125,resources/videos_generated\model(vcgpdm)-dataset(walking)-mode(ELBO)-parts(2)-dyn(24)-lvm(21)_final(5).mov,resources/videos_natural\training(48).mov,False,False,right,0,124,124,124,2018-09-19 14:18:08.115705,2018-09-19 14:18:12.051930,0:00:03.936225,3,right,1,0.6175290177632178,21,f,1,10,2018_Sep_19_1404,MP_PerceptionTuring2,59.941473488847386,
126,resources/videos_generated\model(tmp)-dataset(walking)-numprim(14)_final(8).mov,resources/videos_natural\training(30).mov,True,True,left,0,125,125,125,2018-09-19 14:18:13.787029,2018-09-19 14:18:17.840261,0:00:04.053232,3,right,0,0.3505131942729349,21,f,1,10,2018_Sep_19_1404,MP_PerceptionTuring2,59.941473488847386,
127,resources/videos_generated\model(vcgpdm)-dataset(walking)-mode(ELBO)-parts(2)-dyn(25)-lvm(20)_final(3).mov,resources/videos_natural\training(32).mov,True,False,right,0,126,126,126,2018-09-19 14:18:19.308345,2018-09-19 14:18:23.211568,0:00:03.903223,3,right,1,0.35005993289928483,21,f,1,10,2018_Sep_19_1404,MP_PerceptionTuring2,59.941473488847386,
128,resources/videos_generated\model(vcgpdm)-dataset(walking)-mode(ELBO)-parts(1)-dyn(27)-lvm(26)_final(7).mov,resources/videos_natural\training(44).mov,True,True,left,0,127,127,127,2018-09-19 14:18:24.679652,2018-09-19 14:18:28.582875,0:00:03.903223,3,left,1,0.500670104024266,21,f,1,10,2018_Sep_19_1404,MP_PerceptionTuring2,59.941473488847386,
129,resources/videos_generated\model(vcgpdm)-dataset(walking)-mode(ELBO)-parts(1)-dyn(23)-lvm(24)_final(1).mov,resources/videos_natural\training(32).mov,True,True,left,0,128,128,128,2018-09-19 14:18:30.200968,2018-09-19 14:18:34.121192,0:00:03.920224,3,left,1,0.6846523590672859,21,f,1,10,2018_Sep_19_1404,MP_PerceptionTuring2,59.941473488847386,
130,resources/videos_generated\model(dmp)-dataset(walking)-npsi(50)_final(6).mov,resources/videos_natural\training(47).mov,False,True,left,0,129,129,129,2018-09-19 14:18:35.923295,2018-09-19 14:18:39.842519,0:00:03.919224,3,left,1,0.5508152681320553,21,f,1,10,2018_Sep_19_1404,MP_PerceptionTuring2,59.941473488847386,
131,resources/videos_generated\model(vcgpdm)-dataset(walking)-mode(ELBO)-parts(1)-dyn(27)-lvm(28)_final(9).mov,resources/videos_natural\training(12).mov,False,False,right,0,130,130,130,2018-09-19 14:18:41.511615,2018-09-19 14:18:45.447840,0:00:03.936225,3,right,1,0.4173534354501953,21,f,1,10,2018_Sep_19_1404,MP_PerceptionTuring2,59.941473488847386,
132,resources/videos_generated\model(vcgpdm)-dataset(walking)-mode(ELBO)-parts(2)-dyn(27)-lvm(22)_final(9).mov,resources/videos_natural\training(36).mov,False,False,right,0,131,131,131,2018-09-19 14:18:46.981928,2018-09-19 14:18:50.902152,0:00:03.920224,3,right,1,0.38378619314653406,21,f,1,10,2018_Sep_19_1404,MP_PerceptionTuring2,59.941473488847386,
133,resources/videos_generated\model(vcgpdm)-dataset(walking)-mode(ELBO)-parts(1)-dyn(28)-lvm(24)_final(7).mov,resources/videos_natural\training(7).mov,False,False,right,0,132,132,132,2018-09-19 14:18:52.404238,2018-09-19 14:18:56.324462,0:00:03.920224,3,left,0,0.35062974719767226,21,f,1,10,2018_Sep_19_1404,MP_PerceptionTuring2,59.941473488847386,
134,resources/videos_generated\model(vcgpdm)-dataset(walking)-mode(ELBO)-parts(1)-dyn(28)-lvm(27)_final(9).mov,resources/videos_natural\training(42).mov,False,True,left,0,133,133,133,2018-09-19 14:18:57.791546,2018-09-19 14:19:01.711770,0:00:03.920224,3,left,1,0.3005044603328315,21,f,1,10,2018_Sep_19_1404,MP_PerceptionTuring2,59.941473488847386,
135,resources/videos_generated\model(vcgpdm)-dataset(walking)-mode(ELBO)-parts(1)-dyn(26)-lvm(23)_final(9).mov,resources/videos_natural\training(21).mov,False,True,left,0,134,134,134,2018-09-19 14:19:03.129851,2018-09-19 14:19:07.050075,0:00:03.920224,3,left,1,0.8343039049746039,21,f,1,10,2018_Sep_19_1404,MP_PerceptionTuring2,59.941473488847386,
136,resources/videos_generated\model(vcgpdm)-dataset(walking)-mode(ELBO)-parts(2)-dyn(27)-lvm(18)_final(3).mov,resources/videos_natural\training(15).mov,False,False,right,0,135,135,135,2018-09-19 14:19:40.594994,2018-09-19 14:19:44.515218,0:00:03.920224,4,right,1,0.41725766327931524,21,f,1,10,2018_Sep_19_1404,MP_PerceptionTuring2,59.941473488847386,
137,resources/videos_generated\model(vcgpdm)-dataset(walking)-mode(ELBO)-parts(1)-dyn(23)-lvm(26)_final(3)_hip-corrected.mov,resources/videos_natural\training(13).mov,True,False,right,0,136,136,136,2018-09-19 14:19:46.050306,2018-09-19 14:19:49.970530,0:00:03.920224,4,right,1,0.3505418054560323,21,f,1,10,2018_Sep_19_1404,MP_PerceptionTuring2,59.941473488847386,
138,resources/videos_generated\model(vcgpdm)-dataset(walking)-mode(ELBO)-parts(2)-dyn(22)-lvm(21)_final(5).mov,resources/videos_natural\training(37).mov,False,False,right,0,137,137,137,2018-09-19 14:19:51.438614,2018-09-19 14:19:55.374839,0:00:03.936225,4,left,0,0.267877170685324,21,f,1,10,2018_Sep_19_1404,MP_PerceptionTuring2,59.941473488847386,
139,resources/videos_generated\model(tmp)-dataset(walking)-numprim(11)_final(8).mov,resources/videos_natural\training(46).mov,False,False,right,0,138,138,138,2018-09-19 14:19:56.758919,2018-09-19 14:20:00.679143,0:00:03.920224,4,right,1,0.2670799727741269,21,f,1,10,2018_Sep_19_1404,MP_PerceptionTuring2,59.941473488847386,
140,resources/videos_generated\model(vcgpdm)-dataset(walking)-mode(ELBO)-parts(1)-dyn(22)-lvm(23)_final(0).mov,resources/videos_natural\training(0).mov,True,False,right,0,139,139,139,2018-09-19 14:20:02.064222,2018-09-19 14:20:05.967445,0:00:03.903223,4,left,0,0.1669616128274356,21,f,1,10,2018_Sep_19_1404,MP_PerceptionTuring2,59.941473488847386,
141,resources/videos_generated\model(tmp)-dataset(walking)-numprim(15)_final(6).mov,resources/videos_natural\training(4).mov,True,True,left,0,140,140,140,2018-09-19 14:20:07.251519,2018-09-19 14:20:11.171743,0:00:03.920224,4,left,1,0.48410483137467963,21,f,1,10,2018_Sep_19_1404,MP_PerceptionTuring2,59.941473488847386,
142,resources/videos_generated\model(dmp)-dataset(walking)-npsi(80)_final(0).mov,resources/videos_natural\training(0).mov,False,True,left,0,141,141,141,2018-09-19 14:20:12.772835,2018-09-19 14:20:16.727061,0:00:03.954226,4,right,0,0.3675398598954871,21,f,1,10,2018_Sep_19_1404,MP_PerceptionTuring2,59.941473488847386,
143,resources/videos_generated\model(vcgpdm)-dataset(walking)-mode(ELBO)-parts(2)-dyn(27)-lvm(18)_final(7).mov,resources/videos_natural\training(27).mov,False,False,right,0,142,142,142,2018-09-19 14:20:18.211146,2018-09-19 14:20:22.098368,0:00:03.887222,4,right,1,0.4005502382258328,21,f,1,10,2018_Sep_19_1404,MP_PerceptionTuring2,59.941473488847386,
144,resources/videos_generated\model(vcgpdm)-dataset(walking)-mode(ELBO)-parts(1)-dyn(27)-lvm(24)_final(9).mov,resources/videos_natural\training(1).mov,False,True,left,0,143,143,143,2018-09-19 14:20:23.616455,2018-09-19 14:20:27.552680,0:00:03.936225,4,right,0,0.4173335582072468,21,f,1,10,2018_Sep_19_1404,MP_PerceptionTuring2,59.941473488847386,
145,resources/videos_generated\model(vcgpdm)-dataset(walking)-mode(ELBO)-parts(2)-dyn(26)-lvm(19)_final(3).mov,resources/videos_natural\training(7).mov,False,True,left,0,144,144,144,2018-09-19 14:20:29.087768,2018-09-19 14:20:33.006992,0:00:03.919224,4,left,1,0.3839358748093673,21,f,1,10,2018_Sep_19_1404,MP_PerceptionTuring2,59.941473488847386,
146,resources/videos_generated\model(vcgpdm)-dataset(walking)-mode(ELBO)-parts(1)-dyn(27)-lvm(24)_final(7).mov,resources/videos_natural\training(31).mov,False,False,right,0,145,145,145,2018-09-19 14:20:34.509078,2018-09-19 14:20:38.445303,0:00:03.936225,4,right,1,0.45054602184086434,21,f,1,10,2018_Sep_19_1404,MP_PerceptionTuring2,59.941473488847386,
147,resources/videos_generated\model(tmp)-dataset(walking)-numprim(13)_final(8).mov,resources/videos_natural\training(0).mov,True,True,left,0,146,146,146,2018-09-19 14:20:40.013393,2018-09-19 14:20:43.950618,0:00:03.937225,4,right,0,0.43392141863273537,21,f,1,10,2018_Sep_19_1404,MP_PerceptionTuring2,59.941473488847386,
148,resources/videos_generated\model(vcgpdm)-dataset(walking)-mode(ELBO)-parts(2)-dyn(25)-lvm(22)_final(1).mov,resources/videos_natural\training(24).mov,True,False,right,0,147,147,147,2018-09-19 14:20:45.501707,2018-09-19 14:20:49.437932,0:00:03.936225,4,left,0,0.433977737487794,21,f,1,10,2018_Sep_19_1404,MP_PerceptionTuring2,59.941473488847386,
149,resources/videos_generated\model(vcgpdm)-dataset(walking)-mode(ELBO)-parts(1)-dyn(25)-lvm(25)_final(2).mov,resources/videos_natural\training(0).mov,False,False,right,0,148,148,148,2018-09-19 14:20:50.990020,2018-09-19 14:20:54.943247,0:00:03.953227,4,left,0,0.4506186038947817,21,f,1,10,2018_Sep_19_1404,MP_PerceptionTuring2,59.941473488847386,
150,resources/videos_generated\model(vcgpdm)-dataset(walking)-mode(ELBO)-parts(2)-dyn(22)-lvm(21)_final(3).mov,resources/videos_natural\training(1).mov,False,False,right,0,149,149,149,2018-09-19 14:20:56.511336,2018-09-19 14:21:00.597570,0:00:04.086234,4,left,0,1.0011037893252706,21,f,1,10,2018_Sep_19_1404,MP_PerceptionTuring2,59.941473488847386,
151,resources/videos_generated\model(vcgpdm)-dataset(walking)-mode(ELBO)-parts(1)-dyn(27)-lvm(22)_final(1).mov,resources/videos_natural\training(3).mov,True,True,left,0,150,150,150,2018-09-19 14:21:02.716691,2018-09-19 14:21:06.802925,0:00:04.086234,4,left,1,0.5506634782766469,21,f,1,10,2018_Sep_19_1404,MP_PerceptionTuring2,59.941473488847386,
152,resources/videos_generated\model(vcgpdm)-dataset(walking)-mode(ELBO)-parts(1)-dyn(26)-lvm(25)_final(5).mov,resources/videos_natural\training(34).mov,True,True,left,0,151,151,151,2018-09-19 14:21:08.471020,2018-09-19 14:21:12.358243,0:00:03.887223,4,left,1,0.4338283569952637,21,f,1,10,2018_Sep_19_1404,MP_PerceptionTuring2,59.941473488847386,
153,resources/videos_generated\model(vcgpdm)-dataset(walking)-mode(ELBO)-parts(2)-dyn(22)-lvm(19)_final(5).mov,resources/videos_natural\training(7).mov,True,True,left,0,152,152,152,2018-09-19 14:21:13.909331,2018-09-19 14:21:17.996565,0:00:04.087234,4,left,1,0.3673308476738839,21,f,1,10,2018_Sep_19_1404,MP_PerceptionTuring2,59.941473488847386,
154,resources/videos_generated\model(vcgpdm)-dataset(walking)-mode(ELBO)-parts(2)-dyn(23)-lvm(18)_final(5).mov,resources/videos_natural\training(19).mov,False,True,left,0,153,153,153,2018-09-19 14:21:19.480650,2018-09-19 14:21:23.450877,0:00:03.970227,4,right,0,0.36724983285034796,21,f,1,10,2018_Sep_19_1404,MP_PerceptionTuring2,59.941473488847386,
155,resources/videos_generated\model(vcgpdm)-dataset(walking)-mode(ELBO)-parts(2)-dyn(22)-lvm(17)_final(9).mov,resources/videos_natural\training(3).mov,False,True,left,0,154,154,154,2018-09-19 14:21:24.935962,2018-09-19 14:21:28.856186,0:00:03.920224,4,left,1,0.5006978116962273,21,f,1,10,2018_Sep_19_1404,MP_PerceptionTuring2,59.941473488847386,
156,resources/videos_generated\model(vcgpdm)-dataset(walking)-mode(ELBO)-parts(1)-dyn(22)-lvm(25)_final(0).mov,resources/videos_natural\training(27).mov,False,True,left,0,155,155,155,2018-09-19 14:21:30.473279,2018-09-19 14:21:34.393503,0:00:03.920224,4,left,1,0.48399610887918243,21,f,1,10,2018_Sep_19_1404,MP_PerceptionTuring2,59.941473488847386,
157,resources/videos_generated\model(vcgpdm)-dataset(walking)-mode(ELBO)-parts(2)-dyn(28)-lvm(17)_final(3).mov,resources/videos_natural\training(24).mov,False,True,left,0,156,156,156,2018-09-19 14:21:35.995595,2018-09-19 14:21:39.915819,0:00:03.920224,4,left,1,0.5840864599833822,21,f,1,10,2018_Sep_19_1404,MP_PerceptionTuring2,59.941473488847386,
158,resources/videos_generated\model(vcgpdm)-dataset(walking)-mode(ELBO)-parts(1)-dyn(28)-lvm(25)_final(7).mov,resources/videos_natural\training(8).mov,False,True,left,0,157,157,157,2018-09-19 14:21:41.616916,2018-09-19 14:21:45.537140,0:00:03.920224,4,right,0,0.40068245200859565,21,f,1,10,2018_Sep_19_1404,MP_PerceptionTuring2,59.941473488847386,
159,resources/videos_generated\model(vcgpdm)-dataset(walking)-mode(ELBO)-parts(1)-dyn(23)-lvm(28)_final(8).mov,resources/videos_natural\training(19).mov,False,False,right,0,158,158,158,2018-09-19 14:21:47.054227,2018-09-19 14:21:51.058456,0:00:04.004229,4,right,1,0.5173977074912273,21,f,1,10,2018_Sep_19_1404,MP_PerceptionTuring2,59.941473488847386,
160,resources/videos_generated\model(vcgpdm)-dataset(walking)-mode(ELBO)-parts(1)-dyn(28)-lvm(23)_final(9).mov,resources/videos_natural\training(29).mov,False,True,left,0,159,159,159,2018-09-19 14:21:52.692550,2018-09-19 14:21:56.629775,0:00:03.937225,4,left,1,0.5005270481087791,21,f,1,10,2018_Sep_19_1404,MP_PerceptionTuring2,59.941473488847386,
161,resources/videos_generated\model(vcgpdm)-dataset(walking)-mode(ELBO)-parts(2)-dyn(28)-lvm(19)_final(5).mov,resources/videos_natural\training(38).mov,False,False,right,0,160,160,160,2018-09-19 14:21:58.247867,2018-09-19 14:22:02.251096,0:00:04.003229,4,left,0,0.35064932327031784,21,f,1,10,2018_Sep_19_1404,MP_PerceptionTuring2,59.941473488847386,
162,resources/videos_generated\model(vcgpdm)-dataset(walking)-mode(ELBO)-parts(1)-dyn(25)-lvm(22)_final(6).mov,resources/videos_natural\training(29).mov,True,True,left,0,161,161,161,2018-09-19 14:22:03.719180,2018-09-19 14:22:07.605403,0:00:03.886223,4,left,1,0.2838175148629034,21,f,1,10,2018_Sep_19_1404,MP_PerceptionTuring2,59.941473488847386,
163,resources/videos_generated\model(vcgpdm)-dataset(walking)-mode(ELBO)-parts(1)-dyn(24)-lvm(23)_final(8).mov,resources/videos_natural\training(11).mov,False,True,left,0,162,162,162,2018-09-19 14:22:09.007483,2018-09-19 14:22:12.926707,0:00:03.919224,4,left,1,0.36733265469615617,21,f,1,10,2018_Sep_19_1404,MP_PerceptionTuring2,59.941473488847386,
164,resources/videos_generated\model(vcgpdm)-dataset(walking)-mode(ELBO)-parts(2)-dyn(23)-lvm(22)_final(1).mov,resources/videos_natural\training(2).mov,True,True,left,0,163,163,163,2018-09-19 14:22:14.411792,2018-09-19 14:22:18.348017,0:00:03.936225,4,left,1,0.4674218011191442,21,f,1,10,2018_Sep_19_1404,MP_PerceptionTuring2,59.941473488847386,
165,resources/videos_generated\model(tmp)-dataset(walking)-numprim(14)_final(6).mov,resources/videos_natural\training(13).mov,False,True,left,0,164,164,164,2018-09-19 14:22:19.933108,2018-09-19 14:22:23.853332,0:00:03.920224,4,right,0,0.3672883826550333,21,f,1,10,2018_Sep_19_1404,MP_PerceptionTuring2,59.941473488847386,
166,resources/videos_generated\model(vcgpdm)-dataset(walking)-mode(ELBO)-parts(1)-dyn(24)-lvm(23)_final(4)_fail.mov,resources/videos_natural\training(40).mov,False,False,right,0,165,165,165,2018-09-19 14:22:25.337417,2018-09-19 14:22:29.257641,0:00:03.920224,4,right,1,0.36718538239597365,21,f,1,10,2018_Sep_19_1404,MP_PerceptionTuring2,59.941473488847386,
167,resources/videos_generated\model(dmp)-dataset(walking)-npsi(80)_final(6).mov,resources/videos_natural\training(14).mov,True,False,right,0,166,166,166,2018-09-19 14:22:30.742726,2018-09-19 14:22:34.662950,0:00:03.920224,4,left,0,0.40066257476564715,21,f,1,10,2018_Sep_19_1404,MP_PerceptionTuring2,59.941473488847386,
168,resources/videos_generated\model(vcgpdm)-dataset(walking)-mode(ELBO)-parts(1)-dyn(25)-lvm(28)_final(4).mov,resources/videos_natural\training(5).mov,True,True,left,0,167,167,167,2018-09-19 14:22:36.180037,2018-09-19 14:22:40.101261,0:00:03.921224,4,left,1,0.48411236063338947,21,f,1,10,2018_Sep_19_1404,MP_PerceptionTuring2,59.941473488847386,
169,resources/videos_generated\model(vcgpdm)-dataset(walking)-mode(ELBO)-parts(1)-dyn(25)-lvm(23)_final(7).mov,resources/videos_natural\training(14).mov,True,True,left,0,168,168,168,2018-09-19 14:22:41.702353,2018-09-19 14:22:45.772586,0:00:04.070233,4,left,1,1.9353101151073133,21,f,1,10,2018_Sep_19_1404,MP_PerceptionTuring2,59.941473488847386,
170,resources/videos_generated\model(vcgpdm)-dataset(walking)-mode(ELBO)-parts(2)-dyn(28)-lvm(23)_final(5).mov,resources/videos_natural\training(21).mov,False,True,left,0,169,169,169,2018-09-19 14:22:48.824760,2018-09-19 14:22:52.744984,0:00:03.920224,4,right,0,0.5674461959172277,21,f,1,10,2018_Sep_19_1404,MP_PerceptionTuring2,59.941473488847386,
171,resources/videos_generated\model(vcgpdm)-dataset(walking)-mode(ELBO)-parts(1)-dyn(27)-lvm(26)_final(5).mov,resources/videos_natural\training(31).mov,False,True,left,0,170,170,170,2018-09-19 14:22:54.430081,2018-09-19 14:22:58.316303,0:00:03.886222,4,left,1,0.5007743089645373,21,f,1,10,2018_Sep_19_1404,MP_PerceptionTuring2,59.941473488847386,
172,resources/videos_generated\model(vcgpdm)-dataset(walking)-mode(ELBO)-parts(1)-dyn(27)-lvm(26)_final(3).mov,resources/videos_natural\training(23).mov,False,True,left,0,171,171,171,2018-09-19 14:22:59.934396,2018-09-19 14:23:03.854620,0:00:03.920224,4,left,1,1.184687595997957,21,f,1,10,2018_Sep_19_1404,MP_PerceptionTuring2,59.941473488847386,
173,resources/videos_generated\model(vcgpdm)-dataset(walking)-mode(ELBO)-parts(1)-dyn(28)-lvm(25)_final(5).mov,resources/videos_natural\training(23).mov,False,True,left,0,172,172,172,2018-09-19 14:23:06.156752,2018-09-19 14:23:10.109978,0:00:03.953226,4,right,0,1.0844168438552515,21,f,1,10,2018_Sep_19_1404,MP_PerceptionTuring2,59.941473488847386,
174,resources/videos_generated\model(vcgpdm)-dataset(walking)-mode(ELBO)-parts(1)-dyn(26)-lvm(27)_final(9).mov,resources/videos_natural\training(9).mov,False,False,right,0,173,173,173,2018-09-19 14:23:12.312104,2018-09-19 14:23:16.365335,0:00:04.053231,4,right,1,0.21729621308395508,21,f,1,10,2018_Sep_19_1404,MP_PerceptionTuring2,59.941473488847386,
175,resources/videos_generated\model(vcgpdm)-dataset(walking)-mode(ELBO)-parts(1)-dyn(25)-lvm(24)_final(5).mov,resources/videos_natural\training(33).mov,True,False,right,0,174,174,174,2018-09-19 14:23:17.699412,2018-09-19 14:23:21.586634,0:00:03.887222,4,right,1,0.350421036146372,21,f,1,10,2018_Sep_19_1404,MP_PerceptionTuring2,59.941473488847386,
176,resources/videos_generated\model(vcgpdm)-dataset(walking)-mode(ELBO)-parts(1)-dyn(24)-lvm(25)_final(2).mov,resources/videos_natural\training(23).mov,False,False,right,0,175,175,175,2018-09-19 14:23:23.054718,2018-09-19 14:23:26.990943,0:00:03.936225,4,left,0,1.0511131256062072,21,f,1,10,2018_Sep_19_1404,MP_PerceptionTuring2,59.941473488847386,
177,resources/videos_generated\model(vcgpdm)-dataset(walking)-mode(ELBO)-parts(2)-dyn(23)-lvm(18)_final(7).mov,resources/videos_natural\training(22).mov,True,True,left,0,176,176,176,2018-09-19 14:23:29.160067,2018-09-19 14:23:33.213299,0:00:04.053232,4,left,1,0.5006523349736653,21,f,1,10,2018_Sep_19_1404,MP_PerceptionTuring2,59.941473488847386,
178,resources/videos_generated\model(vcgpdm)-dataset(walking)-mode(ELBO)-parts(2)-dyn(22)-lvm(23)_final(5).mov,resources/videos_natural\training(29).mov,True,True,left,0,177,177,177,2018-09-19 14:23:34.831392,2018-09-19 14:23:38.767617,0:00:03.936225,4,right,0,0.4171591805757089,21,f,1,10,2018_Sep_19_1404,MP_PerceptionTuring2,59.941473488847386,
179,resources/videos_generated\model(vcgpdm)-dataset(walking)-mode(ELBO)-parts(2)-dyn(26)-lvm(23)_final(7).mov,resources/videos_natural\training(48).mov,True,True,left,0,178,178,178,2018-09-19 14:23:40.302705,2018-09-19 14:23:44.222929,0:00:03.920224,4,right,0,0.2504246501907801,21,f,1,10,2018_Sep_19_1404,MP_PerceptionTuring2,59.941473488847386,
180,resources/videos_generated\model(vcgpdm)-dataset(walking)-mode(ELBO)-parts(1)-dyn(23)-lvm(24)_final(9).mov,resources/videos_natural\training(26).mov,True,False,right,0,179,179,179,2018-09-19 14:23:45.591007,2018-09-19 14:23:49.527232,0:00:03.936225,4,right,1,0.3171781543076122,21,f,1,10,2018_Sep_19_1404,MP_PerceptionTuring2,59.941473488847386,
181,resources/videos_generated\model(vcgpdm)-dataset(walking)-mode(ELBO)-parts(1)-dyn(25)-lvm(26)_final(4)_fail.mov,resources/videos_natural\training(20).mov,False,True,left,0,180,180,180,2018-09-19 14:24:23.106153,2018-09-19 14:24:27.159385,0:00:04.053232,5,left,1,0.40055987567689044,21,f,1,10,2018_Sep_19_1404,MP_PerceptionTuring2,59.941473488847386,
182,resources/videos_generated\model(vcgpdm)-dataset(walking)-mode(ELBO)-parts(2)-dyn(26)-lvm(21)_final(7).mov,resources/videos_natural\training(45).mov,False,True,left,0,181,181,181,2018-09-19 14:24:28.677471,2018-09-19 14:24:32.647699,0:00:03.970228,5,right,0,0.40040688114004297,21,f,1,10,2018_Sep_19_1404,MP_PerceptionTuring2,59.941473488847386,
183,resources/videos_generated\model(vcgpdm)-dataset(walking)-mode(ELBO)-parts(1)-dyn(28)-lvm(23)_final(3)_fail.mov,resources/videos_natural\training(20).mov,False,False,right,0,182,182,182,2018-09-19 14:24:34.165785,2018-09-19 14:24:38.036007,0:00:03.870222,5,right,1,0.5339018425602262,21,f,1,10,2018_Sep_19_1404,MP_PerceptionTuring2,59.941473488847386,
184,resources/videos_generated\model(vcgpdm)-dataset(walking)-mode(ELBO)-parts(1)-dyn(25)-lvm(24)_final(3).mov,resources/videos_natural\training(37).mov,False,True,left,0,183,183,183,2018-09-19 14:24:39.687101,2018-09-19 14:24:43.590324,0:00:03.903223,5,left,1,0.2004029659256048,21,f,1,10,2018_Sep_19_1404,MP_PerceptionTuring2,59.941473488847386,
185,resources/videos_generated\model(vcgpdm)-dataset(walking)-mode(ELBO)-parts(2)-dyn(22)-lvm(19)_final(9).mov,resources/videos_natural\training(12).mov,False,True,left,0,184,184,184,2018-09-19 14:24:44.908400,2018-09-19 14:24:48.845625,0:00:03.937225,5,left,1,0.3672272450744458,21,f,1,10,2018_Sep_19_1404,MP_PerceptionTuring2,59.941473488847386,
186,resources/videos_generated\model(vcgpdm)-dataset(walking)-mode(ELBO)-parts(1)-dyn(28)-lvm(23)_final(5).mov,resources/videos_natural\training(14).mov,True,False,right,0,185,185,185,2018-09-19 14:24:50.329710,2018-09-19 14:24:54.266935,0:00:03.937225,5,right,1,0.9677416440288198,21,f,1,10,2018_Sep_19_1404,MP_PerceptionTuring2,59.941473488847386,
187,resources/videos_generated\model(vcgpdm)-dataset(walking)-mode(ELBO)-parts(2)-dyn(24)-lvm(19)_final(1).mov,resources/videos_natural\training(28).mov,True,True,left,0,186,186,186,2018-09-19 14:24:56.352054,2018-09-19 14:25:00.372284,0:00:04.020230,5,left,1,0.3838822664874897,21,f,1,10,2018_Sep_19_1404,MP_PerceptionTuring2,59.941473488847386,
188,resources/videos_generated\model(vcgpdm)-dataset(walking)-mode(ELBO)-parts(2)-dyn(24)-lvm(17)_final(5).mov,resources/videos_natural\training(22).mov,True,True,left,0,187,187,187,2018-09-19 14:25:01.873370,2018-09-19 14:25:05.809595,0:00:03.936225,5,left,1,0.4506255308128857,21,f,1,10,2018_Sep_19_1404,MP_PerceptionTuring2,59.941473488847386,
189,resources/videos_generated\model(vcgpdm)-dataset(walking)-mode(ELBO)-parts(1)-dyn(24)-lvm(25)_final(6).mov,resources/videos_natural\training(40).mov,False,False,right,0,188,188,188,2018-09-19 14:25:07.377685,2018-09-19 14:25:11.297909,0:00:03.920224,5,right,1,0.6173706021600083,21,f,1,10,2018_Sep_19_1404,MP_PerceptionTuring2,59.941473488847386,
190,resources/videos_generated\model(vcgpdm)-dataset(walking)-mode(ELBO)-parts(2)-dyn(27)-lvm(22)_final(3).mov,resources/videos_natural\training(27).mov,False,False,right,0,189,189,189,2018-09-19 14:25:13.033008,2018-09-19 14:25:17.086240,0:00:04.053232,5,right,1,0.6676226817412498,21,f,1,10,2018_Sep_19_1404,MP_PerceptionTuring2,59.941473488847386,
191,resources/videos_generated\model(vcgpdm)-dataset(walking)-mode(ELBO)-parts(2)-dyn(26)-lvm(19)_final(9).mov,resources/videos_natural\training(18).mov,False,False,right,0,190,190,190,2018-09-19 14:25:18.871342,2018-09-19 14:25:22.974577,0:00:04.103235,5,right,1,0.4505339750269286,21,f,1,10,2018_Sep_19_1404,MP_PerceptionTuring2,59.941473488847386,
192,resources/videos_generated\model(dmp)-dataset(walking)-npsi(60)_final(6).mov,resources/videos_natural\training(48).mov,False,True,left,0,191,191,191,2018-09-19 14:25:24.542667,2018-09-19 14:25:28.445890,0:00:03.903223,5,right,0,0.5173862630181247,21,f,1,10,2018_Sep_19_1404,MP_PerceptionTuring2,59.941473488847386,
193,resources/videos_generated\model(vcgpdm)-dataset(walking)-mode(ELBO)-parts(2)-dyn(23)-lvm(22)_final(7).mov,resources/videos_natural\training(4).mov,False,False,right,0,192,192,192,2018-09-19 14:25:30.080984,2018-09-19 14:25:34.001208,0:00:03.920224,5,right,1,0.30041200103596566,21,f,1,10,2018_Sep_19_1404,MP_PerceptionTuring2,59.941473488847386,
194,resources/videos_generated\model(vcgpdm)-dataset(walking)-mode(ELBO)-parts(1)-dyn(27)-lvm(26)_final(9).mov,resources/videos_natural\training(38).mov,True,False,right,0,193,193,193,2018-09-19 14:25:35.418289,2018-09-19 14:25:39.322512,0:00:03.904223,5,right,1,0.617426619844764,21,f,1,10,2018_Sep_19_1404,MP_PerceptionTuring2,59.941473488847386,
195,resources/videos_generated\model(vcgpdm)-dataset(walking)-mode(ELBO)-parts(2)-dyn(26)-lvm(21)_final(1).mov,resources/videos_natural\training(10).mov,True,True,left,0,194,194,194,2018-09-19 14:25:41.056611,2018-09-19 14:25:44.943834,0:00:03.887223,5,right,0,0.7175859389587913,21,f,1,10,2018_Sep_19_1404,MP_PerceptionTuring2,59.941473488847386,
196,resources/videos_generated\model(vcgpdm)-dataset(walking)-mode(ELBO)-parts(1)-dyn(24)-lvm(23)_final(6)_fail.mov,resources/videos_natural\training(34).mov,False,False,right,0,195,195,195,2018-09-19 14:25:46.778939,2018-09-19 14:25:50.749166,0:00:03.970227,5,right,1,0.7175491961763782,21,f,1,10,2018_Sep_19_1404,MP_PerceptionTuring2,59.941473488847386,
197,resources/videos_generated\model(vcgpdm)-dataset(walking)-mode(ELBO)-parts(1)-dyn(23)-lvm(24)_final(5).mov,resources/videos_natural\training(26).mov,True,True,left,0,196,196,196,2018-09-19 14:25:52.583271,2018-09-19 14:25:56.537497,0:00:03.954226,5,left,1,2.068729783940398,21,f,1,10,2018_Sep_19_1404,MP_PerceptionTuring2,59.941473488847386,
198,resources/videos_generated\model(dmp)-dataset(walking)-npsi(90)_final(6).mov,resources/videos_natural\training(18).mov,False,True,left,0,197,197,197,2018-09-19 14:25:59.723679,2018-09-19 14:26:03.809913,0:00:04.086234,5,right,0,0.46727302296721973,21,f,1,10,2018_Sep_19_1404,MP_PerceptionTuring2,59.941473488847386,
199,resources/videos_generated\model(tmp)-dataset(walking)-numprim(14)_final(4).mov,resources/videos_natural\training(16).mov,False,True,left,0,198,198,198,2018-09-19 14:26:05.395003,2018-09-19 14:26:09.298227,0:00:03.903224,5,left,1,0.3672570609387549,21,f,1,10,2018_Sep_19_1404,MP_PerceptionTuring2,59.941473488847386,
200,resources/videos_generated\model(vcgpdm)-dataset(walking)-mode(ELBO)-parts(1)-dyn(22)-lvm(27)_final(2)_hip-corrected.mov,resources/videos_natural\training(28).mov,False,False,right,0,199,199,199,2018-09-19 14:26:10.782312,2018-09-19 14:26:14.886546,0:00:04.104234,5,right,1,0.3172404965696387,21,f,1,10,2018_Sep_19_1404,MP_PerceptionTuring2,59.941473488847386,
201,resources/videos_generated\model(vcgpdm)-dataset(walking)-mode(ELBO)-parts(1)-dyn(23)-lvm(27)_final(2).mov,resources/videos_natural\training(31).mov,False,False,right,0,200,200,200,2018-09-19 14:26:16.320628,2018-09-19 14:26:20.273854,0:00:03.953226,5,left,0,0.2672115842162839,21,f,1,10,2018_Sep_19_1404,MP_PerceptionTuring2,59.941473488847386,
202,resources/videos_generated\model(dmp)-dataset(walking)-npsi(60)_final(2).mov,resources/videos_natural\training(4).mov,False,False,right,0,201,201,201,2018-09-19 14:26:21.658934,2018-09-19 14:26:25.695165,0:00:04.036231,5,right,1,1.8685060143718601,21,f,1,10,2018_Sep_19_1404,MP_PerceptionTuring2,59.941473488847386,
203,resources/videos_generated\model(tmp)-dataset(walking)-numprim(13)_final(0).mov,resources/videos_natural\training(34).mov,False,False,right,0,202,202,202,2018-09-19 14:26:28.681335,2018-09-19 14:26:32.584559,0:00:03.903224,5,right,1,0.6173681927973576,21,f,1,10,2018_Sep_19_1404,MP_PerceptionTuring2,59.941473488847386,
204,resources/videos_generated\model(vcgpdm)-dataset(walking)-mode(ELBO)-parts(2)-dyn(26)-lvm(23)_final(5).mov,resources/videos_natural\training(16).mov,False,False,right,0,203,203,203,2018-09-19 14:26:34.319658,2018-09-19 14:26:38.206880,0:00:03.887222,5,right,1,0.6509134496652678,21,f,1,10,2018_Sep_19_1404,MP_PerceptionTuring2,59.941473488847386,
205,resources/videos_generated\model(vcgpdm)-dataset(walking)-mode(ELBO)-parts(2)-dyn(24)-lvm(23)_final(7).mov,resources/videos_natural\training(21).mov,False,True,left,0,204,204,204,2018-09-19 14:26:39.974981,2018-09-19 14:26:43.878205,0:00:03.903224,5,right,0,0.1839557520524977,21,f,1,10,2018_Sep_19_1404,MP_PerceptionTuring2,59.941473488847386,
206,resources/videos_generated\model(dmp)-dataset(walking)-npsi(70)_final(2).mov,resources/videos_natural\training(15).mov,True,True,left,0,205,205,205,2018-09-19 14:26:45.179279,2018-09-19 14:26:49.215510,0:00:04.036231,5,left,1,0.3505619838692837,21,f,1,10,2018_Sep_19_1404,MP_PerceptionTuring2,59.941473488847386,
207,resources/videos_generated\model(vcgpdm)-dataset(walking)-mode(ELBO)-parts(2)-dyn(23)-lvm(22)_final(5).mov,resources/videos_natural\training(14).mov,True,True,left,0,206,206,206,2018-09-19 14:26:50.683594,2018-09-19 14:26:54.620819,0:00:03.937225,5,left,1,0.46736216939029873,21,f,1,10,2018_Sep_19_1404,MP_PerceptionTuring2,59.941473488847386,
208,resources/videos_generated\model(vcgpdm)-dataset(walking)-mode(ELBO)-parts(2)-dyn(25)-lvm(20)_final(1).mov,resources/videos_natural\training(44).mov,False,True,left,0,207,207,207,2018-09-19 14:26:56.204910,2018-09-19 14:27:00.125134,0:00:03.920224,5,right,0,1.0177841090478523,21,f,1,10,2018_Sep_19_1404,MP_PerceptionTuring2,59.941473488847386,
209,resources/videos_generated\model(vcgpdm)-dataset(walking)-mode(ELBO)-parts(1)-dyn(26)-lvm(23)_final(3)_fail.mov,resources/videos_natural\training(24).mov,False,False,right,0,208,208,208,2018-09-19 14:27:02.260256,2018-09-19 14:27:06.214482,0:00:03.954226,5,right,1,0.5839852667465948,21,f,1,10,2018_Sep_19_1404,MP_PerceptionTuring2,59.941473488847386,
210,resources/videos_generated\model(vcgpdm)-dataset(walking)-mode(ELBO)-parts(2)-dyn(25)-lvm(18)_final(9).mov,resources/videos_natural\training(31).mov,False,False,right,0,209,209,209,2018-09-19 14:27:07.915579,2018-09-19 14:27:11.835804,0:00:03.920225,5,left,0,0.45058878803024527,21,f,1,10,2018_Sep_19_1404,MP_PerceptionTuring2,59.941473488847386,
211,resources/videos_generated\model(vcgpdm)-dataset(walking)-mode(ELBO)-parts(2)-dyn(25)-lvm(22)_final(5).mov,resources/videos_natural\training(30).mov,True,True,left,0,210,210,210,2018-09-19 14:27:13.403893,2018-09-19 14:27:17.340118,0:00:03.936225,5,right,0,0.4838172136924186,21,f,1,10,2018_Sep_19_1404,MP_PerceptionTuring2,59.941473488847386,
212,resources/videos_generated\model(vcgpdm)-dataset(walking)-mode(ELBO)-parts(1)-dyn(23)-lvm(22)_final(3)_fail.mov,resources/videos_natural\training(37).mov,False,True,left,0,211,211,211,2018-09-19 14:27:18.941210,2018-09-19 14:27:22.995442,0:00:04.054232,5,left,1,0.33409308573095586,21,f,1,10,2018_Sep_19_1404,MP_PerceptionTuring2,59.941473488847386,
213,resources/videos_generated\model(vcgpdm)-dataset(walking)-mode(ELBO)-parts(1)-dyn(23)-lvm(28)_final(6)_hip-corrected.mov,resources/videos_natural\training(15).mov,False,False,right,0,212,212,212,2018-09-19 14:27:24.446525,2018-09-19 14:27:28.499757,0:00:04.053232,5,right,1,0.3338226347586897,21,f,1,10,2018_Sep_19_1404,MP_PerceptionTuring2,59.941473488847386,
214,resources/videos_generated\model(vcgpdm)-dataset(walking)-mode(ELBO)-parts(2)-dyn(26)-lvm(17)_final(1).mov,resources/videos_natural\training(42).mov,True,False,right,0,213,213,213,2018-09-19 14:27:29.950840,2018-09-19 14:27:33.854063,0:00:03.903223,5,left,0,0.48397833982858174,21,f,1,10,2018_Sep_19_1404,MP_PerceptionTuring2,59.941473488847386,
215,resources/videos_generated\model(vcgpdm)-dataset(walking)-mode(ELBO)-parts(1)-dyn(25)-lvm(24)_final(7).mov,resources/videos_natural\training(25).mov,False,False,right,0,214,214,214,2018-09-19 14:27:35.456155,2018-09-19 14:27:39.359378,0:00:03.903223,5,left,0,0.4339693047181754,21,f,1,10,2018_Sep_19_1404,MP_PerceptionTuring2,59.941473488847386,
216,resources/videos_generated\model(vcgpdm)-dataset(walking)-mode(ELBO)-parts(2)-dyn(24)-lvm(19)_final(7).mov,resources/videos_natural\training(18).mov,True,False,right,0,215,215,215,2018-09-19 14:27:40.910467,2018-09-19 14:27:44.997700,0:00:04.087233,5,left,0,0.31695016835419665,21,f,1,10,2018_Sep_19_1404,MP_PerceptionTuring2,59.941473488847386,
217,resources/videos_generated\model(dmp)-dataset(walking)-npsi(100)_final(0).mov,resources/videos_natural\training(33).mov,True,False,right,0,216,216,216,2018-09-19 14:27:46.431782,2018-09-19 14:27:50.352007,0:00:03.920225,5,right,1,0.3672778416928395,21,f,1,10,2018_Sep_19_1404,MP_PerceptionTuring2,59.941473488847386,
218,resources/videos_generated\model(dmp)-dataset(walking)-npsi(70)_final(6).mov,resources/videos_natural\training(47).mov,True,False,right,0,217,217,217,2018-09-19 14:27:51.837092,2018-09-19 14:27:55.890323,0:00:04.053231,5,right,1,0.7008321336713834,21,f,1,10,2018_Sep_19_1404,MP_PerceptionTuring2,59.941473488847386,
219,resources/videos_generated\model(vcgpdm)-dataset(walking)-mode(ELBO)-parts(1)-dyn(25)-lvm(24)_final(9).mov,resources/videos_natural\training(9).mov,True,True,left,0,218,218,218,2018-09-19 14:27:57.708427,2018-09-19 14:28:01.745658,0:00:04.037231,5,left,1,0.43389220510903215,21,f,1,10,2018_Sep_19_1404,MP_PerceptionTuring2,59.941473488847386,
220,resources/videos_generated\model(dmp)-dataset(walking)-npsi(100)_final(8).mov,resources/videos_natural\training(17).mov,False,True,left,0,219,219,219,2018-09-19 14:28:03.296747,2018-09-19 14:28:07.316977,0:00:04.020230,5,right,0,0.5341198898920538,21,f,1,10,2018_Sep_19_1404,MP_PerceptionTuring2,59.941473488847386,
221,resources/videos_generated\model(vcgpdm)-dataset(walking)-mode(ELBO)-parts(2)-dyn(25)-lvm(20)_final(5).mov,resources/videos_natural\training(12).mov,False,True,left,0,220,220,220,2018-09-19 14:28:08.968071,2018-09-19 14:28:12.871295,0:00:03.903224,5,left,1,0.43393707949098825,21,f,1,10,2018_Sep_19_1404,MP_PerceptionTuring2,59.941473488847386,
222,resources/videos_generated\model(vcgpdm)-dataset(walking)-mode(ELBO)-parts(1)-dyn(26)-lvm(27)_final(7).mov,resources/videos_natural\training(41).mov,True,True,left,0,221,221,221,2018-09-19 14:28:14.422383,2018-09-19 14:28:18.442613,0:00:04.020230,5,right,0,0.31712364247459846,21,f,1,10,2018_Sep_19_1404,MP_PerceptionTuring2,59.941473488847386,
223,resources/videos_generated\model(dmp)-dataset(walking)-npsi(90)_final(2).mov,resources/videos_natural\training(16).mov,True,True,left,0,222,222,222,2018-09-19 14:28:19.877695,2018-09-19 14:28:23.864923,0:00:03.987228,5,right,0,0.4171570723831337,21,f,1,10,2018_Sep_19_1404,MP_PerceptionTuring2,59.941473488847386,
224,resources/videos_generated\model(vcgpdm)-dataset(walking)-mode(ELBO)-parts(2)-dyn(28)-lvm(19)_final(3).mov,resources/videos_natural\training(23).mov,True,False,right,0,223,223,223,2018-09-19 14:28:25.399011,2018-09-19 14:28:29.319235,0:00:03.920224,5,left,0,1.5014754335347789,21,f,1,10,2018_Sep_19_1404,MP_PerceptionTuring2,59.941473488847386,
225,resources/videos_generated\model(vcgpdm)-dataset(walking)-mode(ELBO)-parts(2)-dyn(28)-lvm(23)_final(9).mov,resources/videos_natural\training(16).mov,False,True,left,0,224,224,224,2018-09-19 14:28:31.938385,2018-09-19 14:28:35.841608,0:00:03.903223,5,right,0,0.48398978430191164,21,f,1,10,2018_Sep_19_1404,MP_PerceptionTuring2,59.941473488847386,
226,resources/videos_generated\model(vcgpdm)-dataset(walking)-mode(ELBO)-parts(2)-dyn(25)-lvm(20)_final(9).mov,resources/videos_natural\training(43).mov,False,False,right,0,225,225,225,2018-09-19 14:29:10.638599,2018-09-19 14:29:14.541822,0:00:03.903223,6,right,1,0.4339018425600898,21,f,1,10,2018_Sep_19_1404,MP_PerceptionTuring2,59.941473488847386,
227,resources/videos_generated\model(vcgpdm)-dataset(walking)-mode(ELBO)-parts(1)-dyn(25)-lvm(26)_final(0).mov,resources/videos_natural\training(18).mov,True,False,right,0,226,226,226,2018-09-19 14:29:16.092911,2018-09-19 14:29:20.046137,0:00:03.953226,6,right,1,0.4839373806612457,21,f,1,10,2018_Sep_19_1404,MP_PerceptionTuring2,59.941473488847386,
228,resources/videos_generated\model(vcgpdm)-dataset(walking)-mode(ELBO)-parts(1)-dyn(22)-lvm(25)_final(2).mov,resources/videos_natural\training(31).mov,True,True,left,0,227,227,227,2018-09-19 14:29:21.647228,2018-09-19 14:29:25.551452,0:00:03.904224,6,left,1,0.38385275179348355,21,f,1,10,2018_Sep_19_1404,MP_PerceptionTuring2,59.941473488847386,
229,resources/videos_generated\model(vcgpdm)-dataset(walking)-mode(ELBO)-parts(1)-dyn(22)-lvm(22)_final(6).mov,resources/videos_natural\training(42).mov,True,False,right,0,228,228,228,2018-09-19 14:29:27.052538,2018-09-19 14:29:30.988763,0:00:03.936225,6,right,1,0.41717845547805155,21,f,1,10,2018_Sep_19_1404,MP_PerceptionTuring2,59.941473488847386,
230,resources/videos_generated\model(vcgpdm)-dataset(walking)-mode(ELBO)-parts(1)-dyn(23)-lvm(22)_final(7).mov,resources/videos_natural\training(29).mov,True,True,left,0,229,229,229,2018-09-19 14:29:32.523851,2018-09-19 14:29:36.427074,0:00:03.903223,6,left,1,0.46736759045666076,21,f,1,10,2018_Sep_19_1404,MP_PerceptionTuring2,59.941473488847386,
231,resources/videos_generated\model(vcgpdm)-dataset(walking)-mode(ELBO)-parts(2)-dyn(28)-lvm(21)_final(7).mov,resources/videos_natural\training(11).mov,False,False,right,0,230,230,230,2018-09-19 14:29:38.012164,2018-09-19 14:29:41.931389,0:00:03.919225,6,right,1,0.5340400797499569,21,f,1,10,2018_Sep_19_1404,MP_PerceptionTuring2,59.941473488847386,
232,resources/videos_generated\model(vcgpdm)-dataset(walking)-mode(ELBO)-parts(1)-dyn(28)-lvm(23)_final(7).mov,resources/videos_natural\training(33).mov,True,True,left,0,231,231,231,2018-09-19 14:29:43.583483,2018-09-19 14:29:47.469705,0:00:03.886222,6,right,0,0.3338876875538972,21,f,1,10,2018_Sep_19_1404,MP_PerceptionTuring2,59.941473488847386,
233,resources/videos_generated\model(vcgpdm)-dataset(walking)-mode(ELBO)-parts(1)-dyn(23)-lvm(24)_final(7).mov,resources/videos_natural\training(40).mov,False,False,right,0,232,232,232,2018-09-19 14:29:48.920788,2018-09-19 14:29:52.825012,0:00:03.904224,6,right,1,0.6007968967408033,21,f,1,10,2018_Sep_19_1404,MP_PerceptionTuring2,59.941473488847386,
234,resources/videos_generated\model(vcgpdm)-dataset(walking)-mode(ELBO)-parts(1)-dyn(22)-lvm(23)_final(8).mov,resources/videos_natural\training(5).mov,False,True,left,0,233,233,233,2018-09-19 14:29:54.543110,2018-09-19 14:29:58.462334,0:00:03.919224,6,left,1,1.05111342677651,21,f,1,10,2018_Sep_19_1404,MP_PerceptionTuring2,59.941473488847386,
235,resources/videos_generated\model(vcgpdm)-dataset(walking)-mode(ELBO)-parts(2)-dyn(25)-lvm(18)_final(1).mov,resources/videos_natural\training(0).mov,False,False,right,0,234,234,234,2018-09-19 14:30:00.631458,2018-09-19 14:30:04.534681,0:00:03.903223,6,right,1,0.7675660617157973,21,f,1,10,2018_Sep_19_1404,MP_PerceptionTuring2,59.941473488847386,
236,resources/videos_generated\model(tmp)-dataset(walking)-numprim(13)_final(2).mov,resources/videos_natural\training(11).mov,False,False,right,0,235,235,235,2018-09-19 14:30:06.419789,2018-09-19 14:30:10.340013,0:00:03.920224,6,right,1,0.43456833254026606,21,f,1,10,2018_Sep_19_1404,MP_PerceptionTuring2,59.941473488847386,
237,resources/videos_generated\model(vcgpdm)-dataset(walking)-mode(ELBO)-parts(2)-dyn(23)-lvm(22)_final(3).mov,resources/videos_natural\training(28).mov,False,False,right,0,236,236,236,2018-09-19 14:30:11.891102,2018-09-19 14:30:15.794325,0:00:03.903223,6,right,1,0.5007679843872666,21,f,1,10,2018_Sep_19_1404,MP_PerceptionTuring2,59.941473488847386,
238,resources/videos_generated\model(vcgpdm)-dataset(walking)-mode(ELBO)-parts(2)-dyn(28)-lvm(21)_final(5).mov,resources/videos_natural\training(3).mov,False,True,left,0,237,237,237,2018-09-19 14:30:17.412418,2018-09-19 14:30:21.365644,0:00:03.953226,6,left,1,0.3838623892445412,21,f,1,10,2018_Sep_19_1404,MP_PerceptionTuring2,59.941473488847386,
239,resources/videos_generated\model(vcgpdm)-dataset(walking)-mode(ELBO)-parts(2)-dyn(22)-lvm(17)_final(3).mov,resources/videos_natural\training(1).mov,False,True,left,0,238,238,238,2018-09-19 14:30:22.866730,2018-09-19 14:30:26.770953,0:00:03.904223,6,left,1,0.36725886796102714,21,f,1,10,2018_Sep_19_1404,MP_PerceptionTuring2,59.941473488847386,
240,resources/videos_generated\model(vcgpdm)-dataset(walking)-mode(ELBO)-parts(2)-dyn(23)-lvm(22)_final(9).mov,resources/videos_natural\training(12).mov,True,False,right,0,239,239,239,2018-09-19 14:30:28.255038,2018-09-19 14:30:32.142260,0:00:03.887222,6,right,1,0.3673329558664591,21,f,1,10,2018_Sep_19_1404,MP_PerceptionTuring2,59.941473488847386,
241,resources/videos_generated\model(vcgpdm)-dataset(walking)-mode(ELBO)-parts(2)-dyn(23)-lvm(20)_final(9).mov,resources/videos_natural\training(39).mov,True,False,right,0,240,240,240,2018-09-19 14:30:33.626345,2018-09-19 14:30:37.546570,0:00:03.920225,6,right,1,0.7508309289898989,21,f,1,10,2018_Sep_19_1404,MP_PerceptionTuring2,59.941473488847386,
242,resources/videos_generated\model(vcgpdm)-dataset(walking)-mode(ELBO)-parts(2)-dyn(24)-lvm(21)_final(9).mov,resources/videos_natural\training(25).mov,False,False,right,0,241,241,241,2018-09-19 14:30:39.414676,2018-09-19 14:30:43.317900,0:00:03.903224,6,right,1,0.45072672404967307,21,f,1,10,2018_Sep_19_1404,MP_PerceptionTuring2,59.941473488847386,
243,resources/videos_generated\model(vcgpdm)-dataset(walking)-mode(ELBO)-parts(1)-dyn(24)-lvm(25)_final(4).mov,resources/videos_natural\training(39).mov,False,True,left,0,242,242,242,2018-09-19 14:30:44.885989,2018-09-19 14:30:48.756211,0:00:03.870222,6,right,0,0.5674519181538926,21,f,1,10,2018_Sep_19_1404,MP_PerceptionTuring2,59.941473488847386,
244,resources/videos_generated\model(vcgpdm)-dataset(walking)-mode(ELBO)-parts(2)-dyn(23)-lvm(18)_final(9).mov,resources/videos_natural\training(35).mov,True,True,left,0,243,243,243,2018-09-19 14:30:50.441307,2018-09-19 14:30:54.344530,0:00:03.903223,6,right,0,0.6007369638414275,21,f,1,10,2018_Sep_19_1404,MP_PerceptionTuring2,59.941473488847386,
245,resources/videos_generated\model(vcgpdm)-dataset(walking)-mode(ELBO)-parts(1)-dyn(22)-lvm(22)_final(8).mov,resources/videos_natural\training(9).mov,False,False,right,0,244,244,244,2018-09-19 14:30:56.062629,2018-09-19 14:30:59.982853,0:00:03.920224,6,right,1,0.4339247315067496,21,f,1,10,2018_Sep_19_1404,MP_PerceptionTuring2,59.941473488847386,
246,resources/videos_generated\model(vcgpdm)-dataset(walking)-mode(ELBO)-parts(2)-dyn(27)-lvm(22)_final(5).mov,resources/videos_natural\training(20).mov,False,False,right,0,245,245,245,2018-09-19 14:31:01.533942,2018-09-19 14:31:05.487168,0:00:03.953226,6,right,1,0.6341093489299965,21,f,1,10,2018_Sep_19_1404,MP_PerceptionTuring2,59.941473488847386,
247,resources/videos_generated\model(vcgpdm)-dataset(walking)-mode(ELBO)-parts(1)-dyn(22)-lvm(22)_final(2).mov,resources/videos_natural\training(35).mov,False,True,left,0,246,246,246,2018-09-19 14:31:07.239268,2018-09-19 14:31:11.275499,0:00:04.036231,6,left,1,0.3005110860804052,21,f,1,10,2018_Sep_19_1404,MP_PerceptionTuring2,59.941473488847386,
248,resources/videos_generated\model(vcgpdm)-dataset(walking)-mode(ELBO)-parts(1)-dyn(27)-lvm(22)_final(3).mov,resources/videos_natural\training(21).mov,True,True,left,0,247,247,247,2018-09-19 14:31:12.693580,2018-09-19 14:31:16.596803,0:00:03.903223,6,left,1,0.38389280744968346,21,f,1,10,2018_Sep_19_1404,MP_PerceptionTuring2,59.941473488847386,
249,resources/videos_generated\model(vcgpdm)-dataset(walking)-mode(ELBO)-parts(2)-dyn(24)-lvm(23)_final(3).mov,resources/videos_natural\training(36).mov,False,True,left,0,248,248,248,2018-09-19 14:31:18.097889,2018-09-19 14:31:22.035114,0:00:03.937225,6,right,0,0.3840120709076018,21,f,1,10,2018_Sep_19_1404,MP_PerceptionTuring2,59.941473488847386,
250,resources/videos_generated\model(dmp)-dataset(walking)-npsi(60)_final(0).mov,resources/videos_natural\training(36).mov,False,True,left,0,249,249,249,2018-09-19 14:31:23.536200,2018-09-19 14:31:27.489426,0:00:03.953226,6,left,1,0.35067130870561414,21,f,1,10,2018_Sep_19_1404,MP_PerceptionTuring2,59.941473488847386,
251,resources/videos_generated\model(dmp)-dataset(walking)-npsi(100)_final(4).mov,resources/videos_natural\training(3).mov,False,False,right,0,250,250,250,2018-09-19 14:31:28.957510,2018-09-19 14:31:32.877734,0:00:03.920224,6,left,0,0.38385094477143866,21,f,1,10,2018_Sep_19_1404,MP_PerceptionTuring2,59.941473488847386,
252,resources/videos_generated\model(vcgpdm)-dataset(walking)-mode(ELBO)-parts(2)-dyn(27)-lvm(22)_final(7).mov,resources/videos_natural\training(43).mov,False,True,left,0,251,251,251,2018-09-19 14:31:34.378820,2018-09-19 14:31:38.482055,0:00:04.103235,6,left,1,0.650793583866971,21,f,1,10,2018_Sep_19_1404,MP_PerceptionTuring2,59.941473488847386,
253,resources/videos_generated\model(vcgpdm)-dataset(walking)-mode(ELBO)-parts(1)-dyn(26)-lvm(27)_final(5).mov,resources/videos_natural\training(43).mov,False,False,right,0,252,252,252,2018-09-19 14:31:40.251156,2018-09-19 14:31:44.220383,0:00:03.969227,6,right,1,0.4173796372704146,21,f,1,10,2018_Sep_19_1404,MP_PerceptionTuring2,59.941473488847386,
254,resources/videos_generated\model(vcgpdm)-dataset(walking)-mode(ELBO)-parts(1)-dyn(22)-lvm(25)_final(4).mov,resources/videos_natural\training(12).mov,False,False,right,0,253,253,253,2018-09-19 14:31:45.755471,2018-09-19 14:31:49.825704,0:00:04.070233,6,right,1,0.4172880814846849,21,f,1,10,2018_Sep_19_1404,MP_PerceptionTuring2,59.941473488847386,
255,resources/videos_generated\model(vcgpdm)-dataset(walking)-mode(ELBO)-parts(1)-dyn(25)-lvm(26)_final(8).mov,resources/videos_natural\training(22).mov,False,False,right,0,254,254,254,2018-09-19 14:31:51.360792,2018-09-19 14:31:55.280016,0:00:03.919224,6,right,1,0.4507116655322534,21,f,1,10,2018_Sep_19_1404,MP_PerceptionTuring2,59.941473488847386,
256,resources/videos_generated\model(vcgpdm)-dataset(walking)-mode(ELBO)-parts(2)-dyn(27)-lvm(18)_final(9).mov,resources/videos_natural\training(19).mov,False,False,right,0,255,255,255,2018-09-19 14:31:56.848105,2018-09-19 14:32:00.768330,0:00:03.920225,6,right,1,0.46733054650349004,21,f,1,10,2018_Sep_19_1404,MP_PerceptionTuring2,59.941473488847386,
257,resources/videos_generated\model(tmp)-dataset(walking)-numprim(12)_final(2).mov,resources/videos_natural\training(28).mov,False,False,right,0,256,256,256,2018-09-19 14:32:02.353420,2018-09-19 14:32:06.256644,0:00:03.903224,6,left,0,0.31740824845337556,21,f,1,10,2018_Sep_19_1404,MP_PerceptionTuring2,59.941473488847386,
258,resources/videos_generated\model(vcgpdm)-dataset(walking)-mode(ELBO)-parts(1)-dyn(26)-lvm(27)_final(1).mov,resources/videos_natural\training(6).mov,False,False,right,0,257,257,257,2018-09-19 14:32:07.690726,2018-09-19 14:32:11.777959,0:00:04.087233,6,right,1,0.4006210132574779,21,f,1,10,2018_Sep_19_1404,MP_PerceptionTuring2,59.941473488847386,
259,resources/videos_generated\model(tmp)-dataset(walking)-numprim(12)_final(0).mov,resources/videos_natural\training(21).mov,False,True,left,0,258,258,258,2018-09-19 14:32:13.296046,2018-09-19 14:32:17.216270,0:00:03.920224,6,right,0,0.35051409778407105,21,f,1,10,2018_Sep_19_1404,MP_PerceptionTuring2,59.941473488847386,
260,resources/videos_generated\model(vcgpdm)-dataset(walking)-mode(ELBO)-parts(1)-dyn(28)-lvm(25)_final(3).mov,resources/videos_natural\training(3).mov,False,True,left,0,259,259,259,2018-09-19 14:32:18.684354,2018-09-19 14:32:22.754587,0:00:04.070233,6,right,0,0.3838611845633295,21,f,1,10,2018_Sep_19_1404,MP_PerceptionTuring2,59.941473488847386,
261,resources/videos_generated\model(vcgpdm)-dataset(walking)-mode(ELBO)-parts(2)-dyn(27)-lvm(18)_final(1).mov,resources/videos_natural\training(10).mov,False,False,right,0,260,260,260,2018-09-19 14:32:24.255673,2018-09-19 14:32:28.191898,0:00:03.936225,6,right,1,0.41733837693277565,21,f,1,10,2018_Sep_19_1404,MP_PerceptionTuring2,59.941473488847386,
262,resources/videos_generated\model(vcgpdm)-dataset(walking)-mode(ELBO)-parts(2)-dyn(27)-lvm(20)_final(1).mov,resources/videos_natural\training(22).mov,False,False,right,0,261,261,261,2018-09-19 14:32:29.726986,2018-09-19 14:32:33.713214,0:00:03.986228,6,right,1,0.5007279287310666,21,f,1,10,2018_Sep_19_1404,MP_PerceptionTuring2,59.941473488847386,
263,resources/videos_generated\model(vcgpdm)-dataset(walking)-mode(ELBO)-parts(1)-dyn(26)-lvm(23)_final(5).mov,resources/videos_natural\training(17).mov,False,False,right,0,262,262,262,2018-09-19 14:32:35.331306,2018-09-19 14:32:39.385538,0:00:04.054232,6,right,1,0.31733897927347243,21,f,1,10,2018_Sep_19_1404,MP_PerceptionTuring2,59.941473488847386,
264,resources/videos_generated\model(vcgpdm)-dataset(walking)-mode(ELBO)-parts(2)-dyn(22)-lvm(21)_final(1).mov,resources/videos_natural\training(13).mov,False,False,right,0,263,263,263,2018-09-19 14:32:40.819620,2018-09-19 14:32:44.722844,0:00:03.903224,6,right,1,0.3001945560447439,21,f,1,10,2018_Sep_19_1404,MP_PerceptionTuring2,59.941473488847386,
265,resources/videos_generated\model(vcgpdm)-dataset(walking)-mode(ELBO)-parts(1)-dyn(26)-lvm(23)_final(1).mov,resources/videos_natural\training(22).mov,False,False,right,0,264,264,264,2018-09-19 14:32:46.140925,2018-09-19 14:32:50.228159,0:00:04.087234,6,right,1,0.4172504351911357,21,f,1,10,2018_Sep_19_1404,MP_PerceptionTuring2,59.941473488847386,
266,resources/videos_generated\model(vcgpdm)-dataset(walking)-mode(ELBO)-parts(1)-dyn(24)-lvm(27)_final(8).mov,resources/videos_natural\training(45).mov,False,False,right,0,265,265,265,2018-09-19 14:32:51.762246,2018-09-19 14:32:55.682471,0:00:03.920225,6,right,1,0.3337455351495464,21,f,1,10,2018_Sep_19_1404,MP_PerceptionTuring2,59.941473488847386,
267,resources/videos_generated\model(vcgpdm)-dataset(walking)-mode(ELBO)-parts(1)-dyn(28)-lvm(27)_final(7).mov,resources/videos_natural\training(19).mov,False,True,left,0,266,266,266,2018-09-19 14:32:57.133554,2018-09-19 14:33:01.070779,0:00:03.937225,6,left,1,0.43495804697067797,21,f,1,10,2018_Sep_19_1404,MP_PerceptionTuring2,59.941473488847386,
268,resources/videos_generated\model(vcgpdm)-dataset(walking)-mode(ELBO)-parts(1)-dyn(24)-lvm(27)_final(4).mov,resources/videos_natural\training(35).mov,False,False,right,0,267,267,267,2018-09-19 14:33:02.621867,2018-09-19 14:33:06.709101,0:00:04.087234,6,left,0,0.4339117811816777,21,f,1,10,2018_Sep_19_1404,MP_PerceptionTuring2,59.941473488847386,
269,resources/videos_generated\model(vcgpdm)-dataset(walking)-mode(ELBO)-parts(2)-dyn(26)-lvm(17)_final(5).mov,resources/videos_natural\training(25).mov,False,False,right,0,268,268,268,2018-09-19 14:33:08.260190,2018-09-19 14:33:12.180414,0:00:03.920224,6,right,1,0.434099711478666,21,f,1,10,2018_Sep_19_1404,MP_PerceptionTuring2,59.941473488847386,
270,resources/videos_generated\model(vcgpdm)-dataset(walking)-mode(ELBO)-parts(2)-dyn(28)-lvm(17)_final(7).mov,resources/videos_natural\training(39).mov,False,True,left,0,269,269,269,2018-09-19 14:33:13.731503,2018-09-19 14:33:17.618725,0:00:03.887222,6,left,1,0.5506032442069682,21,f,1,10,2018_Sep_19_1404,MP_PerceptionTuring2,59.941473488847386,
271,resources/videos_generated\model(vcgpdm)-dataset(walking)-mode(ELBO)-parts(1)-dyn(22)-lvm(25)_final(6).mov,resources/videos_natural\training(44).mov,True,False,right,0,270,270,270,2018-09-19 14:33:51.247649,2018-09-19 14:33:55.150872,0:00:03.903223,7,right,1,0.4172091748537241,21,f,1,10,2018_Sep_19_1404,MP_PerceptionTuring2,59.941473488847386,
272,resources/videos_generated\model(vcgpdm)-dataset(walking)-mode(ELBO)-parts(1)-dyn(23)-lvm(24)_final(3).mov,resources/videos_natural\training(35).mov,False,False,right,0,271,271,271,2018-09-19 14:33:56.684960,2018-09-19 14:34:00.589183,0:00:03.904223,7,right,1,0.4338467283864702,21,f,1,10,2018_Sep_19_1404,MP_PerceptionTuring2,59.941473488847386,
273,resources/videos_generated\model(vcgpdm)-dataset(walking)-mode(ELBO)-parts(1)-dyn(24)-lvm(27)_final(0).mov,resources/videos_natural\training(38).mov,True,True,left,0,272,272,272,2018-09-19 14:34:02.140272,2018-09-19 14:34:06.060496,0:00:03.920224,7,left,1,0.3671040664021348,21,f,1,10,2018_Sep_19_1404,MP_PerceptionTuring2,59.941473488847386,
274,resources/videos_generated\model(vcgpdm)-dataset(walking)-mode(ELBO)-parts(1)-dyn(22)-lvm(28)_final(0).mov,resources/videos_natural\training(44).mov,False,False,right,0,273,273,273,2018-09-19 14:34:07.544581,2018-09-19 14:34:11.447804,0:00:03.903223,7,right,1,0.28382323709956836,21,f,1,10,2018_Sep_19_1404,MP_PerceptionTuring2,59.941473488847386,
275,resources/videos_generated\model(vcgpdm)-dataset(walking)-mode(ELBO)-parts(1)-dyn(22)-lvm(23)_final(6)_fail.mov,resources/videos_natural\training(33).mov,False,True,left,0,274,274,274,2018-09-19 14:34:12.848884,2018-09-19 14:34:16.869114,0:00:04.020230,7,left,1,0.367245616465425,21,f,1,10,2018_Sep_19_1404,MP_PerceptionTuring2,59.941473488847386,
276,resources/videos_generated\model(vcgpdm)-dataset(walking)-mode(ELBO)-parts(2)-dyn(23)-lvm(20)_final(7).mov,resources/videos_natural\training(30).mov,True,True,left,0,275,275,275,2018-09-19 14:34:18.354199,2018-09-19 14:34:22.424432,0:00:04.070233,7,left,1,0.3840894716868206,21,f,1,10,2018_Sep_19_1404,MP_PerceptionTuring2,59.941473488847386,
277,resources/videos_generated\model(vcgpdm)-dataset(walking)-mode(ELBO)-parts(2)-dyn(28)-lvm(21)_final(9).mov,resources/videos_natural\training(9).mov,False,False,right,0,276,276,276,2018-09-19 14:34:23.925518,2018-09-19 14:34:27.845742,0:00:03.920224,7,right,1,0.2670881043736699,21,f,1,10,2018_Sep_19_1404,MP_PerceptionTuring2,59.941473488847386,
278,resources/videos_generated\model(vcgpdm)-dataset(walking)-mode(ELBO)-parts(2)-dyn(24)-lvm(23)_final(1).mov,resources/videos_natural\training(30).mov,False,True,left,0,277,277,277,2018-09-19 14:34:29.229821,2018-09-19 14:34:33.133044,0:00:03.903223,7,left,1,0.3671944175066528,21,f,1,10,2018_Sep_19_1404,MP_PerceptionTuring2,59.941473488847386,
279,resources/videos_generated\model(tmp)-dataset(walking)-numprim(11)_final(0).mov,resources/videos_natural\training(36).mov,False,False,right,0,278,278,278,2018-09-19 14:34:34.618129,2018-09-19 14:34:38.538354,0:00:03.920225,7,right,1,0.4172079701720577,21,f,1,10,2018_Sep_19_1404,MP_PerceptionTuring2,59.941473488847386,
280,resources/videos_generated\model(vcgpdm)-dataset(walking)-mode(ELBO)-parts(1)-dyn(27)-lvm(24)_final(5).mov,resources/videos_natural\training(17).mov,True,True,left,0,279,279,279,2018-09-19 14:34:40.072441,2018-09-19 14:34:44.025667,0:00:03.953226,7,left,1,0.3672919966988957,21,f,1,10,2018_Sep_19_1404,MP_PerceptionTuring2,59.941473488847386,
281,resources/videos_generated\model(tmp)-dataset(walking)-numprim(15)_final(4).mov,resources/videos_natural\training(26).mov,False,True,left,0,280,280,280,2018-09-19 14:34:45.510752,2018-09-19 14:34:49.463978,0:00:03.953226,7,right,0,0.35052915630149073,21,f,1,10,2018_Sep_19_1404,MP_PerceptionTuring2,59.941473488847386,
282,resources/videos_generated\model(dmp)-dataset(walking)-npsi(100)_final(2).mov,resources/videos_natural\training(10).mov,True,True,left,0,281,281,281,2018-09-19 14:34:50.932062,2018-09-19 14:34:54.852287,0:00:03.920225,7,right,0,0.43391208235198064,21,f,1,10,2018_Sep_19_1404,MP_PerceptionTuring2,59.941473488847386,
283,resources/videos_generated\model(vcgpdm)-dataset(walking)-mode(ELBO)-parts(2)-dyn(26)-lvm(21)_final(3).mov,resources/videos_natural\training(9).mov,False,False,right,0,282,282,282,2018-09-19 14:34:56.403375,2018-09-19 14:35:00.340601,0:00:03.937226,7,right,1,1.5015537378249064,21,f,1,10,2018_Sep_19_1404,MP_PerceptionTuring2,59.941473488847386,
284,resources/videos_generated\model(vcgpdm)-dataset(walking)-mode(ELBO)-parts(1)-dyn(22)-lvm(25)_final(8).mov,resources/videos_natural\training(29).mov,False,True,left,0,283,283,283,2018-09-19 14:35:02.958750,2018-09-19 14:35:06.862974,0:00:03.904224,7,left,1,0.4006360717748976,21,f,1,10,2018_Sep_19_1404,MP_PerceptionTuring2,59.941473488847386,
285,resources/videos_generated\model(dmp)-dataset(walking)-npsi(70)_final(4).mov,resources/videos_natural\training(41).mov,True,True,left,0,284,284,284,2018-09-19 14:35:08.380060,2018-09-19 14:35:12.300285,0:00:03.920225,7,left,1,0.4173311488443687,21,f,1,10,2018_Sep_19_1404,MP_PerceptionTuring2,59.941473488847386,
286,resources/videos_generated\model(vcgpdm)-dataset(walking)-mode(ELBO)-parts(1)-dyn(22)-lvm(27)_final(0)_hip-correted.mov,resources/videos_natural\training(11).mov,False,True,left,0,285,285,285,2018-09-19 14:35:13.835372,2018-09-19 14:35:17.755597,0:00:03.920225,7,right,0,0.450598124311,21,f,1,10,2018_Sep_19_1404,MP_PerceptionTuring2,59.941473488847386,
287,resources/videos_generated\model(tmp)-dataset(walking)-numprim(14)_final(0).mov,resources/videos_natural\training(1).mov,False,True,left,0,286,286,286,2018-09-19 14:35:19.323686,2018-09-19 14:35:23.276912,0:00:03.953226,7,right,0,0.3839638836520862,21,f,1,10,2018_Sep_19_1404,MP_PerceptionTuring2,59.941473488847386,
288,resources/videos_generated\model(vcgpdm)-dataset(walking)-mode(ELBO)-parts(1)-dyn(26)-lvm(27)_final(3).mov,resources/videos_natural\training(9).mov,False,False,right,0,287,287,287,2018-09-19 14:35:24.777998,2018-09-19 14:35:28.665221,0:00:03.887223,7,right,1,0.2505553581213462,21,f,1,10,2018_Sep_19_1404,MP_PerceptionTuring2,59.941473488847386,
289,resources/videos_generated\model(tmp)-dataset(walking)-numprim(12)_final(6).mov,resources/videos_natural\training(6).mov,True,True,left,0,288,288,288,2018-09-19 14:35:30.032299,2018-09-19 14:35:33.919521,0:00:03.887222,7,left,1,0.30048127021609616,21,f,1,10,2018_Sep_19_1404,MP_PerceptionTuring2,59.941473488847386,
290,resources/videos_generated\model(vcgpdm)-dataset(walking)-mode(ELBO)-parts(2)-dyn(22)-lvm(23)_final(7).mov,resources/videos_natural\training(1).mov,True,True,left,0,289,289,289,2018-09-19 14:35:35.337602,2018-09-19 14:35:39.240826,0:00:03.903224,7,left,1,0.0002066028587250912,21,f,1,10,2018_Sep_19_1404,MP_PerceptionTuring2,59.941473488847386,
