n_trial,mov_file_generated,mov_file_natural,mirrored,switch_stim_pos,correct_answer,trials.thisRepN,trials.thisTrialN,trials.thisN,trials.thisIndex,stimulus_onset,stimulus_off,stimulus_length,block,response.keys,response.corr,response.rt,age,gender,condition,participant,date,expName,frameRate,
1,resources/videos_generated\model(dmp)-dataset(walking)-npsi(70)_final(8).mov,resources/videos_natural\training(16).mov,True,True,left,0,0,0,0,2018-09-21 15:10:19.490782,2018-09-21 15:10:23.895034,0:00:04.404252,1,left,1,14.99561280001069,29,m,1,11,2018_Sep_21_1509,MP_PerceptionTuring2,59.94044481349798,
2,resources/videos_generated\model(vcgpdm)-dataset(walking)-mode(ELBO)-parts(2)-dyn(22)-lvm(19)_final(1).mov,resources/videos_natural\training(42).mov,False,True,left,0,1,1,1,2018-09-21 15:10:40.074959,2018-09-21 15:10:43.995183,0:00:03.920224,1,left,1,0.500606714792184,29,m,1,11,2018_Sep_21_1509,MP_PerceptionTuring2,59.94044481349798,
3,resources/videos_generated\model(vcgpdm)-dataset(walking)-mode(ELBO)-parts(2)-dyn(22)-lvm(19)_final(5).mov,resources/videos_natural\training(24).mov,True,True,left,0,2,2,2,2018-09-21 15:10:45.613276,2018-09-21 15:10:49.549501,0:00:03.936225,1,left,1,0.6007937136577084,29,m,1,11,2018_Sep_21_1509,MP_PerceptionTuring2,59.94044481349798,
4,resources/videos_generated\model(tmp)-dataset(walking)-numprim(14)_final(4).mov,resources/videos_natural\training(14).mov,True,False,right,0,3,3,3,2018-09-21 15:10:51.267599,2018-09-21 15:10:55.154822,0:00:03.887223,1,right,1,0.6507129839976642,29,m,1,11,2018_Sep_21_1509,MP_PerceptionTuring2,59.94044481349798,
5,resources/videos_generated\model(vcgpdm)-dataset(walking)-mode(ELBO)-parts(1)-dyn(28)-lvm(27)_final(9).mov,resources/videos_natural\training(13).mov,True,True,left,0,4,4,4,2018-09-21 15:10:56.922923,2018-09-21 15:11:00.843147,0:00:03.920224,1,right,0,0.46729537719170366,29,m,1,11,2018_Sep_21_1509,MP_PerceptionTuring2,59.94044481349798,
6,resources/videos_generated\model(vcgpdm)-dataset(walking)-mode(ELBO)-parts(2)-dyn(27)-lvm(20)_final(1).mov,resources/videos_natural\training(46).mov,False,False,right,0,5,5,5,2018-09-21 15:11:02.427238,2018-09-21 15:11:06.364463,0:00:03.937225,1,left,0,0.350515203107193,29,m,1,11,2018_Sep_21_1509,MP_PerceptionTuring2,59.94044481349798,
7,resources/videos_generated\model(vcgpdm)-dataset(walking)-mode(ELBO)-parts(2)-dyn(28)-lvm(21)_final(9).mov,resources/videos_natural\training(9).mov,True,False,right,0,6,6,6,2018-09-21 15:11:07.831547,2018-09-21 15:11:11.835776,0:00:04.004229,1,right,1,0.8509276607433094,29,m,1,11,2018_Sep_21_1509,MP_PerceptionTuring2,59.94044481349798,
8,resources/videos_generated\model(vcgpdm)-dataset(walking)-mode(ELBO)-parts(2)-dyn(27)-lvm(20)_final(7).mov,resources/videos_natural\training(27).mov,True,True,left,0,7,7,7,2018-09-21 15:11:13.804888,2018-09-21 15:11:17.924124,0:00:04.119236,1,left,1,0.31713610138240256,29,m,1,11,2018_Sep_21_1509,MP_PerceptionTuring2,59.94044481349798,
9,resources/videos_generated\model(vcgpdm)-dataset(walking)-mode(ELBO)-parts(1)-dyn(26)-lvm(25)_final(3).mov,resources/videos_natural\training(10).mov,True,False,right,0,8,8,8,2018-09-21 15:11:19.358206,2018-09-21 15:11:23.262429,0:00:03.904223,1,right,1,0.4506582305853044,29,m,1,11,2018_Sep_21_1509,MP_PerceptionTuring2,59.94044481349798,
10,resources/videos_generated\model(dmp)-dataset(walking)-npsi(90)_final(8).mov,resources/videos_natural\training(35).mov,True,False,right,0,9,9,9,2018-09-21 15:11:24.829519,2018-09-21 15:11:28.916753,0:00:04.087234,1,right,1,0.38386147687845096,29,m,1,11,2018_Sep_21_1509,MP_PerceptionTuring2,59.94044481349798,
11,resources/videos_generated\model(vcgpdm)-dataset(walking)-mode(ELBO)-parts(2)-dyn(28)-lvm(17)_final(7).mov,resources/videos_natural\training(25).mov,False,True,left,0,10,10,10,2018-09-21 15:11:30.417839,2018-09-21 15:11:34.505072,0:00:04.087233,1,left,1,0.38383135948993186,29,m,1,11,2018_Sep_21_1509,MP_PerceptionTuring2,59.94044481349798,
12,resources/videos_generated\model(vcgpdm)-dataset(walking)-mode(ELBO)-parts(1)-dyn(22)-lvm(22)_final(6).mov,resources/videos_natural\training(31).mov,True,True,left,0,11,11,11,2018-09-21 15:11:36.006158,2018-09-21 15:11:40.093392,0:00:04.087234,1,left,1,0.6007648009647255,29,m,1,11,2018_Sep_21_1509,MP_PerceptionTuring2,59.94044481349798,
13,resources/videos_generated\model(vcgpdm)-dataset(walking)-mode(ELBO)-parts(2)-dyn(22)-lvm(23)_final(1).mov,resources/videos_natural\training(1).mov,False,True,left,0,12,12,12,2018-09-21 15:11:41.811490,2018-09-21 15:11:45.864722,0:00:04.053232,1,left,1,0.33395666288481607,29,m,1,11,2018_Sep_21_1509,MP_PerceptionTuring2,59.94044481349798,
14,resources/videos_generated\model(vcgpdm)-dataset(walking)-mode(ELBO)-parts(1)-dyn(23)-lvm(28)_final(4)_hip-corrected.mov,resources/videos_natural\training(39).mov,True,True,left,0,13,13,13,2018-09-21 15:11:47.315805,2018-09-21 15:11:51.386038,0:00:04.070233,1,right,0,0.30049473834162654,29,m,1,11,2018_Sep_21_1509,MP_PerceptionTuring2,59.94044481349798,
15,resources/videos_generated\model(vcgpdm)-dataset(walking)-mode(ELBO)-parts(1)-dyn(25)-lvm(24)_final(5).mov,resources/videos_natural\training(32).mov,True,True,left,0,14,14,14,2018-09-21 15:11:52.804119,2018-09-21 15:11:56.891353,0:00:04.087234,1,left,1,0.2669792048467343,29,m,1,11,2018_Sep_21_1509,MP_PerceptionTuring2,59.94044481349798,
16,resources/videos_generated\model(dmp)-dataset(walking)-npsi(100)_final(6).mov,resources/videos_natural\training(2).mov,False,False,right,0,15,15,15,2018-09-21 15:11:58.275432,2018-09-21 15:12:02.329664,0:00:04.054232,1,right,1,0.28390005725316314,29,m,1,11,2018_Sep_21_1509,MP_PerceptionTuring2,59.94044481349798,
17,resources/videos_generated\model(vcgpdm)-dataset(walking)-mode(ELBO)-parts(2)-dyn(24)-lvm(17)_final(5).mov,resources/videos_natural\training(7).mov,False,False,right,0,16,16,16,2018-09-21 15:12:03.730744,2018-09-21 15:12:07.683970,0:00:03.953226,1,right,1,0.33382836280975425,29,m,1,11,2018_Sep_21_1509,MP_PerceptionTuring2,59.94044481349798,
18,resources/videos_generated\model(vcgpdm)-dataset(walking)-mode(ELBO)-parts(1)-dyn(23)-lvm(26)_final(9).mov,resources/videos_natural\training(17).mov,False,True,left,0,17,17,17,2018-09-21 15:12:09.135053,2018-09-21 15:12:13.238288,0:00:04.103235,1,right,0,0.3671478321051609,29,m,1,11,2018_Sep_21_1509,MP_PerceptionTuring2,59.94044481349798,
19,resources/videos_generated\model(vcgpdm)-dataset(walking)-mode(ELBO)-parts(1)-dyn(28)-lvm(23)_final(5).mov,resources/videos_natural\training(41).mov,False,False,right,0,18,18,18,2018-09-21 15:12:14.723373,2018-09-21 15:12:18.810607,0:00:04.087234,1,right,1,0.3171942279423092,29,m,1,11,2018_Sep_21_1509,MP_PerceptionTuring2,59.94044481349798,
20,resources/videos_generated\model(vcgpdm)-dataset(walking)-mode(ELBO)-parts(2)-dyn(23)-lvm(18)_final(3).mov,resources/videos_natural\training(23).mov,False,False,right,0,19,19,19,2018-09-21 15:12:20.244689,2018-09-21 15:12:24.214916,0:00:03.970227,1,right,1,0.2837832017855817,29,m,1,11,2018_Sep_21_1509,MP_PerceptionTuring2,59.94044481349798,
21,resources/videos_generated\model(dmp)-dataset(walking)-npsi(80)_final(2).mov,resources/videos_natural\training(30).mov,False,True,left,0,20,20,20,2018-09-21 15:12:25.615996,2018-09-21 15:12:29.719230,0:00:04.103234,1,right,0,0.2838229567385042,29,m,1,11,2018_Sep_21_1509,MP_PerceptionTuring2,59.94044481349798,
22,resources/videos_generated\model(vcgpdm)-dataset(walking)-mode(ELBO)-parts(1)-dyn(26)-lvm(25)_final(1).mov,resources/videos_natural\training(0).mov,False,True,left,0,21,21,21,2018-09-21 15:12:31.120311,2018-09-21 15:12:35.207544,0:00:04.087233,1,left,1,0.36704573415795494,29,m,1,11,2018_Sep_21_1509,MP_PerceptionTuring2,59.94044481349798,
23,resources/videos_generated\model(vcgpdm)-dataset(walking)-mode(ELBO)-parts(2)-dyn(28)-lvm(23)_final(3).mov,resources/videos_natural\training(9).mov,True,False,right,0,22,22,22,2018-09-21 15:12:36.692629,2018-09-21 15:12:40.612854,0:00:03.920225,1,left,0,0.2504875252270722,29,m,1,11,2018_Sep_21_1509,MP_PerceptionTuring2,59.94044481349798,
24,resources/videos_generated\model(vcgpdm)-dataset(walking)-mode(ELBO)-parts(1)-dyn(27)-lvm(28)_final(1).mov,resources/videos_natural\training(33).mov,True,True,left,0,23,23,23,2018-09-21 15:12:41.979932,2018-09-21 15:12:46.067165,0:00:04.087233,1,left,1,0.23376876049781004,29,m,1,11,2018_Sep_21_1509,MP_PerceptionTuring2,59.94044481349798,
25,resources/videos_generated\model(vcgpdm)-dataset(walking)-mode(ELBO)-parts(1)-dyn(25)-lvm(22)_final(6).mov,resources/videos_natural\training(34).mov,False,False,right,0,24,24,24,2018-09-21 15:12:47.418243,2018-09-21 15:12:51.488476,0:00:04.070233,1,right,1,0.383820216056165,29,m,1,11,2018_Sep_21_1509,MP_PerceptionTuring2,59.94044481349798,
26,resources/videos_generated\model(vcgpdm)-dataset(walking)-mode(ELBO)-parts(2)-dyn(23)-lvm(22)_final(3).mov,resources/videos_natural\training(46).mov,False,False,right,0,25,25,25,2018-09-21 15:12:52.989561,2018-09-21 15:12:57.059794,0:00:04.070233,1,right,1,0.2673186278157118,29,m,1,11,2018_Sep_21_1509,MP_PerceptionTuring2,59.94044481349798,
27,resources/videos_generated\model(vcgpdm)-dataset(walking)-mode(ELBO)-parts(1)-dyn(26)-lvm(27)_final(3).mov,resources/videos_natural\training(44).mov,False,False,right,0,26,26,26,2018-09-21 15:12:58.443873,2018-09-21 15:13:02.514106,0:00:04.070233,1,right,1,0.2671066014002008,29,m,1,11,2018_Sep_21_1509,MP_PerceptionTuring2,59.94044481349798,
28,resources/videos_generated\model(vcgpdm)-dataset(walking)-mode(ELBO)-parts(2)-dyn(26)-lvm(21)_final(9).mov,resources/videos_natural\training(32).mov,True,False,right,0,27,27,27,2018-09-21 15:13:03.899185,2018-09-21 15:13:07.785408,0:00:03.886223,1,right,1,0.2838069945225925,29,m,1,11,2018_Sep_21_1509,MP_PerceptionTuring2,59.94044481349798,
29,resources/videos_generated\model(vcgpdm)-dataset(walking)-mode(ELBO)-parts(1)-dyn(22)-lvm(23)_final(4)_fail.mov,resources/videos_natural\training(33).mov,True,True,left,0,28,28,28,2018-09-21 15:13:09.186488,2018-09-21 15:13:13.090711,0:00:03.904223,1,left,1,0.3673441974785874,29,m,1,11,2018_Sep_21_1509,MP_PerceptionTuring2,59.94044481349798,
30,resources/videos_generated\model(vcgpdm)-dataset(walking)-mode(ELBO)-parts(1)-dyn(26)-lvm(25)_final(9).mov,resources/videos_natural\training(30).mov,False,False,right,0,29,29,29,2018-09-21 15:13:14.574796,2018-09-21 15:13:18.595026,0:00:04.020230,1,right,1,0.28376723956967,29,m,1,11,2018_Sep_21_1509,MP_PerceptionTuring2,59.94044481349798,
31,resources/videos_generated\model(vcgpdm)-dataset(walking)-mode(ELBO)-parts(2)-dyn(26)-lvm(19)_final(3).mov,resources/videos_natural\training(0).mov,False,True,left,0,30,30,30,2018-09-21 15:13:19.996106,2018-09-21 15:13:23.916330,0:00:03.920224,1,left,1,0.3505007467606447,29,m,1,11,2018_Sep_21_1509,MP_PerceptionTuring2,59.94044481349798,
32,resources/videos_generated\model(tmp)-dataset(walking)-numprim(13)_final(4).mov,resources/videos_natural\training(17).mov,True,False,right,0,31,31,31,2018-09-21 15:13:25.384414,2018-09-21 15:13:29.421645,0:00:04.037231,1,right,1,0.35070644852442,29,m,1,11,2018_Sep_21_1509,MP_PerceptionTuring2,59.94044481349798,
33,resources/videos_generated\model(dmp)-dataset(walking)-npsi(100)_final(8).mov,resources/videos_natural\training(37).mov,False,False,right,0,32,32,32,2018-09-21 15:13:30.888729,2018-09-21 15:13:34.975963,0:00:04.087234,1,right,1,0.38392141048166195,29,m,1,11,2018_Sep_21_1509,MP_PerceptionTuring2,59.94044481349798,
34,resources/videos_generated\model(vcgpdm)-dataset(walking)-mode(ELBO)-parts(1)-dyn(23)-lvm(28)_final(8).mov,resources/videos_natural\training(8).mov,False,True,left,0,33,33,33,2018-09-21 15:13:36.477049,2018-09-21 15:13:40.597284,0:00:04.120235,1,left,1,0.367178853015389,29,m,1,11,2018_Sep_21_1509,MP_PerceptionTuring2,59.94044481349798,
35,resources/videos_generated\model(vcgpdm)-dataset(walking)-mode(ELBO)-parts(1)-dyn(22)-lvm(27)_final(0)_hip-correted.mov,resources/videos_natural\training(28).mov,False,True,left,0,34,34,34,2018-09-21 15:13:42.082369,2018-09-21 15:13:46.035595,0:00:03.953226,1,right,0,0.20049687667619764,29,m,1,11,2018_Sep_21_1509,MP_PerceptionTuring2,59.94044481349798,
36,resources/videos_generated\model(vcgpdm)-dataset(walking)-mode(ELBO)-parts(1)-dyn(25)-lvm(28)_final(0).mov,resources/videos_natural\training(45).mov,True,False,right,0,35,35,35,2018-09-21 15:13:47.353671,2018-09-21 15:13:51.389902,0:00:04.036231,1,left,0,0.2504438550137138,29,m,1,11,2018_Sep_21_1509,MP_PerceptionTuring2,59.94044481349798,
37,resources/videos_generated\model(vcgpdm)-dataset(walking)-mode(ELBO)-parts(2)-dyn(26)-lvm(19)_final(1).mov,resources/videos_natural\training(29).mov,True,False,right,0,36,36,36,2018-09-21 15:13:52.757980,2018-09-21 15:13:56.861215,0:00:04.103235,1,right,1,0.2505573975685138,29,m,1,11,2018_Sep_21_1509,MP_PerceptionTuring2,59.94044481349798,
38,resources/videos_generated\model(vcgpdm)-dataset(walking)-mode(ELBO)-parts(2)-dyn(27)-lvm(18)_final(5).mov,resources/videos_natural\training(35).mov,False,False,right,0,37,37,37,2018-09-21 15:13:58.229293,2018-09-21 15:14:02.149517,0:00:03.920224,1,right,1,0.25045590196907597,29,m,1,11,2018_Sep_21_1509,MP_PerceptionTuring2,59.94044481349798,
39,resources/videos_generated\model(vcgpdm)-dataset(walking)-mode(ELBO)-parts(2)-dyn(22)-lvm(19)_final(7).mov,resources/videos_natural\training(31).mov,True,True,left,0,38,38,38,2018-09-21 15:14:03.517595,2018-09-21 15:14:07.420819,0:00:03.903224,1,left,1,0.25062245112781056,29,m,1,11,2018_Sep_21_1509,MP_PerceptionTuring2,59.94044481349798,
40,resources/videos_generated\model(vcgpdm)-dataset(walking)-mode(ELBO)-parts(1)-dyn(23)-lvm(26)_final(5)_hip-corrected.mov,resources/videos_natural\training(15).mov,False,False,right,0,39,39,39,2018-09-21 15:14:08.788897,2018-09-21 15:14:12.709121,0:00:03.920224,1,right,1,0.2838211496951999,29,m,1,11,2018_Sep_21_1509,MP_PerceptionTuring2,59.94044481349798,
41,resources/videos_generated\model(vcgpdm)-dataset(walking)-mode(ELBO)-parts(1)-dyn(22)-lvm(25)_final(4).mov,resources/videos_natural\training(40).mov,True,False,right,0,40,40,40,2018-09-21 15:14:14.109201,2018-09-21 15:14:18.046426,0:00:03.937225,1,right,1,0.26719273713149505,29,m,1,11,2018_Sep_21_1509,MP_PerceptionTuring2,59.94044481349798,
42,resources/videos_generated\model(vcgpdm)-dataset(walking)-mode(ELBO)-parts(2)-dyn(27)-lvm(22)_final(3).mov,resources/videos_natural\training(33).mov,True,False,right,0,41,41,41,2018-09-21 15:14:19.431506,2018-09-21 15:14:23.401733,0:00:03.970227,1,right,1,0.21686477382900193,29,m,1,11,2018_Sep_21_1509,MP_PerceptionTuring2,59.94044481349798,
43,resources/videos_generated\model(vcgpdm)-dataset(walking)-mode(ELBO)-parts(1)-dyn(25)-lvm(22)_final(0).mov,resources/videos_natural\training(37).mov,True,True,left,0,42,42,42,2018-09-21 15:14:24.735809,2018-09-21 15:14:28.739038,0:00:04.003229,1,left,1,0.25058329852265615,29,m,1,11,2018_Sep_21_1509,MP_PerceptionTuring2,59.94044481349798,
44,resources/videos_generated\model(vcgpdm)-dataset(walking)-mode(ELBO)-parts(2)-dyn(28)-lvm(23)_final(5).mov,resources/videos_natural\training(5).mov,False,False,right,0,43,43,43,2018-09-21 15:14:30.107116,2018-09-21 15:14:34.194350,0:00:04.087234,1,left,0,0.233810924841805,29,m,1,11,2018_Sep_21_1509,MP_PerceptionTuring2,59.94044481349798,
45,resources/videos_generated\model(vcgpdm)-dataset(walking)-mode(ELBO)-parts(2)-dyn(22)-lvm(17)_final(3).mov,resources/videos_natural\training(33).mov,False,True,left,0,44,44,44,2018-09-21 15:14:35.545427,2018-09-21 15:14:39.448651,0:00:03.903224,1,right,0,0.2502544166396774,29,m,1,11,2018_Sep_21_1509,MP_PerceptionTuring2,59.94044481349798,
46,resources/videos_generated\model(tmp)-dataset(walking)-numprim(14)_final(8).mov,resources/videos_natural\training(21).mov,True,False,right,0,45,45,45,2018-09-21 15:15:12.960567,2018-09-21 15:15:17.064802,0:00:04.104235,2,left,0,0.28384614712763323,29,m,1,11,2018_Sep_21_1509,MP_PerceptionTuring2,59.94044481349798,
47,resources/videos_generated\model(vcgpdm)-dataset(walking)-mode(ELBO)-parts(2)-dyn(27)-lvm(22)_final(7).mov,resources/videos_natural\training(35).mov,True,False,right,0,46,46,46,2018-09-21 15:15:18.464882,2018-09-21 15:15:22.386106,0:00:03.921224,2,right,1,0.28384102717166115,29,m,1,11,2018_Sep_21_1509,MP_PerceptionTuring2,59.94044481349798,
48,resources/videos_generated\model(vcgpdm)-dataset(walking)-mode(ELBO)-parts(1)-dyn(24)-lvm(25)_final(8).mov,resources/videos_natural\training(19).mov,True,False,right,0,47,47,47,2018-09-21 15:15:23.786187,2018-09-21 15:15:27.857419,0:00:04.071232,2,right,1,0.2839964328965152,29,m,1,11,2018_Sep_21_1509,MP_PerceptionTuring2,59.94044481349798,
49,resources/videos_generated\model(vcgpdm)-dataset(walking)-mode(ELBO)-parts(1)-dyn(27)-lvm(24)_final(5).mov,resources/videos_natural\training(33).mov,False,False,right,0,48,48,48,2018-09-21 15:15:29.258500,2018-09-21 15:15:33.361734,0:00:04.103234,2,left,0,0.3003959533073157,29,m,1,11,2018_Sep_21_1509,MP_PerceptionTuring2,59.94044481349798,
50,resources/videos_generated\model(vcgpdm)-dataset(walking)-mode(ELBO)-parts(1)-dyn(28)-lvm(23)_final(7).mov,resources/videos_natural\training(36).mov,True,True,left,0,49,49,49,2018-09-21 15:15:34.779815,2018-09-21 15:15:38.866049,0:00:04.086234,2,left,1,0.3338997410205593,29,m,1,11,2018_Sep_21_1509,MP_PerceptionTuring2,59.94044481349798,
51,resources/videos_generated\model(vcgpdm)-dataset(walking)-mode(ELBO)-parts(1)-dyn(26)-lvm(25)_final(5).mov,resources/videos_natural\training(38).mov,True,True,left,0,50,50,50,2018-09-21 15:15:40.318132,2018-09-21 15:15:44.371364,0:00:04.053232,2,left,1,0.30045167047603627,29,m,1,11,2018_Sep_21_1509,MP_PerceptionTuring2,59.94044481349798,
52,resources/videos_generated\model(vcgpdm)-dataset(walking)-mode(ELBO)-parts(1)-dyn(23)-lvm(27)_final(2).mov,resources/videos_natural\training(15).mov,True,False,right,0,51,51,51,2018-09-21 15:15:45.789445,2018-09-21 15:15:49.709669,0:00:03.920224,2,right,1,0.3171692305097622,29,m,1,11,2018_Sep_21_1509,MP_PerceptionTuring2,59.94044481349798,
53,resources/videos_generated\model(vcgpdm)-dataset(walking)-mode(ELBO)-parts(2)-dyn(26)-lvm(19)_final(7).mov,resources/videos_natural\training(0).mov,True,True,left,0,52,52,52,2018-09-21 15:15:51.143751,2018-09-21 15:15:55.046975,0:00:03.903224,2,left,1,0.3004989547760033,29,m,1,11,2018_Sep_21_1509,MP_PerceptionTuring2,59.94044481349798,
54,resources/videos_generated\model(vcgpdm)-dataset(walking)-mode(ELBO)-parts(2)-dyn(28)-lvm(23)_final(7).mov,resources/videos_natural\training(15).mov,False,False,right,0,53,53,53,2018-09-21 15:15:56.465056,2018-09-21 15:16:00.385280,0:00:03.920224,2,right,1,0.30138711656422856,29,m,1,11,2018_Sep_21_1509,MP_PerceptionTuring2,59.94044481349798,
55,resources/videos_generated\model(dmp)-dataset(walking)-npsi(90)_final(0).mov,resources/videos_natural\training(2).mov,True,False,right,0,54,54,54,2018-09-21 15:16:01.803361,2018-09-21 15:16:05.889595,0:00:04.086234,2,left,0,0.35058146136191226,29,m,1,11,2018_Sep_21_1509,MP_PerceptionTuring2,59.94044481349798,
56,resources/videos_generated\model(vcgpdm)-dataset(walking)-mode(ELBO)-parts(2)-dyn(25)-lvm(22)_final(5).mov,resources/videos_natural\training(45).mov,False,True,left,0,55,55,55,2018-09-21 15:16:07.357679,2018-09-21 15:16:11.277903,0:00:03.920224,2,left,1,0.2836997766193008,29,m,1,11,2018_Sep_21_1509,MP_PerceptionTuring2,59.94044481349798,
57,resources/videos_generated\model(vcgpdm)-dataset(walking)-mode(ELBO)-parts(2)-dyn(25)-lvm(18)_final(5).mov,resources/videos_natural\training(2).mov,True,True,left,0,56,56,56,2018-09-21 15:16:12.678983,2018-09-21 15:16:16.616208,0:00:03.937225,2,right,0,0.28499663137006337,29,m,1,11,2018_Sep_21_1509,MP_PerceptionTuring2,59.94044481349798,
58,resources/videos_generated\model(vcgpdm)-dataset(walking)-mode(ELBO)-parts(1)-dyn(23)-lvm(26)_final(3)_hip-corrected.mov,resources/videos_natural\training(11).mov,False,False,right,0,57,57,57,2018-09-21 15:16:18.017288,2018-09-21 15:16:21.937513,0:00:03.920225,2,right,1,0.3005609965964595,29,m,1,11,2018_Sep_21_1509,MP_PerceptionTuring2,59.94044481349798,
59,resources/videos_generated\model(vcgpdm)-dataset(walking)-mode(ELBO)-parts(1)-dyn(24)-lvm(27)_final(2).mov,resources/videos_natural\training(32).mov,False,True,left,0,58,58,58,2018-09-21 15:16:23.354594,2018-09-21 15:16:27.291819,0:00:03.937225,2,left,1,0.30056942946521303,29,m,1,11,2018_Sep_21_1509,MP_PerceptionTuring2,59.94044481349798,
60,resources/videos_generated\model(vcgpdm)-dataset(walking)-mode(ELBO)-parts(1)-dyn(27)-lvm(26)_final(3).mov,resources/videos_natural\training(9).mov,True,True,left,0,59,59,59,2018-09-21 15:16:28.709900,2018-09-21 15:16:32.630124,0:00:03.920224,2,left,1,0.26702769384235125,29,m,1,11,2018_Sep_21_1509,MP_PerceptionTuring2,59.94044481349798,
61,resources/videos_generated\model(vcgpdm)-dataset(walking)-mode(ELBO)-parts(1)-dyn(25)-lvm(23)_final(7).mov,resources/videos_natural\training(18).mov,False,False,right,0,60,60,60,2018-09-21 15:16:34.014203,2018-09-21 15:16:38.101437,0:00:04.087234,2,right,1,0.3004823902123235,29,m,1,11,2018_Sep_21_1509,MP_PerceptionTuring2,59.94044481349798,
62,resources/videos_generated\model(vcgpdm)-dataset(walking)-mode(ELBO)-parts(2)-dyn(22)-lvm(17)_final(5).mov,resources/videos_natural\training(11).mov,True,False,right,0,61,61,61,2018-09-21 15:16:39.518518,2018-09-21 15:16:43.422741,0:00:03.904223,2,right,1,0.283769046613088,29,m,1,11,2018_Sep_21_1509,MP_PerceptionTuring2,59.94044481349798,
63,resources/videos_generated\model(vcgpdm)-dataset(walking)-mode(ELBO)-parts(2)-dyn(27)-lvm(18)_final(3).mov,resources/videos_natural\training(39).mov,True,False,right,0,62,62,62,2018-09-21 15:16:44.823822,2018-09-21 15:16:48.744046,0:00:03.920224,2,right,1,0.31709634642948004,29,m,1,11,2018_Sep_21_1509,MP_PerceptionTuring2,59.94044481349798,
64,resources/videos_generated\model(vcgpdm)-dataset(walking)-mode(ELBO)-parts(1)-dyn(27)-lvm(26)_final(1).mov,resources/videos_natural\training(25).mov,False,False,right,0,63,63,63,2018-09-21 15:16:50.180128,2018-09-21 15:16:54.098352,0:00:03.918224,2,right,1,0.26709425327089775,29,m,1,11,2018_Sep_21_1509,MP_PerceptionTuring2,59.94044481349798,
65,resources/videos_generated\model(vcgpdm)-dataset(walking)-mode(ELBO)-parts(2)-dyn(28)-lvm(19)_final(3).mov,resources/videos_natural\training(9).mov,True,False,right,0,64,64,64,2018-09-21 15:16:55.482431,2018-09-21 15:16:59.385654,0:00:03.903223,2,right,1,0.23390850518069328,29,m,1,11,2018_Sep_21_1509,MP_PerceptionTuring2,59.94044481349798,
66,resources/videos_generated\model(vcgpdm)-dataset(walking)-mode(ELBO)-parts(1)-dyn(23)-lvm(28)_final(6)_hip-corrected.mov,resources/videos_natural\training(20).mov,True,False,right,0,65,65,65,2018-09-21 15:17:00.736732,2018-09-21 15:17:04.840967,0:00:04.104235,2,left,0,0.35062603509709334,29,m,1,11,2018_Sep_21_1509,MP_PerceptionTuring2,59.94044481349798,
67,resources/videos_generated\model(vcgpdm)-dataset(walking)-mode(ELBO)-parts(2)-dyn(25)-lvm(22)_final(3).mov,resources/videos_natural\training(5).mov,False,True,left,0,66,66,66,2018-09-21 15:17:06.309050,2018-09-21 15:17:10.229275,0:00:03.920225,2,right,0,0.26704907718817594,29,m,1,11,2018_Sep_21_1509,MP_PerceptionTuring2,59.94044481349798,
68,resources/videos_generated\model(vcgpdm)-dataset(walking)-mode(ELBO)-parts(1)-dyn(23)-lvm(24)_final(5).mov,resources/videos_natural\training(23).mov,False,True,left,0,67,67,67,2018-09-21 15:17:11.613354,2018-09-21 15:17:15.700588,0:00:04.087234,2,left,1,0.23403409469085545,29,m,1,11,2018_Sep_21_1509,MP_PerceptionTuring2,59.94044481349798,
69,resources/videos_generated\model(vcgpdm)-dataset(walking)-mode(ELBO)-parts(1)-dyn(22)-lvm(23)_final(2).mov,resources/videos_natural\training(23).mov,False,True,left,0,68,68,68,2018-09-21 15:17:17.051665,2018-09-21 15:17:20.954888,0:00:03.903223,2,left,1,0.25198104652508846,29,m,1,11,2018_Sep_21_1509,MP_PerceptionTuring2,59.94044481349798,
70,resources/videos_generated\model(vcgpdm)-dataset(walking)-mode(ELBO)-parts(1)-dyn(22)-lvm(27)_final(6)_fail.mov,resources/videos_natural\training(12).mov,True,False,right,0,69,69,69,2018-09-21 15:17:22.322966,2018-09-21 15:17:26.426201,0:00:04.103235,2,right,1,0.2837392303983961,29,m,1,11,2018_Sep_21_1509,MP_PerceptionTuring2,59.94044481349798,
71,resources/videos_generated\model(vcgpdm)-dataset(walking)-mode(ELBO)-parts(2)-dyn(27)-lvm(20)_final(9).mov,resources/videos_natural\training(38).mov,True,True,left,0,70,70,70,2018-09-21 15:17:27.827281,2018-09-21 15:17:31.898514,0:00:04.071233,2,left,1,0.3172912059334294,29,m,1,11,2018_Sep_21_1509,MP_PerceptionTuring2,59.94044481349798,
72,resources/videos_generated\model(vcgpdm)-dataset(walking)-mode(ELBO)-parts(2)-dyn(26)-lvm(17)_final(1).mov,resources/videos_natural\training(31).mov,False,True,left,0,71,71,71,2018-09-21 15:17:33.331596,2018-09-21 15:17:37.218818,0:00:03.887222,2,left,1,0.26708070044617216,29,m,1,11,2018_Sep_21_1509,MP_PerceptionTuring2,59.94044481349798,
73,resources/videos_generated\model(vcgpdm)-dataset(walking)-mode(ELBO)-parts(2)-dyn(24)-lvm(17)_final(1).mov,resources/videos_natural\training(29).mov,False,False,right,0,72,72,72,2018-09-21 15:17:38.602898,2018-09-21 15:17:42.540123,0:00:03.937225,2,left,0,0.23370822454671725,29,m,1,11,2018_Sep_21_1509,MP_PerceptionTuring2,59.94044481349798,
74,resources/videos_generated\model(vcgpdm)-dataset(walking)-mode(ELBO)-parts(2)-dyn(24)-lvm(17)_final(9).mov,resources/videos_natural\training(22).mov,True,False,right,0,73,73,73,2018-09-21 15:17:43.891200,2018-09-21 15:17:47.978434,0:00:04.087234,2,right,1,0.26709575914037487,29,m,1,11,2018_Sep_21_1509,MP_PerceptionTuring2,59.94044481349798,
75,resources/videos_generated\model(dmp)-dataset(walking)-npsi(70)_final(0).mov,resources/videos_natural\training(41).mov,False,True,left,0,74,74,74,2018-09-21 15:17:49.362513,2018-09-21 15:17:53.499750,0:00:04.137237,2,left,1,0.26732947007553776,29,m,1,11,2018_Sep_21_1509,MP_PerceptionTuring2,59.94044481349798,
76,resources/videos_generated\model(vcgpdm)-dataset(walking)-mode(ELBO)-parts(2)-dyn(23)-lvm(18)_final(7).mov,resources/videos_natural\training(4).mov,False,True,left,0,75,75,75,2018-09-21 15:17:54.883829,2018-09-21 15:17:58.904059,0:00:04.020230,2,left,1,0.28391391125182963,29,m,1,11,2018_Sep_21_1509,MP_PerceptionTuring2,59.94044481349798,
77,resources/videos_generated\model(vcgpdm)-dataset(walking)-mode(ELBO)-parts(1)-dyn(28)-lvm(23)_final(1).mov,resources/videos_natural\training(14).mov,False,False,right,0,76,76,76,2018-09-21 15:18:00.305139,2018-09-21 15:18:04.225363,0:00:03.920224,2,right,1,0.28388048095075646,29,m,1,11,2018_Sep_21_1509,MP_PerceptionTuring2,59.94044481349798,
78,resources/videos_generated\model(vcgpdm)-dataset(walking)-mode(ELBO)-parts(1)-dyn(22)-lvm(22)_final(8).mov,resources/videos_natural\training(42).mov,False,False,right,0,77,77,77,2018-09-21 15:18:05.626443,2018-09-21 15:18:09.546667,0:00:03.920224,2,right,1,0.35064711726886344,29,m,1,11,2018_Sep_21_1509,MP_PerceptionTuring2,59.94044481349798,
79,resources/videos_generated\model(dmp)-dataset(walking)-npsi(70)_final(4).mov,resources/videos_natural\training(47).mov,True,False,right,0,78,78,78,2018-09-21 15:18:11.014751,2018-09-21 15:18:15.084984,0:00:04.070233,2,right,1,0.08360105181964173,29,m,1,11,2018_Sep_21_1509,MP_PerceptionTuring2,59.94044481349798,
80,resources/videos_generated\model(vcgpdm)-dataset(walking)-mode(ELBO)-parts(2)-dyn(28)-lvm(17)_final(9).mov,resources/videos_natural\training(9).mov,True,True,left,0,79,79,79,2018-09-21 15:18:16.286053,2018-09-21 15:18:20.222278,0:00:03.936225,2,left,1,0.2839202359034516,29,m,1,11,2018_Sep_21_1509,MP_PerceptionTuring2,59.94044481349798,
81,resources/videos_generated\model(tmp)-dataset(walking)-numprim(15)_final(8).mov,resources/videos_natural\training(15).mov,False,False,right,0,80,80,80,2018-09-21 15:18:21.623358,2018-09-21 15:18:25.577584,0:00:03.954226,2,right,1,0.2337657487589695,29,m,1,11,2018_Sep_21_1509,MP_PerceptionTuring2,59.94044481349798,
82,resources/videos_generated\model(vcgpdm)-dataset(walking)-mode(ELBO)-parts(1)-dyn(28)-lvm(23)_final(9).mov,resources/videos_natural\training(6).mov,False,False,right,0,81,81,81,2018-09-21 15:18:26.928662,2018-09-21 15:18:30.964893,0:00:04.036231,2,right,1,0.23383170583974788,29,m,1,11,2018_Sep_21_1509,MP_PerceptionTuring2,59.94044481349798,
83,resources/videos_generated\model(dmp)-dataset(walking)-npsi(100)_final(4).mov,resources/videos_natural\training(7).mov,False,True,left,0,82,82,82,2018-09-21 15:18:32.316970,2018-09-21 15:18:36.270196,0:00:03.953226,2,left,1,0.2003875505556607,29,m,1,11,2018_Sep_21_1509,MP_PerceptionTuring2,59.94044481349798,
84,resources/videos_generated\model(vcgpdm)-dataset(walking)-mode(ELBO)-parts(1)-dyn(22)-lvm(28)_final(0).mov,resources/videos_natural\training(17).mov,True,True,left,0,83,83,83,2018-09-21 15:18:37.587271,2018-09-21 15:18:41.524496,0:00:03.937225,2,right,0,0.2839500521181435,29,m,1,11,2018_Sep_21_1509,MP_PerceptionTuring2,59.94044481349798,
85,resources/videos_generated\model(vcgpdm)-dataset(walking)-mode(ELBO)-parts(2)-dyn(23)-lvm(20)_final(3).mov,resources/videos_natural\training(47).mov,True,False,right,0,84,84,84,2018-09-21 15:18:42.925577,2018-09-21 15:18:46.845801,0:00:03.920224,2,right,1,0.2338401387085014,29,m,1,11,2018_Sep_21_1509,MP_PerceptionTuring2,59.94044481349798,
86,resources/videos_generated\model(vcgpdm)-dataset(walking)-mode(ELBO)-parts(1)-dyn(24)-lvm(27)_final(8).mov,resources/videos_natural\training(18).mov,False,True,left,0,85,85,85,2018-09-21 15:18:48.196878,2018-09-21 15:18:52.117102,0:00:03.920224,2,right,0,0.21697048586270284,29,m,1,11,2018_Sep_21_1509,MP_PerceptionTuring2,59.94044481349798,
87,resources/videos_generated\model(vcgpdm)-dataset(walking)-mode(ELBO)-parts(2)-dyn(28)-lvm(21)_final(3).mov,resources/videos_natural\training(21).mov,True,False,right,0,86,86,86,2018-09-21 15:18:53.451179,2018-09-21 15:18:57.371403,0:00:03.920224,2,right,1,0.2504221704939482,29,m,1,11,2018_Sep_21_1509,MP_PerceptionTuring2,59.94044481349798,
88,resources/videos_generated\model(vcgpdm)-dataset(walking)-mode(ELBO)-parts(1)-dyn(27)-lvm(26)_final(7).mov,resources/videos_natural\training(47).mov,True,True,left,0,87,87,87,2018-09-21 15:18:58.739481,2018-09-21 15:19:02.659705,0:00:03.920224,2,left,1,0.26714966926601846,29,m,1,11,2018_Sep_21_1509,MP_PerceptionTuring2,59.94044481349798,
89,resources/videos_generated\model(vcgpdm)-dataset(walking)-mode(ELBO)-parts(1)-dyn(27)-lvm(28)_final(9).mov,resources/videos_natural\training(0).mov,True,False,right,0,88,88,88,2018-09-21 15:19:04.043785,2018-09-21 15:19:07.964009,0:00:03.920224,2,left,0,0.2672626094729367,29,m,1,11,2018_Sep_21_1509,MP_PerceptionTuring2,59.94044481349798,
90,resources/videos_generated\model(tmp)-dataset(walking)-numprim(13)_final(0).mov,resources/videos_natural\training(23).mov,True,False,right,0,89,89,89,2018-09-21 15:19:09.348088,2018-09-21 15:19:13.302314,0:00:03.954226,2,right,1,0.3338762494574894,29,m,1,11,2018_Sep_21_1509,MP_PerceptionTuring2,59.94044481349798,
91,resources/videos_generated\model(dmp)-dataset(walking)-npsi(50)_final(0).mov,resources/videos_natural\training(47).mov,True,False,right,0,90,90,90,2018-09-21 15:20:05.780316,2018-09-21 15:20:09.717541,0:00:03.937225,3,left,0,0.23376574875874212,29,m,1,11,2018_Sep_21_1509,MP_PerceptionTuring2,59.94044481349798,
92,resources/videos_generated\model(vcgpdm)-dataset(walking)-mode(ELBO)-parts(2)-dyn(28)-lvm(19)_final(7).mov,resources/videos_natural\training(4).mov,True,True,left,0,91,91,91,2018-09-21 15:20:11.068618,2018-09-21 15:20:14.988842,0:00:03.920224,3,left,1,0.45066335054161755,29,m,1,11,2018_Sep_21_1509,MP_PerceptionTuring2,59.94044481349798,
93,resources/videos_generated\model(vcgpdm)-dataset(walking)-mode(ELBO)-parts(1)-dyn(27)-lvm(26)_final(9).mov,resources/videos_natural\training(26).mov,False,False,right,0,92,92,92,2018-09-21 15:20:16.556932,2018-09-21 15:20:20.477156,0:00:03.920224,3,right,1,0.2837771783079006,29,m,1,11,2018_Sep_21_1509,MP_PerceptionTuring2,59.94044481349798,
94,resources/videos_generated\model(vcgpdm)-dataset(walking)-mode(ELBO)-parts(2)-dyn(27)-lvm(18)_final(1).mov,resources/videos_natural\training(17).mov,True,True,left,0,93,93,93,2018-09-21 15:20:21.878236,2018-09-21 15:20:25.798461,0:00:03.920225,3,left,1,0.06687355304779885,29,m,1,11,2018_Sep_21_1509,MP_PerceptionTuring2,59.94044481349798,
95,resources/videos_generated\model(vcgpdm)-dataset(walking)-mode(ELBO)-parts(2)-dyn(28)-lvm(23)_final(1).mov,resources/videos_natural\training(10).mov,True,False,right,0,94,94,94,2018-09-21 15:20:26.982528,2018-09-21 15:20:30.885752,0:00:03.903224,3,right,1,0.48400962431287553,29,m,1,11,2018_Sep_21_1509,MP_PerceptionTuring2,59.94044481349798,
96,resources/videos_generated\model(vcgpdm)-dataset(walking)-mode(ELBO)-parts(2)-dyn(22)-lvm(21)_final(9).mov,resources/videos_natural\training(5).mov,False,False,right,0,95,95,95,2018-09-21 15:20:32.486843,2018-09-21 15:20:36.407067,0:00:03.920224,3,right,1,0.300519434600119,29,m,1,11,2018_Sep_21_1509,MP_PerceptionTuring2,59.94044481349798,
97,resources/videos_generated\model(vcgpdm)-dataset(walking)-mode(ELBO)-parts(2)-dyn(28)-lvm(23)_final(9).mov,resources/videos_natural\training(12).mov,True,True,left,0,96,96,96,2018-09-21 15:20:37.825149,2018-09-21 15:20:41.695370,0:00:03.870221,3,left,1,0.6675058375028584,29,m,1,11,2018_Sep_21_1509,MP_PerceptionTuring2,59.94044481349798,
98,resources/videos_generated\model(vcgpdm)-dataset(walking)-mode(ELBO)-parts(2)-dyn(26)-lvm(23)_final(5).mov,resources/videos_natural\training(0).mov,False,False,right,0,97,97,97,2018-09-21 15:20:43.479472,2018-09-21 15:20:47.399696,0:00:03.920224,3,right,1,0.30045046578038637,29,m,1,11,2018_Sep_21_1509,MP_PerceptionTuring2,59.94044481349798,
99,resources/videos_generated\model(vcgpdm)-dataset(walking)-mode(ELBO)-parts(2)-dyn(26)-lvm(21)_final(1).mov,resources/videos_natural\training(6).mov,True,True,left,0,98,98,98,2018-09-21 15:20:48.817777,2018-09-21 15:20:52.738001,0:00:03.920224,3,left,1,0.2504655395334794,29,m,1,11,2018_Sep_21_1509,MP_PerceptionTuring2,59.94044481349798,
100,resources/videos_generated\model(vcgpdm)-dataset(walking)-mode(ELBO)-parts(1)-dyn(23)-lvm(28)_final(0).mov,resources/videos_natural\training(4).mov,False,True,left,0,99,99,99,2018-09-21 15:20:54.106080,2018-09-21 15:20:58.059306,0:00:03.953226,3,right,0,0.3672689040072328,29,m,1,11,2018_Sep_21_1509,MP_PerceptionTuring2,59.94044481349798,
101,resources/videos_generated\model(vcgpdm)-dataset(walking)-mode(ELBO)-parts(2)-dyn(24)-lvm(23)_final(3).mov,resources/videos_natural\training(19).mov,False,False,right,0,100,100,100,2018-09-21 15:20:59.543391,2018-09-21 15:21:03.480616,0:00:03.937225,3,right,1,0.2522581264997825,29,m,1,11,2018_Sep_21_1509,MP_PerceptionTuring2,59.94044481349798,
102,resources/videos_generated\model(vcgpdm)-dataset(walking)-mode(ELBO)-parts(1)-dyn(27)-lvm(24)_final(1).mov,resources/videos_natural\training(24).mov,True,False,right,0,101,101,101,2018-09-21 15:21:04.848694,2018-09-21 15:21:08.868924,0:00:04.020230,3,right,1,0.2671114201823457,29,m,1,11,2018_Sep_21_1509,MP_PerceptionTuring2,59.94044481349798,
103,resources/videos_generated\model(vcgpdm)-dataset(walking)-mode(ELBO)-parts(1)-dyn(22)-lvm(27)_final(8)_fail.mov,resources/videos_natural\training(2).mov,True,True,left,0,102,102,102,2018-09-21 15:21:10.253003,2018-09-21 15:21:14.206229,0:00:03.953226,3,left,1,0.4839391496234384,29,m,1,11,2018_Sep_21_1509,MP_PerceptionTuring2,59.94044481349798,
104,resources/videos_generated\model(vcgpdm)-dataset(walking)-mode(ELBO)-parts(2)-dyn(26)-lvm(17)_final(3).mov,resources/videos_natural\training(20).mov,False,True,left,0,103,103,103,2018-09-21 15:21:15.807321,2018-09-21 15:21:19.694543,0:00:03.887222,3,right,0,0.28391722416472476,29,m,1,11,2018_Sep_21_1509,MP_PerceptionTuring2,59.94044481349798,
105,resources/videos_generated\model(tmp)-dataset(walking)-numprim(15)_final(2).mov,resources/videos_natural\training(36).mov,True,True,left,0,104,104,104,2018-09-21 15:21:21.095623,2018-09-21 15:21:24.998847,0:00:03.903224,3,left,1,0.2338021907989969,29,m,1,11,2018_Sep_21_1509,MP_PerceptionTuring2,59.94044481349798,
106,resources/videos_generated\model(dmp)-dataset(walking)-npsi(90)_final(2).mov,resources/videos_natural\training(26).mov,False,True,left,0,105,105,105,2018-09-21 15:21:26.349924,2018-09-21 15:21:30.270148,0:00:03.920224,3,left,1,0.25045469727365344,29,m,1,11,2018_Sep_21_1509,MP_PerceptionTuring2,59.94044481349798,
107,resources/videos_generated\model(tmp)-dataset(walking)-numprim(12)_final(6).mov,resources/videos_natural\training(46).mov,False,True,left,0,106,106,106,2018-09-21 15:21:31.638226,2018-09-21 15:21:35.541450,0:00:03.903224,3,left,1,0.21719154749462177,29,m,1,11,2018_Sep_21_1509,MP_PerceptionTuring2,59.94044481349798,
108,resources/videos_generated\model(vcgpdm)-dataset(walking)-mode(ELBO)-parts(2)-dyn(25)-lvm(20)_final(1).mov,resources/videos_natural\training(45).mov,False,False,right,0,107,107,107,2018-09-21 15:21:36.875526,2018-09-21 15:21:40.962760,0:00:04.087234,3,left,0,0.30049534068939465,29,m,1,11,2018_Sep_21_1509,MP_PerceptionTuring2,59.94044481349798,
109,resources/videos_generated\model(vcgpdm)-dataset(walking)-mode(ELBO)-parts(2)-dyn(22)-lvm(21)_final(7).mov,resources/videos_natural\training(35).mov,True,False,right,0,108,108,108,2018-09-21 15:21:42.380841,2018-09-21 15:21:46.351068,0:00:03.970227,3,right,1,0.583955985243847,29,m,1,11,2018_Sep_21_1509,MP_PerceptionTuring2,59.94044481349798,
110,resources/videos_generated\model(vcgpdm)-dataset(walking)-mode(ELBO)-parts(2)-dyn(27)-lvm(20)_final(3).mov,resources/videos_natural\training(34).mov,False,False,right,0,109,109,109,2018-09-21 15:21:48.052165,2018-09-21 15:21:51.955389,0:00:03.903224,3,left,0,0.3004974489065262,29,m,1,11,2018_Sep_21_1509,MP_PerceptionTuring2,59.94044481349798,
111,resources/videos_generated\model(vcgpdm)-dataset(walking)-mode(ELBO)-parts(2)-dyn(26)-lvm(21)_final(7).mov,resources/videos_natural\training(15).mov,False,False,right,0,110,110,110,2018-09-21 15:21:53.373470,2018-09-21 15:21:57.276693,0:00:03.903223,3,right,1,0.30043600943395177,29,m,1,11,2018_Sep_21_1509,MP_PerceptionTuring2,59.94044481349798,
112,resources/videos_generated\model(vcgpdm)-dataset(walking)-mode(ELBO)-parts(1)-dyn(26)-lvm(25)_final(7).mov,resources/videos_natural\training(5).mov,True,True,left,0,111,111,111,2018-09-21 15:21:58.694774,2018-09-21 15:22:02.631999,0:00:03.937225,3,left,1,0.28393228285904115,29,m,1,11,2018_Sep_21_1509,MP_PerceptionTuring2,59.94044481349798,
113,resources/videos_generated\model(vcgpdm)-dataset(walking)-mode(ELBO)-parts(2)-dyn(25)-lvm(20)_final(5).mov,resources/videos_natural\training(13).mov,False,True,left,0,112,112,112,2018-09-21 15:22:04.034079,2018-09-21 15:22:07.953304,0:00:03.919225,3,right,0,0.2337220785457248,29,m,1,11,2018_Sep_21_1509,MP_PerceptionTuring2,59.94044481349798,
114,resources/videos_generated\model(vcgpdm)-dataset(walking)-mode(ELBO)-parts(1)-dyn(22)-lvm(23)_final(6)_fail.mov,resources/videos_natural\training(45).mov,False,True,left,0,113,113,113,2018-09-21 15:22:09.304381,2018-09-21 15:22:13.207604,0:00:03.903223,3,left,1,0.3505760402319993,29,m,1,11,2018_Sep_21_1509,MP_PerceptionTuring2,59.94044481349798,
115,resources/videos_generated\model(vcgpdm)-dataset(walking)-mode(ELBO)-parts(1)-dyn(27)-lvm(28)_final(3).mov,resources/videos_natural\training(11).mov,False,False,right,0,114,114,114,2018-09-21 15:22:14.675688,2018-09-21 15:22:18.595912,0:00:03.920224,3,right,1,0.30043480473841555,29,m,1,11,2018_Sep_21_1509,MP_PerceptionTuring2,59.94044481349798,
116,resources/videos_generated\model(vcgpdm)-dataset(walking)-mode(ELBO)-parts(2)-dyn(27)-lvm(22)_final(5).mov,resources/videos_natural\training(40).mov,False,True,left,0,115,115,115,2018-09-21 15:22:20.012993,2018-09-21 15:22:23.967219,0:00:03.954226,3,left,1,0.31709152764733517,29,m,1,11,2018_Sep_21_1509,MP_PerceptionTuring2,59.94044481349798,
117,resources/videos_generated\model(vcgpdm)-dataset(walking)-mode(ELBO)-parts(2)-dyn(23)-lvm(22)_final(7).mov,resources/videos_natural\training(6).mov,True,True,left,0,116,116,116,2018-09-21 15:22:25.401302,2018-09-21 15:22:29.338527,0:00:03.937225,3,left,1,0.20042640198721529,29,m,1,11,2018_Sep_21_1509,MP_PerceptionTuring2,59.94044481349798,
118,resources/videos_generated\model(vcgpdm)-dataset(walking)-mode(ELBO)-parts(1)-dyn(22)-lvm(22)_final(0).mov,resources/videos_natural\training(16).mov,False,True,left,0,117,117,117,2018-09-21 15:22:30.655602,2018-09-21 15:22:34.592827,0:00:03.937225,3,left,1,0.3005007618194213,29,m,1,11,2018_Sep_21_1509,MP_PerceptionTuring2,59.94044481349798,
119,resources/videos_generated\model(tmp)-dataset(walking)-numprim(15)_final(0).mov,resources/videos_natural\training(37).mov,False,True,left,0,118,118,118,2018-09-21 15:22:36.010908,2018-09-21 15:22:39.947133,0:00:03.936225,3,left,1,0.25049896983455255,29,m,1,11,2018_Sep_21_1509,MP_PerceptionTuring2,59.94044481349798,
120,resources/videos_generated\model(vcgpdm)-dataset(walking)-mode(ELBO)-parts(1)-dyn(22)-lvm(25)_final(2).mov,resources/videos_natural\training(47).mov,False,True,left,0,119,119,119,2018-09-21 15:22:41.315212,2018-09-21 15:22:45.251437,0:00:03.936225,3,left,1,0.2671225636163399,29,m,1,11,2018_Sep_21_1509,MP_PerceptionTuring2,59.94044481349798,
121,resources/videos_generated\model(vcgpdm)-dataset(walking)-mode(ELBO)-parts(1)-dyn(25)-lvm(22)_final(2).mov,resources/videos_natural\training(16).mov,False,False,right,0,120,120,120,2018-09-21 15:22:46.636516,2018-09-21 15:22:50.556740,0:00:03.920224,3,right,1,0.21713703502132375,29,m,1,11,2018_Sep_21_1509,MP_PerceptionTuring2,59.94044481349798,
122,resources/videos_generated\model(vcgpdm)-dataset(walking)-mode(ELBO)-parts(1)-dyn(25)-lvm(26)_final(8).mov,resources/videos_natural\training(25).mov,True,False,right,0,121,121,121,2018-09-21 15:22:51.890817,2018-09-21 15:22:55.961049,0:00:04.070232,3,right,1,0.43384821016866226,29,m,1,11,2018_Sep_21_1509,MP_PerceptionTuring2,59.94044481349798,
123,resources/videos_generated\model(vcgpdm)-dataset(walking)-mode(ELBO)-parts(2)-dyn(22)-lvm(23)_final(9).mov,resources/videos_natural\training(33).mov,False,True,left,0,122,122,122,2018-09-21 15:22:57.512138,2018-09-21 15:23:01.399360,0:00:03.887222,3,left,1,0.3839039423962731,29,m,1,11,2018_Sep_21_1509,MP_PerceptionTuring2,59.94044481349798,
124,resources/videos_generated\model(vcgpdm)-dataset(walking)-mode(ELBO)-parts(1)-dyn(25)-lvm(22)_final(8).mov,resources/videos_natural\training(31).mov,True,True,left,0,123,123,123,2018-09-21 15:23:02.900446,2018-09-21 15:23:06.953678,0:00:04.053232,3,left,1,0.28395938850849234,29,m,1,11,2018_Sep_21_1509,MP_PerceptionTuring2,59.94044481349798,
125,resources/videos_generated\model(vcgpdm)-dataset(walking)-mode(ELBO)-parts(1)-dyn(28)-lvm(23)_final(3)_fail.mov,resources/videos_natural\training(10).mov,False,False,right,0,124,124,124,2018-09-21 15:23:08.354758,2018-09-21 15:23:12.374988,0:00:04.020230,3,right,1,0.300756458448177,29,m,1,11,2018_Sep_21_1509,MP_PerceptionTuring2,59.94044481349798,
126,resources/videos_generated\model(vcgpdm)-dataset(walking)-mode(ELBO)-parts(2)-dyn(24)-lvm(23)_final(9).mov,resources/videos_natural\training(43).mov,True,False,right,0,125,125,125,2018-09-21 15:23:13.793069,2018-09-21 15:23:17.730295,0:00:03.937226,3,right,1,0.18373926051572198,29,m,1,11,2018_Sep_21_1509,MP_PerceptionTuring2,59.94044481349798,
127,resources/videos_generated\model(vcgpdm)-dataset(walking)-mode(ELBO)-parts(1)-dyn(26)-lvm(27)_final(9).mov,resources/videos_natural\training(3).mov,True,True,left,0,126,126,126,2018-09-21 15:23:19.031369,2018-09-21 15:23:23.134604,0:00:04.103235,3,left,1,0.2338256823620668,29,m,1,11,2018_Sep_21_1509,MP_PerceptionTuring2,59.94044481349798,
128,resources/videos_generated\model(vcgpdm)-dataset(walking)-mode(ELBO)-parts(2)-dyn(26)-lvm(23)_final(7).mov,resources/videos_natural\training(24).mov,False,False,right,0,127,127,127,2018-09-21 15:23:24.485681,2018-09-21 15:23:28.522912,0:00:04.037231,3,right,1,0.25052999074478066,29,m,1,11,2018_Sep_21_1509,MP_PerceptionTuring2,59.94044481349798,
129,resources/videos_generated\model(dmp)-dataset(walking)-npsi(50)_final(2).mov,resources/videos_natural\training(27).mov,False,False,right,0,128,128,128,2018-09-21 15:23:29.889990,2018-09-21 15:23:33.810214,0:00:03.920224,3,right,1,0.21721022027554682,29,m,1,11,2018_Sep_21_1509,MP_PerceptionTuring2,59.94044481349798,
130,resources/videos_generated\model(vcgpdm)-dataset(walking)-mode(ELBO)-parts(1)-dyn(27)-lvm(22)_final(7).mov,resources/videos_natural\training(39).mov,True,True,left,0,129,129,129,2018-09-21 15:23:35.145291,2018-09-21 15:23:39.064515,0:00:03.919224,3,right,0,0.15052459973253463,29,m,1,11,2018_Sep_21_1509,MP_PerceptionTuring2,59.94044481349798,
131,resources/videos_generated\model(vcgpdm)-dataset(walking)-mode(ELBO)-parts(1)-dyn(26)-lvm(23)_final(3)_fail.mov,resources/videos_natural\training(19).mov,False,False,right,0,130,130,130,2018-09-21 15:23:40.332587,2018-09-21 15:23:44.352817,0:00:04.020230,3,right,1,0.3170993581682069,29,m,1,11,2018_Sep_21_1509,MP_PerceptionTuring2,59.94044481349798,
132,resources/videos_generated\model(dmp)-dataset(walking)-npsi(60)_final(6).mov,resources/videos_natural\training(0).mov,True,False,right,0,131,131,131,2018-09-21 15:23:45.787899,2018-09-21 15:23:49.707124,0:00:03.919225,3,right,1,0.10024331838212674,29,m,1,11,2018_Sep_21_1509,MP_PerceptionTuring2,59.94044481349798,
133,resources/videos_generated\model(vcgpdm)-dataset(walking)-mode(ELBO)-parts(2)-dyn(24)-lvm(19)_final(7).mov,resources/videos_natural\training(39).mov,False,True,left,0,132,132,132,2018-09-21 15:23:50.925193,2018-09-21 15:23:54.878419,0:00:03.953226,3,right,0,0.20047940859080882,29,m,1,11,2018_Sep_21_1509,MP_PerceptionTuring2,59.94044481349798,
134,resources/videos_generated\model(vcgpdm)-dataset(walking)-mode(ELBO)-parts(2)-dyn(28)-lvm(17)_final(1).mov,resources/videos_natural\training(4).mov,True,False,right,0,133,133,133,2018-09-21 15:23:56.196495,2018-09-21 15:24:00.249727,0:00:04.053232,3,right,1,0.2170518028119659,29,m,1,11,2018_Sep_21_1509,MP_PerceptionTuring2,59.94044481349798,
135,resources/videos_generated\model(vcgpdm)-dataset(walking)-mode(ELBO)-parts(2)-dyn(22)-lvm(17)_final(7).mov,resources/videos_natural\training(47).mov,False,True,left,0,134,134,134,2018-09-21 15:24:01.584803,2018-09-21 15:24:05.488026,0:00:03.903223,3,right,0,0.46733964975283016,29,m,1,11,2018_Sep_21_1509,MP_PerceptionTuring2,59.94044481349798,
136,resources/videos_generated\model(vcgpdm)-dataset(walking)-mode(ELBO)-parts(2)-dyn(23)-lvm(20)_final(1).mov,resources/videos_natural\training(35).mov,False,True,left,0,135,135,135,2018-09-21 15:24:44.288245,2018-09-21 15:24:48.241471,0:00:03.953226,4,left,1,0.31722012889645157,29,m,1,11,2018_Sep_21_1509,MP_PerceptionTuring2,59.94044481349798,
137,resources/videos_generated\model(vcgpdm)-dataset(walking)-mode(ELBO)-parts(1)-dyn(27)-lvm(24)_final(9).mov,resources/videos_natural\training(19).mov,False,True,left,0,136,136,136,2018-09-21 15:24:49.676554,2018-09-21 15:24:53.745786,0:00:04.069232,4,right,0,0.2672111087385929,29,m,1,11,2018_Sep_21_1509,MP_PerceptionTuring2,59.94044481349798,
138,resources/videos_generated\model(vcgpdm)-dataset(walking)-mode(ELBO)-parts(2)-dyn(25)-lvm(18)_final(1).mov,resources/videos_natural\training(22).mov,False,False,right,0,137,137,137,2018-09-21 15:24:55.130866,2018-09-21 15:24:59.151095,0:00:04.020229,4,right,1,0.26731802546783,29,m,1,11,2018_Sep_21_1509,MP_PerceptionTuring2,59.94044481349798,
139,resources/videos_generated\model(vcgpdm)-dataset(walking)-mode(ELBO)-parts(1)-dyn(27)-lvm(22)_final(1).mov,resources/videos_natural\training(38).mov,False,True,left,0,138,138,138,2018-09-21 15:25:00.535175,2018-09-21 15:25:04.588406,0:00:04.053231,4,right,0,0.25048571818388154,29,m,1,11,2018_Sep_21_1509,MP_PerceptionTuring2,59.94044481349798,
140,resources/videos_generated\model(tmp)-dataset(walking)-numprim(11)_final(4).mov,resources/videos_natural\training(43).mov,False,False,right,0,139,139,139,2018-09-21 15:25:05.956485,2018-09-21 15:25:09.859708,0:00:03.903223,4,right,1,0.33386600954554524,29,m,1,11,2018_Sep_21_1509,MP_PerceptionTuring2,59.94044481349798,
141,resources/videos_generated\model(vcgpdm)-dataset(walking)-mode(ELBO)-parts(1)-dyn(22)-lvm(25)_final(6).mov,resources/videos_natural\training(43).mov,False,True,left,0,140,140,140,2018-09-21 15:25:11.311791,2018-09-21 15:25:15.215014,0:00:03.903223,4,left,1,0.7675088191242594,29,m,1,11,2018_Sep_21_1509,MP_PerceptionTuring2,59.94044481349798,
142,resources/videos_generated\model(vcgpdm)-dataset(walking)-mode(ELBO)-parts(2)-dyn(22)-lvm(21)_final(3).mov,resources/videos_natural\training(11).mov,False,True,left,0,141,141,141,2018-09-21 15:25:17.100122,2018-09-21 15:25:21.203357,0:00:04.103235,4,left,1,0.3505158054549611,29,m,1,11,2018_Sep_21_1509,MP_PerceptionTuring2,59.94044481349798,
143,resources/videos_generated\model(vcgpdm)-dataset(walking)-mode(ELBO)-parts(1)-dyn(22)-lvm(28)_final(7).mov,resources/videos_natural\training(48).mov,False,True,left,0,142,142,142,2018-09-21 15:25:22.671441,2018-09-21 15:25:26.774675,0:00:04.103234,4,right,0,0.26716171622138063,29,m,1,11,2018_Sep_21_1509,MP_PerceptionTuring2,59.94044481349798,
144,resources/videos_generated\model(vcgpdm)-dataset(walking)-mode(ELBO)-parts(1)-dyn(28)-lvm(27)_final(1).mov,resources/videos_natural\training(41).mov,False,False,right,0,143,143,143,2018-09-21 15:25:28.158755,2018-09-21 15:25:32.062978,0:00:03.904223,4,right,1,0.21719606510305312,29,m,1,11,2018_Sep_21_1509,MP_PerceptionTuring2,59.94044481349798,
145,resources/videos_generated\model(vcgpdm)-dataset(walking)-mode(ELBO)-parts(2)-dyn(23)-lvm(18)_final(1).mov,resources/videos_natural\training(2).mov,False,True,left,0,144,144,144,2018-09-21 15:25:33.397054,2018-09-21 15:25:37.300278,0:00:03.903224,4,right,0,0.0004300763084756909,29,m,1,11,2018_Sep_21_1509,MP_PerceptionTuring2,59.94044481349798,
146,resources/videos_generated\model(vcgpdm)-dataset(walking)-mode(ELBO)-parts(1)-dyn(22)-lvm(27)_final(2)_hip-corrected.mov,resources/videos_natural\training(14).mov,False,True,left,0,145,145,145,2018-09-21 15:25:38.418341,2018-09-21 15:25:42.321565,0:00:03.903224,4,right,0,0.26715418687422243,29,m,1,11,2018_Sep_21_1509,MP_PerceptionTuring2,59.94044481349798,
147,resources/videos_generated\model(vcgpdm)-dataset(walking)-mode(ELBO)-parts(2)-dyn(24)-lvm(21)_final(5).mov,resources/videos_natural\training(25).mov,True,True,left,0,146,146,146,2018-09-21 15:25:43.705644,2018-09-21 15:25:47.792878,0:00:04.087234,4,left,1,0.28431025608529126,29,m,1,11,2018_Sep_21_1509,MP_PerceptionTuring2,59.94044481349798,
148,resources/videos_generated\model(vcgpdm)-dataset(walking)-mode(ELBO)-parts(2)-dyn(27)-lvm(18)_final(9).mov,resources/videos_natural\training(21).mov,False,False,right,0,147,147,147,2018-09-21 15:25:49.193958,2018-09-21 15:25:53.164185,0:00:03.970227,4,right,1,0.2504218693200073,29,m,1,11,2018_Sep_21_1509,MP_PerceptionTuring2,59.94044481349798,
149,resources/videos_generated\model(vcgpdm)-dataset(walking)-mode(ELBO)-parts(1)-dyn(22)-lvm(23)_final(8).mov,resources/videos_natural\training(6).mov,False,False,right,0,148,148,148,2018-09-21 15:25:54.532263,2018-09-21 15:25:58.518491,0:00:03.986228,4,right,1,0.23377056754111436,29,m,1,11,2018_Sep_21_1509,MP_PerceptionTuring2,59.94044481349798,
150,resources/videos_generated\model(dmp)-dataset(walking)-npsi(70)_final(6).mov,resources/videos_natural\training(20).mov,True,False,right,0,149,149,149,2018-09-21 15:25:59.869568,2018-09-21 15:26:03.956802,0:00:04.087234,4,right,1,0.767461534824406,29,m,1,11,2018_Sep_21_1509,MP_PerceptionTuring2,59.94044481349798,
151,resources/videos_generated\model(dmp)-dataset(walking)-npsi(100)_final(0).mov,resources/videos_natural\training(26).mov,True,True,left,0,150,150,150,2018-09-21 15:26:05.841910,2018-09-21 15:26:09.778135,0:00:03.936225,4,left,1,0.26704184901495864,29,m,1,11,2018_Sep_21_1509,MP_PerceptionTuring2,59.94044481349798,
152,resources/videos_generated\model(vcgpdm)-dataset(walking)-mode(ELBO)-parts(1)-dyn(26)-lvm(27)_final(7).mov,resources/videos_natural\training(24).mov,False,False,right,0,151,151,151,2018-09-21 15:26:11.163214,2018-09-21 15:26:15.149442,0:00:03.986228,4,right,1,0.30058418698558853,29,m,1,11,2018_Sep_21_1509,MP_PerceptionTuring2,59.94044481349798,
153,resources/videos_generated\model(vcgpdm)-dataset(walking)-mode(ELBO)-parts(2)-dyn(22)-lvm(23)_final(3).mov,resources/videos_natural\training(19).mov,True,False,right,0,152,152,152,2018-09-21 15:26:16.567523,2018-09-21 15:26:20.470747,0:00:03.903224,4,right,1,0.25049144048762173,29,m,1,11,2018_Sep_21_1509,MP_PerceptionTuring2,59.94044481349798,
154,resources/videos_generated\model(tmp)-dataset(walking)-numprim(15)_final(4).mov,resources/videos_natural\training(36).mov,True,False,right,0,153,153,153,2018-09-21 15:26:21.838825,2018-09-21 15:26:25.742048,0:00:03.903223,4,left,0,0.2338425480998012,29,m,1,11,2018_Sep_21_1509,MP_PerceptionTuring2,59.94044481349798,
155,resources/videos_generated\model(vcgpdm)-dataset(walking)-mode(ELBO)-parts(1)-dyn(24)-lvm(27)_final(6).mov,resources/videos_natural\training(46).mov,False,True,left,0,154,154,154,2018-09-21 15:26:27.093125,2018-09-21 15:26:31.030351,0:00:03.937226,4,left,1,0.28399281881002025,29,m,1,11,2018_Sep_21_1509,MP_PerceptionTuring2,59.94044481349798,
156,resources/videos_generated\model(vcgpdm)-dataset(walking)-mode(ELBO)-parts(2)-dyn(24)-lvm(21)_final(7).mov,resources/videos_natural\training(38).mov,True,False,right,0,155,155,155,2018-09-21 15:26:32.431431,2018-09-21 15:26:36.334654,0:00:03.903223,4,left,0,0.2672722470372264,29,m,1,11,2018_Sep_21_1509,MP_PerceptionTuring2,59.94044481349798,
157,resources/videos_generated\model(vcgpdm)-dataset(walking)-mode(ELBO)-parts(2)-dyn(25)-lvm(20)_final(3).mov,resources/videos_natural\training(24).mov,False,True,left,0,156,156,156,2018-09-21 15:26:37.719733,2018-09-21 15:26:41.622957,0:00:03.903224,4,left,1,0.2504303021889882,29,m,1,11,2018_Sep_21_1509,MP_PerceptionTuring2,59.94044481349798,
158,resources/videos_generated\model(vcgpdm)-dataset(walking)-mode(ELBO)-parts(2)-dyn(25)-lvm(18)_final(9).mov,resources/videos_natural\training(46).mov,True,False,right,0,157,157,157,2018-09-21 15:26:42.991035,2018-09-21 15:26:46.928260,0:00:03.937225,4,right,1,0.25042337518948443,29,m,1,11,2018_Sep_21_1509,MP_PerceptionTuring2,59.94044481349798,
159,resources/videos_generated\model(vcgpdm)-dataset(walking)-mode(ELBO)-parts(1)-dyn(27)-lvm(22)_final(3).mov,resources/videos_natural\training(8).mov,False,True,left,0,158,158,158,2018-09-21 15:26:48.295338,2018-09-21 15:26:52.215562,0:00:03.920224,4,right,0,0.3672252337937607,29,m,1,11,2018_Sep_21_1509,MP_PerceptionTuring2,59.94044481349798,
160,resources/videos_generated\model(vcgpdm)-dataset(walking)-mode(ELBO)-parts(1)-dyn(23)-lvm(26)_final(1)_hip-corrected.mov,resources/videos_natural\training(40).mov,False,False,right,0,159,159,159,2018-09-21 15:26:53.699647,2018-09-21 15:26:57.652873,0:00:03.953226,4,right,1,0.2338268870578304,29,m,1,11,2018_Sep_21_1509,MP_PerceptionTuring2,59.94044481349798,
161,resources/videos_generated\model(vcgpdm)-dataset(walking)-mode(ELBO)-parts(1)-dyn(26)-lvm(23)_final(1).mov,resources/videos_natural\training(4).mov,True,False,right,0,160,160,160,2018-09-21 15:26:59.004951,2018-09-21 15:27:03.008180,0:00:04.003229,4,right,1,0.25068208355719435,29,m,1,11,2018_Sep_21_1509,MP_PerceptionTuring2,59.94044481349798,
162,resources/videos_generated\model(vcgpdm)-dataset(walking)-mode(ELBO)-parts(1)-dyn(28)-lvm(24)_final(2).mov,resources/videos_natural\training(31).mov,True,True,left,0,161,161,161,2018-09-21 15:27:04.376258,2018-09-21 15:27:08.295482,0:00:03.919224,4,right,0,0.25043753036197813,29,m,1,11,2018_Sep_21_1509,MP_PerceptionTuring2,59.94044481349798,
163,resources/videos_generated\model(dmp)-dataset(walking)-npsi(80)_final(8).mov,resources/videos_natural\training(36).mov,True,True,left,0,162,162,162,2018-09-21 15:27:09.663560,2018-09-21 15:27:13.600786,0:00:03.937226,4,right,0,0.483932222624162,29,m,1,11,2018_Sep_21_1509,MP_PerceptionTuring2,59.94044481349798,
164,resources/videos_generated\model(tmp)-dataset(walking)-numprim(12)_final(0).mov,resources/videos_natural\training(10).mov,False,True,left,0,163,163,163,2018-09-21 15:27:15.193877,2018-09-21 15:27:19.172104,0:00:03.978227,4,right,0,0.2503754885417493,29,m,1,11,2018_Sep_21_1509,MP_PerceptionTuring2,59.94044481349798,
165,resources/videos_generated\model(vcgpdm)-dataset(walking)-mode(ELBO)-parts(2)-dyn(27)-lvm(18)_final(7).mov,resources/videos_natural\training(10).mov,True,True,left,0,164,164,164,2018-09-21 15:27:20.540182,2018-09-21 15:27:24.476408,0:00:03.936226,4,right,0,0.23369617759135508,29,m,1,11,2018_Sep_21_1509,MP_PerceptionTuring2,59.94044481349798,
166,resources/videos_generated\model(vcgpdm)-dataset(walking)-mode(ELBO)-parts(1)-dyn(23)-lvm(26)_final(7).mov,resources/videos_natural\training(28).mov,False,True,left,0,165,165,165,2018-09-21 15:27:25.827485,2018-09-21 15:27:29.747709,0:00:03.920224,4,right,0,0.21712950567439293,29,m,1,11,2018_Sep_21_1509,MP_PerceptionTuring2,59.94044481349798,
167,resources/videos_generated\model(tmp)-dataset(walking)-numprim(12)_final(8).mov,resources/videos_natural\training(43).mov,True,False,right,0,166,166,166,2018-09-21 15:27:31.081785,2018-09-21 15:27:35.002010,0:00:03.920225,4,right,1,0.05019665148847707,29,m,1,11,2018_Sep_21_1509,MP_PerceptionTuring2,59.94044481349798,
168,resources/videos_generated\model(vcgpdm)-dataset(walking)-mode(ELBO)-parts(1)-dyn(28)-lvm(25)_final(3).mov,resources/videos_natural\training(39).mov,False,True,left,0,167,167,167,2018-09-21 15:27:36.170076,2018-09-21 15:27:40.190306,0:00:04.020230,4,left,1,0.38392683161146124,29,m,1,11,2018_Sep_21_1509,MP_PerceptionTuring2,59.94044481349798,
169,resources/videos_generated\model(vcgpdm)-dataset(walking)-mode(ELBO)-parts(2)-dyn(23)-lvm(20)_final(9).mov,resources/videos_natural\training(41).mov,False,True,left,0,168,168,168,2018-09-21 15:27:41.691392,2018-09-21 15:27:45.627617,0:00:03.936225,4,left,1,0.23376303819395616,29,m,1,11,2018_Sep_21_1509,MP_PerceptionTuring2,59.94044481349798,
170,resources/videos_generated\model(dmp)-dataset(walking)-npsi(90)_final(6).mov,resources/videos_natural\training(44).mov,True,False,right,0,169,169,169,2018-09-21 15:27:46.979695,2018-09-21 15:27:50.898919,0:00:03.919224,4,right,1,0.26715539156975865,29,m,1,11,2018_Sep_21_1509,MP_PerceptionTuring2,59.94044481349798,
171,resources/videos_generated\model(vcgpdm)-dataset(walking)-mode(ELBO)-parts(2)-dyn(27)-lvm(22)_final(1).mov,resources/videos_natural\training(9).mov,True,False,right,0,170,170,170,2018-09-21 15:27:52.283998,2018-09-21 15:27:56.204222,0:00:03.920224,4,right,1,0.4338388737783134,29,m,1,11,2018_Sep_21_1509,MP_PerceptionTuring2,59.94044481349798,
172,resources/videos_generated\model(vcgpdm)-dataset(walking)-mode(ELBO)-parts(2)-dyn(23)-lvm(22)_final(1).mov,resources/videos_natural\training(33).mov,False,True,left,0,171,171,171,2018-09-21 15:27:57.755311,2018-09-21 15:28:01.658534,0:00:03.903223,4,left,1,0.38410904181228034,29,m,1,11,2018_Sep_21_1509,MP_PerceptionTuring2,59.94044481349798,
173,resources/videos_generated\model(dmp)-dataset(walking)-npsi(60)_final(0).mov,resources/videos_natural\training(7).mov,True,False,right,0,172,172,172,2018-09-21 15:28:03.159620,2018-09-21 15:28:07.079844,0:00:03.920224,4,right,1,0.28406901580297017,29,m,1,11,2018_Sep_21_1509,MP_PerceptionTuring2,59.94044481349798,
174,resources/videos_generated\model(vcgpdm)-dataset(walking)-mode(ELBO)-parts(1)-dyn(23)-lvm(24)_final(9).mov,resources/videos_natural\training(30).mov,False,False,right,0,173,173,173,2018-09-21 15:28:08.480925,2018-09-21 15:28:12.418150,0:00:03.937225,4,right,1,0.26704847484029415,29,m,1,11,2018_Sep_21_1509,MP_PerceptionTuring2,59.94044481349798,
175,resources/videos_generated\model(vcgpdm)-dataset(walking)-mode(ELBO)-parts(2)-dyn(25)-lvm(20)_final(7).mov,resources/videos_natural\training(12).mov,False,True,left,0,174,174,174,2018-09-21 15:28:13.802229,2018-09-21 15:28:17.689451,0:00:03.887222,4,right,0,0.2672252639110866,29,m,1,11,2018_Sep_21_1509,MP_PerceptionTuring2,59.94044481349798,
176,resources/videos_generated\model(tmp)-dataset(walking)-numprim(13)_final(2).mov,resources/videos_natural\training(7).mov,False,False,right,0,175,175,175,2018-09-21 15:28:19.073530,2018-09-21 15:28:23.060758,0:00:03.987228,4,right,1,0.30038902630781195,29,m,1,11,2018_Sep_21_1509,MP_PerceptionTuring2,59.94044481349798,
177,resources/videos_generated\model(vcgpdm)-dataset(walking)-mode(ELBO)-parts(1)-dyn(24)-lvm(25)_final(2).mov,resources/videos_natural\training(22).mov,False,False,right,0,176,176,176,2018-09-21 15:28:24.477840,2018-09-21 15:28:28.415065,0:00:03.937225,4,right,1,0.26727013882009487,29,m,1,11,2018_Sep_21_1509,MP_PerceptionTuring2,59.94044481349798,
178,resources/videos_generated\model(tmp)-dataset(walking)-numprim(12)_final(2).mov,resources/videos_natural\training(3).mov,False,False,right,0,177,177,177,2018-09-21 15:28:29.799144,2018-09-21 15:28:33.903379,0:00:04.104235,4,right,1,0.30072001640792223,29,m,1,11,2018_Sep_21_1509,MP_PerceptionTuring2,59.94044481349798,
179,resources/videos_generated\model(dmp)-dataset(walking)-npsi(50)_final(4).mov,resources/videos_natural\training(28).mov,True,True,left,0,178,178,178,2018-09-21 15:28:35.321460,2018-09-21 15:28:39.240684,0:00:03.919224,4,right,0,0.23391452865826068,29,m,1,11,2018_Sep_21_1509,MP_PerceptionTuring2,59.94044481349798,
180,resources/videos_generated\model(vcgpdm)-dataset(walking)-mode(ELBO)-parts(2)-dyn(28)-lvm(19)_final(5).mov,resources/videos_natural\training(1).mov,False,True,left,0,179,179,179,2018-09-21 15:28:40.591761,2018-09-21 15:28:44.545987,0:00:03.954226,4,right,0,0.03361010209482629,29,m,1,11,2018_Sep_21_1509,MP_PerceptionTuring2,59.94044481349798,
181,resources/videos_generated\model(vcgpdm)-dataset(walking)-mode(ELBO)-parts(1)-dyn(23)-lvm(22)_final(9)_fail.mov,resources/videos_natural\training(35).mov,False,False,right,0,180,180,180,2018-09-21 15:29:24.847292,2018-09-21 15:29:28.833520,0:00:03.986228,5,right,1,0.3173059634536912,29,m,1,11,2018_Sep_21_1509,MP_PerceptionTuring2,59.94044481349798,
182,resources/videos_generated\model(vcgpdm)-dataset(walking)-mode(ELBO)-parts(2)-dyn(23)-lvm(22)_final(9).mov,resources/videos_natural\training(16).mov,False,True,left,0,181,181,181,2018-09-21 15:29:30.268603,2018-09-21 15:29:34.204828,0:00:03.936225,5,left,1,0.26712256361611253,29,m,1,11,2018_Sep_21_1509,MP_PerceptionTuring2,59.94044481349798,
183,resources/videos_generated\model(tmp)-dataset(walking)-numprim(11)_final(6).mov,resources/videos_natural\training(1).mov,True,False,right,0,182,182,182,2018-09-21 15:29:35.589907,2018-09-21 15:29:39.493130,0:00:03.903223,5,right,1,0.31719392676836833,29,m,1,11,2018_Sep_21_1509,MP_PerceptionTuring2,59.94044481349798,
184,resources/videos_generated\model(vcgpdm)-dataset(walking)-mode(ELBO)-parts(2)-dyn(22)-lvm(19)_final(3).mov,resources/videos_natural\training(36).mov,False,False,right,0,183,183,183,2018-09-21 15:29:40.927212,2018-09-21 15:29:44.847436,0:00:03.920224,5,right,1,0.23381303305882284,29,m,1,11,2018_Sep_21_1509,MP_PerceptionTuring2,59.94044481349798,
185,resources/videos_generated\model(vcgpdm)-dataset(walking)-mode(ELBO)-parts(1)-dyn(25)-lvm(24)_final(3).mov,resources/videos_natural\training(34).mov,False,False,right,0,184,184,184,2018-09-21 15:29:46.198514,2018-09-21 15:29:50.102737,0:00:03.904223,5,right,1,0.3339527476243802,29,m,1,11,2018_Sep_21_1509,MP_PerceptionTuring2,59.94044481349798,
186,resources/videos_generated\model(vcgpdm)-dataset(walking)-mode(ELBO)-parts(2)-dyn(22)-lvm(21)_final(1).mov,resources/videos_natural\training(5).mov,False,False,right,0,185,185,185,2018-09-21 15:29:51.553820,2018-09-21 15:29:55.474044,0:00:03.920224,5,right,1,0.20046284402724268,29,m,1,11,2018_Sep_21_1509,MP_PerceptionTuring2,59.94044481349798,
187,resources/videos_generated\model(vcgpdm)-dataset(walking)-mode(ELBO)-parts(2)-dyn(22)-lvm(23)_final(7).mov,resources/videos_natural\training(11).mov,True,True,left,0,186,186,186,2018-09-21 15:29:56.791120,2018-09-21 15:30:00.711344,0:00:03.920224,5,left,1,0.2670921450537662,29,m,1,11,2018_Sep_21_1509,MP_PerceptionTuring2,59.94044481349798,
188,resources/videos_generated\model(vcgpdm)-dataset(walking)-mode(ELBO)-parts(1)-dyn(24)-lvm(27)_final(0).mov,resources/videos_natural\training(8).mov,True,False,right,0,187,187,187,2018-09-21 15:30:02.096423,2018-09-21 15:30:06.032648,0:00:03.936225,5,right,1,0.2505173414415367,29,m,1,11,2018_Sep_21_1509,MP_PerceptionTuring2,59.94044481349798,
189,resources/videos_generated\model(vcgpdm)-dataset(walking)-mode(ELBO)-parts(2)-dyn(24)-lvm(17)_final(3).mov,resources/videos_natural\training(20).mov,False,True,left,0,188,188,188,2018-09-21 15:30:07.400726,2018-09-21 15:30:11.337952,0:00:03.937226,5,left,1,0.2671511751352682,29,m,1,11,2018_Sep_21_1509,MP_PerceptionTuring2,59.94044481349798,
190,resources/videos_generated\model(vcgpdm)-dataset(walking)-mode(ELBO)-parts(2)-dyn(25)-lvm(18)_final(7).mov,resources/videos_natural\training(20).mov,False,False,right,0,189,189,189,2018-09-21 15:30:12.722031,2018-09-21 15:30:16.608253,0:00:03.886222,5,right,1,0.23382086357992193,29,m,1,11,2018_Sep_21_1509,MP_PerceptionTuring2,59.94044481349798,
191,resources/videos_generated\model(vcgpdm)-dataset(walking)-mode(ELBO)-parts(2)-dyn(23)-lvm(18)_final(9).mov,resources/videos_natural\training(30).mov,True,True,left,0,190,190,190,2018-09-21 15:30:17.959330,2018-09-21 15:30:21.879555,0:00:03.920225,5,left,1,0.2657772198699604,29,m,1,11,2018_Sep_21_1509,MP_PerceptionTuring2,59.94044481349798,
192,resources/videos_generated\model(vcgpdm)-dataset(walking)-mode(ELBO)-parts(1)-dyn(22)-lvm(22)_final(4).mov,resources/videos_natural\training(4).mov,True,False,right,0,191,191,191,2018-09-21 15:30:23.264634,2018-09-21 15:30:27.200859,0:00:03.936225,5,right,1,0.2838681328214534,29,m,1,11,2018_Sep_21_1509,MP_PerceptionTuring2,59.94044481349798,
193,resources/videos_generated\model(vcgpdm)-dataset(walking)-mode(ELBO)-parts(1)-dyn(26)-lvm(23)_final(9).mov,resources/videos_natural\training(45).mov,False,False,right,0,192,192,192,2018-09-21 15:30:28.601939,2018-09-21 15:30:32.522163,0:00:03.920224,5,right,1,0.20044326772472232,29,m,1,11,2018_Sep_21_1509,MP_PerceptionTuring2,59.94044481349798,
194,resources/videos_generated\model(vcgpdm)-dataset(walking)-mode(ELBO)-parts(1)-dyn(23)-lvm(24)_final(3).mov,resources/videos_natural\training(12).mov,True,False,right,0,193,193,193,2018-09-21 15:30:33.840239,2018-09-21 15:30:37.743462,0:00:03.903223,5,right,1,0.2840900979747403,29,m,1,11,2018_Sep_21_1509,MP_PerceptionTuring2,59.94044481349798,
195,resources/videos_generated\model(vcgpdm)-dataset(walking)-mode(ELBO)-parts(1)-dyn(23)-lvm(22)_final(3)_fail.mov,resources/videos_natural\training(8).mov,False,True,left,0,194,194,194,2018-09-21 15:30:39.145542,2018-09-21 15:30:43.031764,0:00:03.886222,5,left,1,0.4840120337037206,29,m,1,11,2018_Sep_21_1509,MP_PerceptionTuring2,59.94044481349798,
196,resources/videos_generated\model(vcgpdm)-dataset(walking)-mode(ELBO)-parts(1)-dyn(26)-lvm(27)_final(1).mov,resources/videos_natural\training(0).mov,True,False,right,0,195,195,195,2018-09-21 15:30:44.632856,2018-09-21 15:30:48.536079,0:00:03.903223,5,left,0,0.267008719887599,29,m,1,11,2018_Sep_21_1509,MP_PerceptionTuring2,59.94044481349798,
197,resources/videos_generated\model(vcgpdm)-dataset(walking)-mode(ELBO)-parts(2)-dyn(26)-lvm(17)_final(9).mov,resources/videos_natural\training(44).mov,True,True,left,0,196,196,196,2018-09-21 15:30:49.923159,2018-09-21 15:30:53.857384,0:00:03.934225,5,right,0,0.28371995526958926,29,m,1,11,2018_Sep_21_1509,MP_PerceptionTuring2,59.94044481349798,
198,resources/videos_generated\model(tmp)-dataset(walking)-numprim(14)_final(6).mov,resources/videos_natural\training(33).mov,True,False,right,0,197,197,197,2018-09-21 15:30:55.258464,2018-09-21 15:30:59.161687,0:00:03.903223,5,right,1,0.18375010277554793,29,m,1,11,2018_Sep_21_1509,MP_PerceptionTuring2,59.94044481349798,
199,resources/videos_generated\model(vcgpdm)-dataset(walking)-mode(ELBO)-parts(1)-dyn(27)-lvm(24)_final(3).mov,resources/videos_natural\training(20).mov,False,True,left,0,198,198,198,2018-09-21 15:31:00.462761,2018-09-21 15:31:04.382986,0:00:03.920225,5,left,1,0.25050740270353344,29,m,1,11,2018_Sep_21_1509,MP_PerceptionTuring2,59.94044481349798,
200,resources/videos_generated\model(vcgpdm)-dataset(walking)-mode(ELBO)-parts(1)-dyn(25)-lvm(28)_final(2).mov,resources/videos_natural\training(48).mov,True,True,left,0,199,199,199,2018-09-21 15:31:05.751064,2018-09-21 15:31:09.704290,0:00:03.953226,5,right,0,0.2671668361774664,29,m,1,11,2018_Sep_21_1509,MP_PerceptionTuring2,59.94044481349798,
201,resources/videos_generated\model(tmp)-dataset(walking)-numprim(13)_final(6).mov,resources/videos_natural\training(30).mov,True,True,left,0,200,200,200,2018-09-21 15:31:11.089369,2018-09-21 15:31:15.109599,0:00:04.020230,5,right,0,0.21708523311326644,29,m,1,11,2018_Sep_21_1509,MP_PerceptionTuring2,59.94044481349798,
202,resources/videos_generated\model(vcgpdm)-dataset(walking)-mode(ELBO)-parts(1)-dyn(22)-lvm(25)_final(0).mov,resources/videos_natural\training(47).mov,False,False,right,0,201,201,201,2018-09-21 15:31:16.443675,2018-09-21 15:31:20.530909,0:00:04.087234,5,right,1,0.25038000614995326,29,m,1,11,2018_Sep_21_1509,MP_PerceptionTuring2,59.94044481349798,
203,resources/videos_generated\model(vcgpdm)-dataset(walking)-mode(ELBO)-parts(1)-dyn(24)-lvm(23)_final(4)_fail.mov,resources/videos_natural\training(14).mov,False,False,right,0,202,202,202,2018-09-21 15:31:21.897987,2018-09-21 15:31:25.818212,0:00:03.920225,5,right,1,0.3673463056957189,29,m,1,11,2018_Sep_21_1509,MP_PerceptionTuring2,59.94044481349798,
204,resources/videos_generated\model(vcgpdm)-dataset(walking)-mode(ELBO)-parts(1)-dyn(24)-lvm(27)_final(4).mov,resources/videos_natural\training(24).mov,False,True,left,0,203,203,203,2018-09-21 15:31:27.303297,2018-09-21 15:31:31.206520,0:00:03.903223,5,left,1,0.6841324430233726,29,m,1,11,2018_Sep_21_1509,MP_PerceptionTuring2,59.94044481349798,
205,resources/videos_generated\model(vcgpdm)-dataset(walking)-mode(ELBO)-parts(2)-dyn(25)-lvm(22)_final(7).mov,resources/videos_natural\training(48).mov,True,True,left,0,204,204,204,2018-09-21 15:31:33.007623,2018-09-21 15:31:36.994851,0:00:03.987228,5,left,1,0.06692957139034661,29,m,1,11,2018_Sep_21_1509,MP_PerceptionTuring2,59.94044481349798,
206,resources/videos_generated\model(vcgpdm)-dataset(walking)-mode(ELBO)-parts(2)-dyn(22)-lvm(21)_final(5).mov,resources/videos_natural\training(14).mov,False,True,left,0,205,205,205,2018-09-21 15:31:38.178919,2018-09-21 15:31:42.149146,0:00:03.970227,5,right,0,0.3565094669493192,29,m,1,11,2018_Sep_21_1509,MP_PerceptionTuring2,59.94044481349798,
207,resources/videos_generated\model(dmp)-dataset(walking)-npsi(60)_final(2).mov,resources/videos_natural\training(38).mov,False,False,right,0,206,206,206,2018-09-21 15:31:43.617230,2018-09-21 15:31:47.553455,0:00:03.936225,5,right,1,0.35054863340837983,29,m,1,11,2018_Sep_21_1509,MP_PerceptionTuring2,59.94044481349798,
208,resources/videos_generated\model(dmp)-dataset(walking)-npsi(80)_final(0).mov,resources/videos_natural\training(7).mov,False,False,right,0,207,207,207,2018-09-21 15:31:49.021539,2018-09-21 15:31:52.924762,0:00:03.903223,5,right,1,0.2337293067189421,29,m,1,11,2018_Sep_21_1509,MP_PerceptionTuring2,59.94044481349798,
209,resources/videos_generated\model(dmp)-dataset(walking)-npsi(90)_final(4).mov,resources/videos_natural\training(37).mov,True,True,left,0,208,208,208,2018-09-21 15:31:54.275839,2018-09-21 15:31:58.196063,0:00:03.920224,5,right,0,0.2504513843607583,29,m,1,11,2018_Sep_21_1509,MP_PerceptionTuring2,59.94044481349798,
210,resources/videos_generated\model(dmp)-dataset(walking)-npsi(50)_final(6).mov,resources/videos_natural\training(34).mov,True,False,right,0,209,209,209,2018-09-21 15:31:59.564142,2018-09-21 15:32:03.517368,0:00:03.953226,5,left,0,0.3839168928732306,29,m,1,11,2018_Sep_21_1509,MP_PerceptionTuring2,59.94044481349798,
211,resources/videos_generated\model(dmp)-dataset(walking)-npsi(60)_final(8).mov,resources/videos_natural\training(23).mov,False,True,left,0,210,210,210,2018-09-21 15:32:05.019454,2018-09-21 15:32:08.972680,0:00:03.953226,5,right,0,0.4004748307477257,29,m,1,11,2018_Sep_21_1509,MP_PerceptionTuring2,59.94044481349798,
212,resources/videos_generated\model(vcgpdm)-dataset(walking)-mode(ELBO)-parts(1)-dyn(23)-lvm(22)_final(7).mov,resources/videos_natural\training(27).mov,True,False,right,0,211,211,211,2018-09-21 15:32:10.490767,2018-09-21 15:32:14.393990,0:00:03.903223,5,right,1,0.2838967443403817,29,m,1,11,2018_Sep_21_1509,MP_PerceptionTuring2,59.94044481349798,
213,resources/videos_generated\model(vcgpdm)-dataset(walking)-mode(ELBO)-parts(2)-dyn(27)-lvm(22)_final(9).mov,resources/videos_natural\training(28).mov,False,False,right,0,212,212,212,2018-09-21 15:32:15.795070,2018-09-21 15:32:19.715294,0:00:03.920224,5,right,1,0.2338039978424149,29,m,1,11,2018_Sep_21_1509,MP_PerceptionTuring2,59.94044481349798,
214,resources/videos_generated\model(vcgpdm)-dataset(walking)-mode(ELBO)-parts(1)-dyn(25)-lvm(26)_final(2).mov,resources/videos_natural\training(40).mov,False,False,right,0,213,213,213,2018-09-21 15:32:21.066372,2018-09-21 15:32:24.969595,0:00:03.903223,5,right,1,0.18376154738325567,29,m,1,11,2018_Sep_21_1509,MP_PerceptionTuring2,59.94044481349798,
215,resources/videos_generated\model(vcgpdm)-dataset(walking)-mode(ELBO)-parts(2)-dyn(24)-lvm(19)_final(9).mov,resources/videos_natural\training(3).mov,False,True,left,0,214,214,214,2018-09-21 15:32:26.270669,2018-09-21 15:32:30.357903,0:00:04.087234,5,right,0,0.2503519969786794,29,m,1,11,2018_Sep_21_1509,MP_PerceptionTuring2,59.94044481349798,
216,resources/videos_generated\model(vcgpdm)-dataset(walking)-mode(ELBO)-parts(1)-dyn(26)-lvm(22)_final(7).mov,resources/videos_natural\training(18).mov,True,False,right,0,215,215,215,2018-09-21 15:32:31.724981,2018-09-21 15:32:35.629205,0:00:03.904224,5,right,1,0.33395485584151174,29,m,1,11,2018_Sep_21_1509,MP_PerceptionTuring2,59.94044481349798,
217,resources/videos_generated\model(dmp)-dataset(walking)-npsi(100)_final(2).mov,resources/videos_natural\training(19).mov,False,True,left,0,216,216,216,2018-09-21 15:32:37.080288,2018-09-21 15:32:41.000512,0:00:03.920224,5,right,0,0.28387295160359827,29,m,1,11,2018_Sep_21_1509,MP_PerceptionTuring2,59.94044481349798,
218,resources/videos_generated\model(dmp)-dataset(walking)-npsi(70)_final(2).mov,resources/videos_natural\training(7).mov,True,True,left,0,217,217,217,2018-09-21 15:32:42.401592,2018-09-21 15:32:46.304815,0:00:03.903223,5,right,0,0.18380371172725063,29,m,1,11,2018_Sep_21_1509,MP_PerceptionTuring2,59.94044481349798,
219,resources/videos_generated\model(vcgpdm)-dataset(walking)-mode(ELBO)-parts(1)-dyn(25)-lvm(26)_final(4)_fail.mov,resources/videos_natural\training(16).mov,False,False,right,0,218,218,218,2018-09-21 15:32:47.605890,2018-09-21 15:32:51.509113,0:00:03.903223,5,right,1,0.23378683093096697,29,m,1,11,2018_Sep_21_1509,MP_PerceptionTuring2,59.94044481349798,
220,resources/videos_generated\model(vcgpdm)-dataset(walking)-mode(ELBO)-parts(2)-dyn(23)-lvm(22)_final(5).mov,resources/videos_natural\training(34).mov,True,True,left,0,219,219,219,2018-09-21 15:32:52.860190,2018-09-21 15:32:56.763413,0:00:03.903223,5,left,1,0.10026530407571954,29,m,1,11,2018_Sep_21_1509,MP_PerceptionTuring2,59.94044481349798,
221,resources/videos_generated\model(vcgpdm)-dataset(walking)-mode(ELBO)-parts(2)-dyn(26)-lvm(23)_final(1).mov,resources/videos_natural\training(26).mov,True,False,right,0,220,220,220,2018-09-21 15:32:57.981483,2018-09-21 15:33:01.884706,0:00:03.903223,5,right,1,0.2504263869282113,29,m,1,11,2018_Sep_21_1509,MP_PerceptionTuring2,59.94044481349798,
222,resources/videos_generated\model(vcgpdm)-dataset(walking)-mode(ELBO)-parts(2)-dyn(26)-lvm(19)_final(9).mov,resources/videos_natural\training(14).mov,True,True,left,0,221,221,221,2018-09-21 15:33:03.252785,2018-09-21 15:33:07.289015,0:00:04.036230,5,left,1,0.23407475316548698,29,m,1,11,2018_Sep_21_1509,MP_PerceptionTuring2,59.94044481349798,
223,resources/videos_generated\model(vcgpdm)-dataset(walking)-mode(ELBO)-parts(1)-dyn(25)-lvm(24)_final(1).mov,resources/videos_natural\training(13).mov,False,True,left,0,222,222,222,2018-09-21 15:33:08.640093,2018-09-21 15:33:12.544316,0:00:03.904223,5,left,1,0.2670460654492217,29,m,1,11,2018_Sep_21_1509,MP_PerceptionTuring2,59.94044481349798,
224,resources/videos_generated\model(vcgpdm)-dataset(walking)-mode(ELBO)-parts(1)-dyn(25)-lvm(28)_final(8).mov,resources/videos_natural\training(22).mov,False,True,left,0,223,223,223,2018-09-21 15:33:13.928395,2018-09-21 15:33:17.848619,0:00:03.920224,5,left,1,0.23379104736523004,29,m,1,11,2018_Sep_21_1509,MP_PerceptionTuring2,59.94044481349798,
225,resources/videos_generated\model(vcgpdm)-dataset(walking)-mode(ELBO)-parts(1)-dyn(24)-lvm(25)_final(6).mov,resources/videos_natural\training(6).mov,True,False,right,0,224,224,224,2018-09-21 15:33:19.199697,2018-09-21 15:33:23.119921,0:00:03.920224,5,right,1,0.21710721880663186,29,m,1,11,2018_Sep_21_1509,MP_PerceptionTuring2,59.94044481349798,
226,resources/videos_generated\model(vcgpdm)-dataset(walking)-mode(ELBO)-parts(1)-dyn(24)-lvm(23)_final(0).mov,resources/videos_natural\training(29).mov,False,False,right,0,225,225,225,2018-09-21 15:34:24.722444,2018-09-21 15:34:28.692671,0:00:03.970227,6,left,0,0.2670288985377738,29,m,1,11,2018_Sep_21_1509,MP_PerceptionTuring2,59.94044481349798,
227,resources/videos_generated\model(vcgpdm)-dataset(walking)-mode(ELBO)-parts(1)-dyn(22)-lvm(23)_final(0).mov,resources/videos_natural\training(42).mov,False,False,right,0,226,226,226,2018-09-21 15:34:30.077751,2018-09-21 15:34:34.030977,0:00:03.953226,6,right,1,0.6008021465263482,29,m,1,11,2018_Sep_21_1509,MP_PerceptionTuring2,59.94044481349798,
228,resources/videos_generated\model(vcgpdm)-dataset(walking)-mode(ELBO)-parts(2)-dyn(25)-lvm(22)_final(1).mov,resources/videos_natural\training(21).mov,True,True,left,0,227,227,227,2018-09-21 15:34:35.749075,2018-09-21 15:34:39.786306,0:00:04.037231,6,right,0,0.467375790619144,29,m,1,11,2018_Sep_21_1509,MP_PerceptionTuring2,59.94044481349798,
229,resources/videos_generated\model(vcgpdm)-dataset(walking)-mode(ELBO)-parts(2)-dyn(24)-lvm(23)_final(1).mov,resources/videos_natural\training(48).mov,False,False,right,0,228,228,228,2018-09-21 15:34:41.370397,2018-09-21 15:34:45.307622,0:00:03.937225,6,left,0,0.2503905472360657,29,m,1,11,2018_Sep_21_1509,MP_PerceptionTuring2,59.94044481349798,
230,resources/videos_generated\model(vcgpdm)-dataset(walking)-mode(ELBO)-parts(1)-dyn(25)-lvm(26)_final(6)_fail.mov,resources/videos_natural\training(21).mov,True,False,right,0,229,229,229,2018-09-21 15:34:46.675700,2018-09-21 15:34:50.594924,0:00:03.919224,6,right,1,0.28380699452236513,29,m,1,11,2018_Sep_21_1509,MP_PerceptionTuring2,59.94044481349798,
231,resources/videos_generated\model(vcgpdm)-dataset(walking)-mode(ELBO)-parts(2)-dyn(22)-lvm(23)_final(5).mov,resources/videos_natural\training(13).mov,False,False,right,0,230,230,230,2018-09-21 15:34:51.997004,2018-09-21 15:34:55.900228,0:00:03.903224,6,right,1,0.25044084327510063,29,m,1,11,2018_Sep_21_1509,MP_PerceptionTuring2,59.94044481349798,
232,resources/videos_generated\model(vcgpdm)-dataset(walking)-mode(ELBO)-parts(1)-dyn(24)-lvm(23)_final(8).mov,resources/videos_natural\training(8).mov,True,True,left,0,231,231,231,2018-09-21 15:34:57.267306,2018-09-21 15:35:01.221532,0:00:03.954226,6,left,1,0.433731053527481,29,m,1,11,2018_Sep_21_1509,MP_PerceptionTuring2,59.94044481349798,
233,resources/videos_generated\model(tmp)-dataset(walking)-numprim(12)_final(4).mov,resources/videos_natural\training(29).mov,False,False,right,0,232,232,232,2018-09-21 15:35:02.772621,2018-09-21 15:35:06.692845,0:00:03.920224,6,left,0,0.26714093522332405,29,m,1,11,2018_Sep_21_1509,MP_PerceptionTuring2,59.94044481349798,
234,resources/videos_generated\model(vcgpdm)-dataset(walking)-mode(ELBO)-parts(1)-dyn(26)-lvm(23)_final(5).mov,resources/videos_natural\training(10).mov,True,False,right,0,233,233,233,2018-09-21 15:35:08.076924,2018-09-21 15:35:11.997148,0:00:03.920224,6,left,0,0.2505242684410405,29,m,1,11,2018_Sep_21_1509,MP_PerceptionTuring2,59.94044481349798,
235,resources/videos_generated\model(tmp)-dataset(walking)-numprim(14)_final(0).mov,resources/videos_natural\training(42).mov,True,False,right,0,234,234,234,2018-09-21 15:35:13.365227,2018-09-21 15:35:17.285451,0:00:03.920224,6,right,1,0.3005850905069565,29,m,1,11,2018_Sep_21_1509,MP_PerceptionTuring2,59.94044481349798,
236,resources/videos_generated\model(vcgpdm)-dataset(walking)-mode(ELBO)-parts(1)-dyn(23)-lvm(24)_final(7).mov,resources/videos_natural\training(17).mov,True,True,left,0,235,235,235,2018-09-21 15:35:18.702532,2018-09-21 15:35:22.622756,0:00:03.920224,6,left,1,0.21710571293715475,29,m,1,11,2018_Sep_21_1509,MP_PerceptionTuring2,59.94044481349798,
237,resources/videos_generated\model(vcgpdm)-dataset(walking)-mode(ELBO)-parts(1)-dyn(25)-lvm(24)_final(7).mov,resources/videos_natural\training(27).mov,True,True,left,0,236,236,236,2018-09-21 15:35:23.957832,2018-09-21 15:35:27.861056,0:00:03.903224,6,left,1,0.25037970497623974,29,m,1,11,2018_Sep_21_1509,MP_PerceptionTuring2,59.94044481349798,
238,resources/videos_generated\model(tmp)-dataset(walking)-numprim(11)_final(0).mov,resources/videos_natural\training(3).mov,False,False,right,0,237,237,237,2018-09-21 15:35:29.229134,2018-09-21 15:35:33.148358,0:00:03.919224,6,right,1,0.2672099040428293,29,m,1,11,2018_Sep_21_1509,MP_PerceptionTuring2,59.94044481349798,
239,resources/videos_generated\model(vcgpdm)-dataset(walking)-mode(ELBO)-parts(1)-dyn(26)-lvm(22)_final(0).mov,resources/videos_natural\training(17).mov,True,True,left,0,238,238,238,2018-09-21 15:35:34.533437,2018-09-21 15:35:38.586669,0:00:04.053232,6,left,1,0.23366636137643582,29,m,1,11,2018_Sep_21_1509,MP_PerceptionTuring2,59.94044481349798,
240,resources/videos_generated\model(vcgpdm)-dataset(walking)-mode(ELBO)-parts(2)-dyn(27)-lvm(20)_final(5).mov,resources/videos_natural\training(21).mov,False,True,left,0,239,239,239,2018-09-21 15:35:39.937746,2018-09-21 15:35:43.874972,0:00:03.937226,6,right,0,0.033589019923056185,29,m,1,11,2018_Sep_21_1509,MP_PerceptionTuring2,59.94044481349798,
241,resources/videos_generated\model(vcgpdm)-dataset(walking)-mode(ELBO)-parts(1)-dyn(25)-lvm(22)_final(4).mov,resources/videos_natural\training(35).mov,True,True,left,0,240,240,240,2018-09-21 15:35:45.026037,2018-09-21 15:35:48.962263,0:00:03.936226,6,left,1,0.18372600886459622,29,m,1,11,2018_Sep_21_1509,MP_PerceptionTuring2,59.94044481349798,
242,resources/videos_generated\model(vcgpdm)-dataset(walking)-mode(ELBO)-parts(1)-dyn(22)-lvm(25)_final(8).mov,resources/videos_natural\training(42).mov,False,True,left,0,241,241,241,2018-09-21 15:35:50.263337,2018-09-21 15:35:54.233564,0:00:03.970227,6,left,1,0.25067365068844083,29,m,1,11,2018_Sep_21_1509,MP_PerceptionTuring2,59.94044481349798,
243,resources/videos_generated\model(dmp)-dataset(walking)-npsi(80)_final(6).mov,resources/videos_natural\training(13).mov,True,False,right,0,242,242,242,2018-09-21 15:35:55.601642,2018-09-21 15:35:59.538868,0:00:03.937226,6,left,0,0.23377448280143653,29,m,1,11,2018_Sep_21_1509,MP_PerceptionTuring2,59.94044481349798,
244,resources/videos_generated\model(vcgpdm)-dataset(walking)-mode(ELBO)-parts(2)-dyn(24)-lvm(21)_final(3).mov,resources/videos_natural\training(7).mov,False,False,right,0,243,243,243,2018-09-21 15:36:00.888945,2018-09-21 15:36:04.910175,0:00:04.021230,6,left,0,0.28392475351211033,29,m,1,11,2018_Sep_21_1509,MP_PerceptionTuring2,59.94044481349798,
245,resources/videos_generated\model(vcgpdm)-dataset(walking)-mode(ELBO)-parts(2)-dyn(24)-lvm(17)_final(7).mov,resources/videos_natural\training(34).mov,False,True,left,0,244,244,244,2018-09-21 15:36:06.310255,2018-09-21 15:36:10.230479,0:00:03.920224,6,left,1,0.08374892819756496,29,m,1,11,2018_Sep_21_1509,MP_PerceptionTuring2,59.94044481349798,
246,resources/videos_generated\model(vcgpdm)-dataset(walking)-mode(ELBO)-parts(2)-dyn(26)-lvm(17)_final(7).mov,resources/videos_natural\training(38).mov,False,False,right,0,245,245,245,2018-09-21 15:36:11.431548,2018-09-21 15:36:15.385774,0:00:03.954226,6,left,0,0.15037551865907517,29,m,1,11,2018_Sep_21_1509,MP_PerceptionTuring2,59.94044481349798,
247,resources/videos_generated\model(vcgpdm)-dataset(walking)-mode(ELBO)-parts(2)-dyn(25)-lvm(18)_final(3).mov,resources/videos_natural\training(9).mov,True,False,right,0,246,246,246,2018-09-21 15:36:16.652846,2018-09-21 15:36:20.656075,0:00:04.003229,6,left,0,0.23376213467236084,29,m,1,11,2018_Sep_21_1509,MP_PerceptionTuring2,59.94044481349798,
248,resources/videos_generated\model(vcgpdm)-dataset(walking)-mode(ELBO)-parts(2)-dyn(25)-lvm(22)_final(9).mov,resources/videos_natural\training(48).mov,False,False,right,0,247,247,247,2018-09-21 15:36:22.008153,2018-09-21 15:36:25.977380,0:00:03.969227,6,right,1,0.2838958408187864,29,m,1,11,2018_Sep_21_1509,MP_PerceptionTuring2,59.94044481349798,
249,resources/videos_generated\model(vcgpdm)-dataset(walking)-mode(ELBO)-parts(1)-dyn(25)-lvm(26)_final(0).mov,resources/videos_natural\training(45).mov,True,False,right,0,248,248,248,2018-09-21 15:36:27.379460,2018-09-21 15:36:31.298684,0:00:03.919224,6,right,1,0.28381422269558243,29,m,1,11,2018_Sep_21_1509,MP_PerceptionTuring2,59.94044481349798,
250,resources/videos_generated\model(vcgpdm)-dataset(walking)-mode(ELBO)-parts(1)-dyn(23)-lvm(22)_final(5)_fail.mov,resources/videos_natural\training(18).mov,True,True,left,0,249,249,249,2018-09-21 15:36:32.699764,2018-09-21 15:36:36.603988,0:00:03.904224,6,left,1,0.2170361417697677,29,m,1,11,2018_Sep_21_1509,MP_PerceptionTuring2,59.94044481349798,
251,resources/videos_generated\model(vcgpdm)-dataset(walking)-mode(ELBO)-parts(1)-dyn(24)-lvm(25)_final(4).mov,resources/videos_natural\training(28).mov,True,True,left,0,250,250,250,2018-09-21 15:36:37.938064,2018-09-21 15:36:41.841287,0:00:03.903223,6,left,1,0.25038572845369345,29,m,1,11,2018_Sep_21_1509,MP_PerceptionTuring2,59.94044481349798,
252,resources/videos_generated\model(vcgpdm)-dataset(walking)-mode(ELBO)-parts(1)-dyn(22)-lvm(22)_final(2).mov,resources/videos_natural\training(3).mov,False,True,left,0,251,251,251,2018-09-21 15:36:43.209365,2018-09-21 15:36:47.129590,0:00:03.920225,6,right,0,0.31728397775987105,29,m,1,11,2018_Sep_21_1509,MP_PerceptionTuring2,59.94044481349798,
253,resources/videos_generated\model(vcgpdm)-dataset(walking)-mode(ELBO)-parts(2)-dyn(26)-lvm(17)_final(5).mov,resources/videos_natural\training(44).mov,False,True,left,0,252,252,252,2018-09-21 15:36:48.563672,2018-09-21 15:36:52.483896,0:00:03.920224,6,left,1,0.2337281020231785,29,m,1,11,2018_Sep_21_1509,MP_PerceptionTuring2,59.94044481349798,
254,resources/videos_generated\model(vcgpdm)-dataset(walking)-mode(ELBO)-parts(2)-dyn(24)-lvm(19)_final(5).mov,resources/videos_natural\training(26).mov,False,True,left,0,253,253,253,2018-09-21 15:36:53.834973,2018-09-21 15:36:57.755197,0:00:03.920224,6,left,1,0.25050077687819794,29,m,1,11,2018_Sep_21_1509,MP_PerceptionTuring2,59.94044481349798,
255,resources/videos_generated\model(vcgpdm)-dataset(walking)-mode(ELBO)-parts(2)-dyn(28)-lvm(17)_final(5).mov,resources/videos_natural\training(2).mov,False,True,left,0,254,254,254,2018-09-21 15:36:59.123276,2018-09-21 15:37:03.210509,0:00:04.087233,6,left,1,0.3838783426158443,29,m,1,11,2018_Sep_21_1509,MP_PerceptionTuring2,59.94044481349798,
256,resources/videos_generated\model(vcgpdm)-dataset(walking)-mode(ELBO)-parts(1)-dyn(24)-lvm(25)_final(0).mov,resources/videos_natural\training(27).mov,True,False,right,0,255,255,255,2018-09-21 15:37:04.711595,2018-09-21 15:37:08.681822,0:00:03.970227,6,right,1,0.41724961381942194,29,m,1,11,2018_Sep_21_1509,MP_PerceptionTuring2,59.94044481349798,
257,resources/videos_generated\model(vcgpdm)-dataset(walking)-mode(ELBO)-parts(2)-dyn(26)-lvm(19)_final(5).mov,resources/videos_natural\training(43).mov,False,False,right,0,256,256,256,2018-09-21 15:37:10.215910,2018-09-21 15:37:14.153135,0:00:03.937225,6,right,1,0.4339503081159819,29,m,1,11,2018_Sep_21_1509,MP_PerceptionTuring2,59.94044481349798,
258,resources/videos_generated\model(vcgpdm)-dataset(walking)-mode(ELBO)-parts(2)-dyn(24)-lvm(23)_final(5).mov,resources/videos_natural\training(6).mov,False,False,right,0,257,257,257,2018-09-21 15:37:15.705224,2018-09-21 15:37:19.640449,0:00:03.935225,6,right,1,0.16700061830988489,29,m,1,11,2018_Sep_21_1509,MP_PerceptionTuring2,59.94044481349798,
259,resources/videos_generated\model(vcgpdm)-dataset(walking)-mode(ELBO)-parts(1)-dyn(27)-lvm(26)_final(5).mov,resources/videos_natural\training(11).mov,True,False,right,0,258,258,258,2018-09-21 15:37:20.925523,2018-09-21 15:37:24.845747,0:00:03.920224,6,right,1,0.3004489599111366,29,m,1,11,2018_Sep_21_1509,MP_PerceptionTuring2,59.94044481349798,
260,resources/videos_generated\model(vcgpdm)-dataset(walking)-mode(ELBO)-parts(1)-dyn(27)-lvm(24)_final(7).mov,resources/videos_natural\training(8).mov,True,False,right,0,259,259,259,2018-09-21 15:37:26.262828,2018-09-21 15:37:30.167051,0:00:03.904223,6,right,1,0.33404069039897877,29,m,1,11,2018_Sep_21_1509,MP_PerceptionTuring2,59.94044481349798,
261,resources/videos_generated\model(vcgpdm)-dataset(walking)-mode(ELBO)-parts(2)-dyn(24)-lvm(23)_final(7).mov,resources/videos_natural\training(18).mov,True,False,right,0,260,260,260,2018-09-21 15:37:31.618134,2018-09-21 15:37:35.588361,0:00:03.970227,6,right,1,0.28384644830157413,29,m,1,11,2018_Sep_21_1509,MP_PerceptionTuring2,59.94044481349798,
262,resources/videos_generated\model(vcgpdm)-dataset(walking)-mode(ELBO)-parts(1)-dyn(28)-lvm(25)_final(7).mov,resources/videos_natural\training(3).mov,True,False,right,0,261,261,261,2018-09-21 15:37:36.989441,2018-09-21 15:37:41.025672,0:00:04.036231,6,right,1,0.20048211915582215,29,m,1,11,2018_Sep_21_1509,MP_PerceptionTuring2,59.94044481349798,
263,resources/videos_generated\model(dmp)-dataset(walking)-npsi(60)_final(4).mov,resources/videos_natural\training(30).mov,False,True,left,0,262,262,262,2018-09-21 15:37:42.343748,2018-09-21 15:37:46.280973,0:00:03.937225,6,right,0,0.2837512773535309,29,m,1,11,2018_Sep_21_1509,MP_PerceptionTuring2,59.94044481349798,
264,resources/videos_generated\model(tmp)-dataset(walking)-numprim(11)_final(2).mov,resources/videos_natural\training(39).mov,True,False,right,0,263,263,263,2018-09-21 15:37:47.682053,2018-09-21 15:37:51.668281,0:00:03.986228,6,left,0,0.23368894941813778,29,m,1,11,2018_Sep_21_1509,MP_PerceptionTuring2,59.94044481349798,
265,resources/videos_generated\model(vcgpdm)-dataset(walking)-mode(ELBO)-parts(1)-dyn(27)-lvm(28)_final(5).mov,resources/videos_natural\training(26).mov,False,True,left,0,264,264,264,2018-09-21 15:37:53.019358,2018-09-21 15:37:57.106592,0:00:04.087234,6,left,1,0.26722887799815,29,m,1,11,2018_Sep_21_1509,MP_PerceptionTuring2,59.94044481349798,
266,resources/videos_generated\model(vcgpdm)-dataset(walking)-mode(ELBO)-parts(2)-dyn(28)-lvm(21)_final(1).mov,resources/videos_natural\training(23).mov,False,True,left,0,265,265,265,2018-09-21 15:37:58.490671,2018-09-21 15:38:02.410895,0:00:03.920224,6,right,0,0.26722948034557703,29,m,1,11,2018_Sep_21_1509,MP_PerceptionTuring2,59.94044481349798,
267,resources/videos_generated\model(vcgpdm)-dataset(walking)-mode(ELBO)-parts(1)-dyn(24)-lvm(23)_final(2).mov,resources/videos_natural\training(13).mov,True,True,left,0,266,266,266,2018-09-21 15:38:03.795975,2018-09-21 15:38:07.849206,0:00:04.053231,6,left,1,0.267100879096688,29,m,1,11,2018_Sep_21_1509,MP_PerceptionTuring2,59.94044481349798,
268,resources/videos_generated\model(vcgpdm)-dataset(walking)-mode(ELBO)-parts(1)-dyn(28)-lvm(27)_final(3).mov,resources/videos_natural\training(26).mov,False,False,right,0,267,267,267,2018-09-21 15:38:09.233286,2018-09-21 15:38:13.170511,0:00:03.937225,6,right,1,0.25050860739929703,29,m,1,11,2018_Sep_21_1509,MP_PerceptionTuring2,59.94044481349798,
269,resources/videos_generated\model(vcgpdm)-dataset(walking)-mode(ELBO)-parts(1)-dyn(25)-lvm(28)_final(4).mov,resources/videos_natural\training(41).mov,False,True,left,0,268,268,268,2018-09-21 15:38:14.538589,2018-09-21 15:38:18.457813,0:00:03.919224,6,right,0,0.2337308125884192,29,m,1,11,2018_Sep_21_1509,MP_PerceptionTuring2,59.94044481349798,
270,resources/videos_generated\model(vcgpdm)-dataset(walking)-mode(ELBO)-parts(1)-dyn(22)-lvm(27)_final(4)_fail.mov,resources/videos_natural\training(18).mov,True,True,left,0,269,269,269,2018-09-21 15:38:19.808891,2018-09-21 15:38:23.713114,0:00:03.904223,6,left,1,0.2507429206816596,29,m,1,11,2018_Sep_21_1509,MP_PerceptionTuring2,59.94044481349798,
271,resources/videos_generated\model(vcgpdm)-dataset(walking)-mode(ELBO)-parts(2)-dyn(26)-lvm(21)_final(5).mov,resources/videos_natural\training(25).mov,False,True,left,0,270,270,270,2018-09-21 15:39:36.942302,2018-09-21 15:39:40.846526,0:00:03.904224,7,right,0,0.23369135880921021,29,m,1,11,2018_Sep_21_1509,MP_PerceptionTuring2,59.94044481349798,
272,resources/videos_generated\model(vcgpdm)-dataset(walking)-mode(ELBO)-parts(1)-dyn(28)-lvm(27)_final(7).mov,resources/videos_natural\training(37).mov,False,False,right,0,271,271,271,2018-09-21 15:39:42.197603,2018-09-21 15:39:46.100826,0:00:03.903223,7,right,1,0.06695065356234409,29,m,1,11,2018_Sep_21_1509,MP_PerceptionTuring2,59.94044481349798,
273,resources/videos_generated\model(vcgpdm)-dataset(walking)-mode(ELBO)-parts(1)-dyn(23)-lvm(22)_final(1)_fail.mov,resources/videos_natural\training(4).mov,True,False,right,0,272,272,272,2018-09-21 15:39:47.284894,2018-09-21 15:39:51.188117,0:00:03.903223,7,right,1,0.3672041516219906,29,m,1,11,2018_Sep_21_1509,MP_PerceptionTuring2,59.94044481349798,
274,resources/videos_generated\model(vcgpdm)-dataset(walking)-mode(ELBO)-parts(2)-dyn(24)-lvm(19)_final(1).mov,resources/videos_natural\training(21).mov,True,True,left,0,273,273,273,2018-09-21 15:39:52.673202,2018-09-21 15:39:56.593426,0:00:03.920224,7,right,0,0.21713492680419222,29,m,1,11,2018_Sep_21_1509,MP_PerceptionTuring2,59.94044481349798,
275,resources/videos_generated\model(vcgpdm)-dataset(walking)-mode(ELBO)-parts(1)-dyn(28)-lvm(24)_final(7).mov,resources/videos_natural\training(15).mov,False,False,right,0,274,274,274,2018-09-21 15:39:57.927503,2018-09-21 15:40:01.830726,0:00:03.903223,7,right,1,0.23380640723325996,29,m,1,11,2018_Sep_21_1509,MP_PerceptionTuring2,59.94044481349798,
276,resources/videos_generated\model(dmp)-dataset(walking)-npsi(80)_final(4).mov,resources/videos_natural\training(41).mov,True,True,left,0,275,275,275,2018-09-21 15:40:03.181803,2018-09-21 15:40:07.135029,0:00:03.953226,7,right,0,0.2336594343773868,29,m,1,11,2018_Sep_21_1509,MP_PerceptionTuring2,59.94044481349798,
277,resources/videos_generated\model(vcgpdm)-dataset(walking)-mode(ELBO)-parts(1)-dyn(28)-lvm(25)_final(9).mov,resources/videos_natural\training(1).mov,False,False,right,0,276,276,276,2018-09-21 15:40:08.487107,2018-09-21 15:40:12.423332,0:00:03.936225,7,left,0,0.23373051141425094,29,m,1,11,2018_Sep_21_1509,MP_PerceptionTuring2,59.94044481349798,
278,resources/videos_generated\model(vcgpdm)-dataset(walking)-mode(ELBO)-parts(2)-dyn(28)-lvm(17)_final(3).mov,resources/videos_natural\training(29).mov,False,True,left,0,277,277,277,2018-09-21 15:40:13.774409,2018-09-21 15:40:17.694633,0:00:03.920224,7,left,1,0.26717647374152875,29,m,1,11,2018_Sep_21_1509,MP_PerceptionTuring2,59.94044481349798,
279,resources/videos_generated\model(vcgpdm)-dataset(walking)-mode(ELBO)-parts(1)-dyn(27)-lvm(22)_final(9).mov,resources/videos_natural\training(44).mov,True,False,right,0,278,278,278,2018-09-21 15:40:19.078712,2018-09-21 15:40:23.132944,0:00:04.054232,7,right,1,0.18370040908439478,29,m,1,11,2018_Sep_21_1509,MP_PerceptionTuring2,59.94044481349798,
280,resources/videos_generated\model(vcgpdm)-dataset(walking)-mode(ELBO)-parts(2)-dyn(23)-lvm(20)_final(5).mov,resources/videos_natural\training(42).mov,False,True,left,0,279,279,279,2018-09-21 15:40:24.434019,2018-09-21 15:40:28.537253,0:00:04.103234,7,left,1,0.6841366594576357,29,m,1,11,2018_Sep_21_1509,MP_PerceptionTuring2,59.94044481349798,
281,resources/videos_generated\model(vcgpdm)-dataset(walking)-mode(ELBO)-parts(2)-dyn(22)-lvm(19)_final(9).mov,resources/videos_natural\training(32).mov,False,False,right,0,280,280,280,2018-09-21 15:40:30.338356,2018-09-21 15:40:34.275582,0:00:03.937226,7,right,1,0.250662507254674,29,m,1,11,2018_Sep_21_1509,MP_PerceptionTuring2,59.94044481349798,
282,resources/videos_generated\model(vcgpdm)-dataset(walking)-mode(ELBO)-parts(2)-dyn(24)-lvm(19)_final(3).mov,resources/videos_natural\training(12).mov,False,False,right,0,281,281,281,2018-09-21 15:40:35.643660,2018-09-21 15:40:39.713893,0:00:04.070233,7,right,1,0.20046073580988377,29,m,1,11,2018_Sep_21_1509,MP_PerceptionTuring2,59.94044481349798,
283,resources/videos_generated\model(vcgpdm)-dataset(walking)-mode(ELBO)-parts(2)-dyn(22)-lvm(17)_final(9).mov,resources/videos_natural\training(3).mov,False,False,right,0,282,282,282,2018-09-21 15:40:41.031968,2018-09-21 15:40:44.968193,0:00:03.936225,7,right,1,0.1837784131207627,29,m,1,11,2018_Sep_21_1509,MP_PerceptionTuring2,59.94044481349798,
284,resources/videos_generated\model(vcgpdm)-dataset(walking)-mode(ELBO)-parts(2)-dyn(23)-lvm(20)_final(7).mov,resources/videos_natural\training(25).mov,True,False,right,0,283,283,283,2018-09-21 15:40:46.269268,2018-09-21 15:40:50.272497,0:00:04.003229,7,left,0,0.3339069691937766,29,m,1,11,2018_Sep_21_1509,MP_PerceptionTuring2,59.94044481349798,
285,resources/videos_generated\model(vcgpdm)-dataset(walking)-mode(ELBO)-parts(2)-dyn(24)-lvm(21)_final(1).mov,resources/videos_natural\training(46).mov,True,True,left,0,284,284,284,2018-09-21 15:40:51.723580,2018-09-21 15:40:55.710808,0:00:03.987228,7,left,1,0.4006859536416414,29,m,1,11,2018_Sep_21_1509,MP_PerceptionTuring2,59.94044481349798,
286,resources/videos_generated\model(vcgpdm)-dataset(walking)-mode(ELBO)-parts(2)-dyn(23)-lvm(18)_final(5).mov,resources/videos_natural\training(1).mov,True,False,right,0,285,285,285,2018-09-21 15:40:57.228894,2018-09-21 15:41:01.149119,0:00:03.920225,7,left,0,0.2671541868744498,29,m,1,11,2018_Sep_21_1509,MP_PerceptionTuring2,59.94044481349798,
287,resources/videos_generated\model(vcgpdm)-dataset(walking)-mode(ELBO)-parts(2)-dyn(26)-lvm(21)_final(3).mov,resources/videos_natural\training(42).mov,False,True,left,0,286,286,286,2018-09-21 15:41:02.533198,2018-09-21 15:41:06.603431,0:00:04.070233,7,left,1,0.3005224463390732,29,m,1,11,2018_Sep_21_1509,MP_PerceptionTuring2,59.94044481349798,
288,resources/videos_generated\model(vcgpdm)-dataset(walking)-mode(ELBO)-parts(1)-dyn(28)-lvm(25)_final(1).mov,resources/videos_natural\training(37).mov,False,False,right,0,287,287,287,2018-09-21 15:41:08.021512,2018-09-21 15:41:11.924735,0:00:03.903223,7,left,0,0.28401420215595863,29,m,1,11,2018_Sep_21_1509,MP_PerceptionTuring2,59.94044481349798,
289,resources/videos_generated\model(dmp)-dataset(walking)-npsi(50)_final(8).mov,resources/videos_natural\training(40).mov,True,True,left,0,288,288,288,2018-09-21 15:41:13.325815,2018-09-21 15:41:17.229038,0:00:03.903223,7,left,1,0.26719213478372694,29,m,1,11,2018_Sep_21_1509,MP_PerceptionTuring2,59.94044481349798,
290,resources/videos_generated\model(vcgpdm)-dataset(walking)-mode(ELBO)-parts(1)-dyn(27)-lvm(28)_final(7).mov,resources/videos_natural\training(16).mov,False,False,right,0,289,289,289,2018-09-21 15:41:18.614118,2018-09-21 15:41:22.534342,0:00:03.920224,7,right,1,0.23366334963793634,29,m,1,11,2018_Sep_21_1509,MP_PerceptionTuring2,59.94044481349798,
291,resources/videos_generated\model(vcgpdm)-dataset(walking)-mode(ELBO)-parts(2)-dyn(28)-lvm(21)_final(5).mov,resources/videos_natural\training(48).mov,True,False,right,0,290,290,290,2018-09-21 15:41:23.885419,2018-09-21 15:41:27.788642,0:00:03.903223,7,right,1,0.26713159883274784,29,m,1,11,2018_Sep_21_1509,MP_PerceptionTuring2,59.94044481349798,
