n_trial,mov_file_generated,mov_file_natural,mirrored,switch_stim_pos,correct_answer,trials.thisRepN,trials.thisTrialN,trials.thisN,trials.thisIndex,stimulus_onset,stimulus_off,stimulus_length,block,response.keys,response.corr,response.rt,age,gender,condition,participant,date,expName,frameRate,
1,resources/videos_generated\model(vcgpdm)-dataset(walking)-mode(ELBO)-parts(2)-dyn(27)-lvm(18)_final(6).mov,resources/videos_natural\training(22).mov,False,False,right,0,0,0,0,2018-09-19 15:01:46.960494,2018-09-19 15:01:51.681764,0:00:04.721270,1,left,0,1.6515025388657705,29,m,2,11,2018_Sep_19_1501,MP_PerceptionTuring2,59.94796678686422,
2,resources/videos_generated\model(vcgpdm)-dataset(walking)-mode(ELBO)-parts(2)-dyn(22)-lvm(17)_final(2).mov,resources/videos_natural\training(32).mov,False,True,left,0,1,1,1,2018-09-19 15:01:54.449922,2018-09-19 15:01:58.370147,0:00:03.920225,1,left,1,0.6007459989518793,29,m,2,11,2018_Sep_19_1501,MP_PerceptionTuring2,59.94796678686422,
3,resources/videos_generated\model(vcgpdm)-dataset(walking)-mode(ELBO)-parts(2)-dyn(22)-lvm(19)_final(8).mov,resources/videos_natural\training(4).mov,True,True,left,0,2,2,2,2018-09-19 15:02:00.088245,2018-09-19 15:02:04.008469,0:00:03.920224,1,left,1,0.5173889735510784,29,m,2,11,2018_Sep_19_1501,MP_PerceptionTuring2,59.94796678686422,
4,resources/videos_generated\model(vcgpdm)-dataset(walking)-mode(ELBO)-parts(2)-dyn(22)-lvm(17)_final(0).mov,resources/videos_natural\training(3).mov,True,False,right,0,3,3,3,2018-09-19 15:02:05.643563,2018-09-19 15:02:09.746797,0:00:04.103234,1,right,1,0.43388949457585113,29,m,2,11,2018_Sep_19_1501,MP_PerceptionTuring2,59.94796678686422,
5,resources/videos_generated\model(vcgpdm)-dataset(walking)-mode(ELBO)-parts(2)-dyn(27)-lvm(18)_final(0).mov,resources/videos_natural\training(24).mov,False,True,left,0,4,4,4,2018-09-19 15:02:11.297886,2018-09-19 15:02:15.185108,0:00:03.887222,1,left,1,0.45058216228289893,29,m,2,11,2018_Sep_19_1501,MP_PerceptionTuring2,59.94796678686422,
6,resources/videos_generated\model(vcgpdm)-dataset(walking)-mode(ELBO)-parts(2)-dyn(28)-lvm(17)_final(2).mov,resources/videos_natural\training(36).mov,False,False,right,0,5,5,5,2018-09-19 15:02:16.753198,2018-09-19 15:02:20.823431,0:00:04.070233,1,right,1,0.46733717225106375,29,m,2,11,2018_Sep_19_1501,MP_PerceptionTuring2,59.94796678686422,
7,resources/videos_generated\model(vcgpdm)-dataset(walking)-mode(ELBO)-parts(1)-dyn(27)-lvm(28)_final(4).mov,resources/videos_natural\training(32).mov,False,False,right,0,6,6,6,2018-09-19 15:02:22.407521,2018-09-19 15:02:26.311745,0:00:03.904224,1,left,0,0.4672757335001734,29,m,2,11,2018_Sep_19_1501,MP_PerceptionTuring2,59.94796678686422,
8,resources/videos_generated\model(vcgpdm)-dataset(walking)-mode(ELBO)-parts(2)-dyn(27)-lvm(18)_final(4).mov,resources/videos_natural\training(35).mov,True,True,left,0,7,7,7,2018-09-19 15:02:27.895835,2018-09-19 15:02:31.850061,0:00:03.954226,1,left,1,0.43394039236454773,29,m,2,11,2018_Sep_19_1501,MP_PerceptionTuring2,59.94796678686422,
9,resources/videos_generated\model(dmp)-dataset(walking)-npsi(60)_final(9).mov,resources/videos_natural\training(45).mov,False,False,right,0,8,8,8,2018-09-19 15:02:33.401150,2018-09-19 15:02:37.354376,0:00:03.953226,1,left,0,0.36721188538649585,29,m,2,11,2018_Sep_19_1501,MP_PerceptionTuring2,59.94796678686422,
10,resources/videos_generated\model(vcgpdm)-dataset(walking)-mode(ELBO)-parts(1)-dyn(28)-lvm(27)_final(6).mov,resources/videos_natural\training(3).mov,True,True,left,0,9,9,9,2018-09-19 15:02:38.838461,2018-09-19 15:02:42.725684,0:00:03.887223,1,left,1,0.3172293532666117,29,m,2,11,2018_Sep_19_1501,MP_PerceptionTuring2,59.94796678686422,
11,resources/videos_generated\model(vcgpdm)-dataset(walking)-mode(ELBO)-parts(1)-dyn(25)-lvm(24)_final(0).mov,resources/videos_natural\training(38).mov,False,True,left,0,10,10,10,2018-09-19 15:02:44.159766,2018-09-19 15:02:48.113992,0:00:03.954226,1,left,1,0.35051379661354076,29,m,2,11,2018_Sep_19_1501,MP_PerceptionTuring2,59.94796678686422,
12,resources/videos_generated\model(vcgpdm)-dataset(walking)-mode(ELBO)-parts(1)-dyn(27)-lvm(26)_final(4).mov,resources/videos_natural\training(24).mov,True,True,left,0,11,11,11,2018-09-19 15:02:49.581076,2018-09-19 15:02:53.518301,0:00:03.937225,1,left,1,0.4672477246581366,29,m,2,11,2018_Sep_19_1501,MP_PerceptionTuring2,59.94796678686422,
13,resources/videos_generated\model(vcgpdm)-dataset(walking)-mode(ELBO)-parts(1)-dyn(26)-lvm(23)_final(4)_fail.mov,resources/videos_natural\training(2).mov,False,True,left,0,12,12,12,2018-09-19 15:02:55.102391,2018-09-19 15:02:59.006615,0:00:03.904224,1,left,1,0.5840650768886917,29,m,2,11,2018_Sep_19_1501,MP_PerceptionTuring2,59.94796678686422,
14,resources/videos_generated\model(vcgpdm)-dataset(walking)-mode(ELBO)-parts(1)-dyn(26)-lvm(27)_final(8).mov,resources/videos_natural\training(19).mov,True,True,left,0,13,13,13,2018-09-19 15:03:00.707712,2018-09-19 15:03:04.627936,0:00:03.920224,1,left,1,0.33521283708523697,29,m,2,11,2018_Sep_19_1501,MP_PerceptionTuring2,59.94796678686422,
15,resources/videos_generated\model(vcgpdm)-dataset(walking)-mode(ELBO)-parts(2)-dyn(23)-lvm(22)_final(6).mov,resources/videos_natural\training(48).mov,True,False,right,0,14,14,14,2018-09-19 15:03:06.079019,2018-09-19 15:03:10.032245,0:00:03.953226,1,right,1,0.41714382088821367,29,m,2,11,2018_Sep_19_1501,MP_PerceptionTuring2,59.94796678686422,
16,resources/videos_generated\model(vcgpdm)-dataset(walking)-mode(ELBO)-parts(2)-dyn(24)-lvm(17)_final(2).mov,resources/videos_natural\training(18).mov,False,True,left,0,15,15,15,2018-09-19 15:03:11.567333,2018-09-19 15:03:15.620565,0:00:04.053232,1,left,1,0.43389461447168287,29,m,2,11,2018_Sep_19_1501,MP_PerceptionTuring2,59.94796678686422,
17,resources/videos_generated\model(vcgpdm)-dataset(walking)-mode(ELBO)-parts(1)-dyn(23)-lvm(26)_final(4)_hip-corrected.mov,resources/videos_natural\training(21).mov,False,False,right,0,16,16,16,2018-09-19 15:03:17.171654,2018-09-19 15:03:21.241887,0:00:04.070233,1,right,1,0.33384431902368306,29,m,2,11,2018_Sep_19_1501,MP_PerceptionTuring2,59.94796678686422,
18,resources/videos_generated\model(vcgpdm)-dataset(walking)-mode(ELBO)-parts(2)-dyn(22)-lvm(23)_final(0).mov,resources/videos_natural\training(25).mov,False,True,left,0,17,17,17,2018-09-19 15:03:22.692970,2018-09-19 15:03:26.664197,0:00:03.971227,1,left,1,0.41718869526948765,29,m,2,11,2018_Sep_19_1501,MP_PerceptionTuring2,59.94796678686422,
19,resources/videos_generated\model(vcgpdm)-dataset(walking)-mode(ELBO)-parts(1)-dyn(25)-lvm(24)_final(4).mov,resources/videos_natural\training(4).mov,True,True,left,0,18,18,18,2018-09-19 15:03:28.198284,2018-09-19 15:03:32.284518,0:00:04.086234,1,left,1,0.38395816141564865,29,m,2,11,2018_Sep_19_1501,MP_PerceptionTuring2,59.94796678686422,
20,resources/videos_generated\model(vcgpdm)-dataset(walking)-mode(ELBO)-parts(2)-dyn(25)-lvm(20)_final(0).mov,resources/videos_natural\training(12).mov,False,True,left,0,19,19,19,2018-09-19 15:03:33.786604,2018-09-19 15:03:37.722829,0:00:03.936225,1,right,0,0.3670718411749476,29,m,2,11,2018_Sep_19_1501,MP_PerceptionTuring2,59.94796678686422,
21,resources/videos_generated\model(vcgpdm)-dataset(walking)-mode(ELBO)-parts(1)-dyn(24)-lvm(23)_final(3)_fail.mov,resources/videos_natural\training(14).mov,True,False,right,0,20,20,20,2018-09-19 15:03:39.207914,2018-09-19 15:03:43.111137,0:00:03.903223,1,right,1,0.500731843945232,29,m,2,11,2018_Sep_19_1501,MP_PerceptionTuring2,59.94796678686422,
22,resources/videos_generated\model(vcgpdm)-dataset(walking)-mode(ELBO)-parts(1)-dyn(22)-lvm(22)_final(9).mov,resources/videos_natural\training(47).mov,False,True,left,0,21,21,21,2018-09-19 15:03:44.729230,2018-09-19 15:03:48.665455,0:00:03.936225,1,left,1,0.7673591576867693,29,m,2,11,2018_Sep_19_1501,MP_PerceptionTuring2,59.94796678686422,
23,resources/videos_generated\model(vcgpdm)-dataset(walking)-mode(ELBO)-parts(1)-dyn(23)-lvm(26)_final(6)_hip-corrected.mov,resources/videos_natural\training(8).mov,True,False,right,0,22,22,22,2018-09-19 15:03:50.550563,2018-09-19 15:03:54.470787,0:00:03.920224,1,right,1,0.3672639878568589,29,m,2,11,2018_Sep_19_1501,MP_PerceptionTuring2,59.94796678686422,
24,resources/videos_generated\model(vcgpdm)-dataset(walking)-mode(ELBO)-parts(1)-dyn(23)-lvm(22)_final(2).mov,resources/videos_natural\training(33).mov,False,False,right,0,23,23,23,2018-09-19 15:03:55.955872,2018-09-19 15:03:59.925099,0:00:03.969227,1,right,1,0.35051530246528273,29,m,2,11,2018_Sep_19_1501,MP_PerceptionTuring2,59.94796678686422,
25,resources/videos_generated\model(tmp)-dataset(walking)-numprim(11)_final(7).mov,resources/videos_natural\training(18).mov,True,True,left,0,24,24,24,2018-09-19 15:04:01.393183,2018-09-19 15:04:05.296406,0:00:03.903223,1,left,1,0.35044753913734894,29,m,2,11,2018_Sep_19_1501,MP_PerceptionTuring2,59.94796678686422,
26,resources/videos_generated\model(tmp)-dataset(walking)-numprim(12)_final(9).mov,resources/videos_natural\training(30).mov,False,True,left,0,25,25,25,2018-09-19 15:04:06.764490,2018-09-19 15:04:10.684715,0:00:03.920225,1,left,1,0.3507086538288604,29,m,2,11,2018_Sep_19_1501,MP_PerceptionTuring2,59.94796678686422,
27,resources/videos_generated\model(vcgpdm)-dataset(walking)-mode(ELBO)-parts(1)-dyn(25)-lvm(22)_final(1).mov,resources/videos_natural\training(8).mov,True,False,right,0,26,26,26,2018-09-19 15:04:12.152798,2018-09-19 15:04:16.073023,0:00:03.920225,1,right,1,0.9676046115205281,29,m,2,11,2018_Sep_19_1501,MP_PerceptionTuring2,59.94796678686422,
28,resources/videos_generated\model(vcgpdm)-dataset(walking)-mode(ELBO)-parts(1)-dyn(24)-lvm(27)_final(1).mov,resources/videos_natural\training(36).mov,False,True,left,0,27,27,27,2018-09-19 15:04:18.158142,2018-09-19 15:04:22.094367,0:00:03.936225,1,left,1,0.3172067654904822,29,m,2,11,2018_Sep_19_1501,MP_PerceptionTuring2,59.94796678686422,
29,resources/videos_generated\model(tmp)-dataset(walking)-numprim(15)_final(5).mov,resources/videos_natural\training(10).mov,False,True,left,0,28,28,28,2018-09-19 15:04:23.529449,2018-09-19 15:04:27.532678,0:00:04.003229,1,right,0,0.3004502496701207,29,m,2,11,2018_Sep_19_1501,MP_PerceptionTuring2,59.94796678686422,
30,resources/videos_generated\model(vcgpdm)-dataset(walking)-mode(ELBO)-parts(1)-dyn(28)-lvm(27)_final(8).mov,resources/videos_natural\training(2).mov,False,False,right,0,29,29,29,2018-09-19 15:04:28.950759,2018-09-19 15:04:32.970989,0:00:04.020230,1,left,0,0.36717032387878135,29,m,2,11,2018_Sep_19_1501,MP_PerceptionTuring2,59.94796678686422,
31,resources/videos_generated\model(vcgpdm)-dataset(walking)-mode(ELBO)-parts(1)-dyn(28)-lvm(23)_final(4)_fail.mov,resources/videos_natural\training(31).mov,False,False,right,0,30,30,30,2018-09-19 15:04:34.455074,2018-09-19 15:04:38.359297,0:00:03.904223,1,right,1,0.33396298014122294,29,m,2,11,2018_Sep_19_1501,MP_PerceptionTuring2,59.94796678686422,
32,resources/videos_generated\model(vcgpdm)-dataset(walking)-mode(ELBO)-parts(1)-dyn(25)-lvm(28)_final(5).mov,resources/videos_natural\training(6).mov,True,True,left,0,31,31,31,2018-09-19 15:04:39.810380,2018-09-19 15:04:43.713604,0:00:03.903224,1,left,1,0.30046771755041846,29,m,2,11,2018_Sep_19_1501,MP_PerceptionTuring2,59.94796678686422,
33,resources/videos_generated\model(vcgpdm)-dataset(walking)-mode(ELBO)-parts(2)-dyn(25)-lvm(20)_final(2).mov,resources/videos_natural\training(6).mov,False,True,left,0,32,32,32,2018-09-19 15:04:45.131685,2018-09-19 15:04:49.084911,0:00:03.953226,1,left,1,0.4340274305955063,29,m,2,11,2018_Sep_19_1501,MP_PerceptionTuring2,59.94796678686422,
34,resources/videos_generated\model(tmp)-dataset(walking)-numprim(14)_final(1).mov,resources/videos_natural\training(17).mov,True,False,right,0,33,33,33,2018-09-19 15:04:50.636000,2018-09-19 15:04:54.556224,0:00:03.920224,1,right,1,0.3505896915416997,29,m,2,11,2018_Sep_19_1501,MP_PerceptionTuring2,59.94796678686422,
35,resources/videos_generated\model(vcgpdm)-dataset(walking)-mode(ELBO)-parts(1)-dyn(27)-lvm(26)_final(0).mov,resources/videos_natural\training(15).mov,True,False,right,0,34,34,34,2018-09-19 15:04:56.024308,2018-09-19 15:05:00.010536,0:00:03.986228,1,right,1,0.3004391063673211,29,m,2,11,2018_Sep_19_1501,MP_PerceptionTuring2,59.94796678686422,
36,resources/videos_generated\model(vcgpdm)-dataset(walking)-mode(ELBO)-parts(2)-dyn(27)-lvm(20)_final(6).mov,resources/videos_natural\training(13).mov,True,False,right,0,35,35,35,2018-09-19 15:05:01.428617,2018-09-19 15:05:05.331840,0:00:03.903223,1,right,1,0.3341430800087437,29,m,2,11,2018_Sep_19_1501,MP_PerceptionTuring2,59.94796678686422,
37,resources/videos_generated\model(vcgpdm)-dataset(walking)-mode(ELBO)-parts(2)-dyn(23)-lvm(18)_final(8).mov,resources/videos_natural\training(7).mov,False,False,right,0,36,36,36,2018-09-19 15:05:06.782923,2018-09-19 15:05:10.703147,0:00:03.920224,1,right,1,0.3004475391367123,29,m,2,11,2018_Sep_19_1501,MP_PerceptionTuring2,59.94796678686422,
38,resources/videos_generated\model(tmp)-dataset(walking)-numprim(14)_final(3).mov,resources/videos_natural\training(36).mov,True,True,left,0,37,37,37,2018-09-19 15:05:12.121228,2018-09-19 15:05:16.074455,0:00:03.953227,1,right,0,0.700848999210848,29,m,2,11,2018_Sep_19_1501,MP_PerceptionTuring2,59.94796678686422,
39,resources/videos_generated\model(dmp)-dataset(walking)-npsi(100)_final(7).mov,resources/videos_natural\training(18).mov,False,True,left,0,38,38,38,2018-09-19 15:05:17.892559,2018-09-19 15:05:21.779781,0:00:03.887222,1,left,1,0.333913287033738,29,m,2,11,2018_Sep_19_1501,MP_PerceptionTuring2,59.94796678686422,
40,resources/videos_generated\model(vcgpdm)-dataset(walking)-mode(ELBO)-parts(2)-dyn(26)-lvm(17)_final(2).mov,resources/videos_natural\training(39).mov,True,True,left,0,39,39,39,2018-09-19 15:05:23.230864,2018-09-19 15:05:27.151088,0:00:03.920224,1,right,0,0.2671691191972059,29,m,2,11,2018_Sep_19_1501,MP_PerceptionTuring2,59.94796678686422,
41,resources/videos_generated\model(vcgpdm)-dataset(walking)-mode(ELBO)-parts(2)-dyn(27)-lvm(18)_final(8).mov,resources/videos_natural\training(30).mov,True,True,left,0,40,40,40,2018-09-19 15:05:28.535167,2018-09-19 15:05:32.639402,0:00:04.104235,1,right,0,0.26725194104255934,29,m,2,11,2018_Sep_19_1501,MP_PerceptionTuring2,59.94796678686422,
42,resources/videos_generated\model(tmp)-dataset(walking)-numprim(14)_final(7).mov,resources/videos_natural\training(30).mov,False,True,left,0,41,41,41,2018-09-19 15:05:34.023481,2018-09-19 15:05:37.943705,0:00:03.920224,1,right,0,0.2672326661408988,29,m,2,11,2018_Sep_19_1501,MP_PerceptionTuring2,59.94796678686422,
43,resources/videos_generated\model(vcgpdm)-dataset(walking)-mode(ELBO)-parts(2)-dyn(24)-lvm(17)_final(8).mov,resources/videos_natural\training(5).mov,True,False,right,0,42,42,42,2018-09-19 15:05:39.327785,2018-09-19 15:05:43.232008,0:00:03.904223,1,left,0,0.3004032670955894,29,m,2,11,2018_Sep_19_1501,MP_PerceptionTuring2,59.94796678686422,
44,resources/videos_generated\model(vcgpdm)-dataset(walking)-mode(ELBO)-parts(1)-dyn(27)-lvm(22)_final(2).mov,resources/videos_natural\training(3).mov,True,False,right,0,43,43,43,2018-09-19 15:05:44.649089,2018-09-19 15:05:48.619316,0:00:03.970227,1,right,1,0.2003915214522749,29,m,2,11,2018_Sep_19_1501,MP_PerceptionTuring2,59.94796678686422,
45,resources/videos_generated\model(vcgpdm)-dataset(walking)-mode(ELBO)-parts(2)-dyn(22)-lvm(21)_final(4).mov,resources/videos_natural\training(1).mov,True,True,left,0,44,44,44,2018-09-19 15:05:49.937391,2018-09-19 15:05:53.873617,0:00:03.936226,1,left,1,0.3838319710393989,29,m,2,11,2018_Sep_19_1501,MP_PerceptionTuring2,59.94796678686422,
46,resources/videos_generated\model(vcgpdm)-dataset(walking)-mode(ELBO)-parts(1)-dyn(23)-lvm(24)_final(8).mov,resources/videos_natural\training(3).mov,False,False,right,0,45,45,45,2018-09-19 15:06:27.386533,2018-09-19 15:06:31.339760,0:00:03.953227,2,right,1,0.26715586770205846,29,m,2,11,2018_Sep_19_1501,MP_PerceptionTuring2,59.94796678686422,
47,resources/videos_generated\model(tmp)-dataset(walking)-numprim(13)_final(7).mov,resources/videos_natural\training(0).mov,True,True,left,0,46,46,46,2018-09-19 15:06:32.723839,2018-09-19 15:06:36.644063,0:00:03.920224,2,right,0,0.3004975334147275,29,m,2,11,2018_Sep_19_1501,MP_PerceptionTuring2,59.94796678686422,
48,resources/videos_generated\model(vcgpdm)-dataset(walking)-mode(ELBO)-parts(2)-dyn(25)-lvm(18)_final(4).mov,resources/videos_natural\training(5).mov,True,True,left,0,47,47,47,2018-09-19 15:06:38.062144,2018-09-19 15:06:42.099375,0:00:04.037231,2,left,1,0.5673829501442924,29,m,2,11,2018_Sep_19_1501,MP_PerceptionTuring2,59.94796678686422,
49,resources/videos_generated\model(vcgpdm)-dataset(walking)-mode(ELBO)-parts(1)-dyn(27)-lvm(26)_final(8).mov,resources/videos_natural\training(0).mov,False,True,left,0,48,48,48,2018-09-19 15:06:43.783471,2018-09-19 15:06:47.670694,0:00:03.887223,2,left,1,0.30057403068303756,29,m,2,11,2018_Sep_19_1501,MP_PerceptionTuring2,59.94796678686422,
50,resources/videos_generated\model(vcgpdm)-dataset(walking)-mode(ELBO)-parts(1)-dyn(22)-lvm(22)_final(1).mov,resources/videos_natural\training(15).mov,True,False,right,0,49,49,49,2018-09-19 15:06:49.088775,2018-09-19 15:06:53.075003,0:00:03.986228,2,right,1,0.3338476318976973,29,m,2,11,2018_Sep_19_1501,MP_PerceptionTuring2,59.94796678686422,
51,resources/videos_generated\model(vcgpdm)-dataset(walking)-mode(ELBO)-parts(1)-dyn(24)-lvm(27)_final(5).mov,resources/videos_natural\training(32).mov,False,False,right,0,50,50,50,2018-09-19 15:06:54.526086,2018-09-19 15:06:58.513314,0:00:03.987228,2,left,0,0.41713147290374764,29,m,2,11,2018_Sep_19_1501,MP_PerceptionTuring2,59.94796678686422,
52,resources/videos_generated\model(vcgpdm)-dataset(walking)-mode(ELBO)-parts(2)-dyn(26)-lvm(23)_final(6).mov,resources/videos_natural\training(7).mov,True,False,right,0,51,51,51,2018-09-19 15:07:00.047402,2018-09-19 15:07:04.084632,0:00:04.037230,2,right,1,0.3504930158596835,29,m,2,11,2018_Sep_19_1501,MP_PerceptionTuring2,59.94796678686422,
53,resources/videos_generated\model(vcgpdm)-dataset(walking)-mode(ELBO)-parts(1)-dyn(24)-lvm(23)_final(9).mov,resources/videos_natural\training(18).mov,True,True,left,0,52,52,52,2018-09-19 15:07:05.552716,2018-09-19 15:07:09.505942,0:00:03.953226,2,right,0,0.3672531457241348,29,m,2,11,2018_Sep_19_1501,MP_PerceptionTuring2,59.94796678686422,
54,resources/videos_generated\model(vcgpdm)-dataset(walking)-mode(ELBO)-parts(1)-dyn(25)-lvm(26)_final(7).mov,resources/videos_natural\training(31).mov,True,False,right,0,53,53,53,2018-09-19 15:07:10.991027,2018-09-19 15:07:15.011257,0:00:04.020230,2,right,1,0.3506216155983566,29,m,2,11,2018_Sep_19_1501,MP_PerceptionTuring2,59.94796678686422,
55,resources/videos_generated\model(vcgpdm)-dataset(walking)-mode(ELBO)-parts(2)-dyn(24)-lvm(17)_final(4).mov,resources/videos_natural\training(8).mov,True,False,right,0,54,54,54,2018-09-19 15:07:16.478341,2018-09-19 15:07:20.398566,0:00:03.920225,2,right,1,0.36721640294172175,29,m,2,11,2018_Sep_19_1501,MP_PerceptionTuring2,59.94796678686422,
56,resources/videos_generated\model(vcgpdm)-dataset(walking)-mode(ELBO)-parts(1)-dyn(24)-lvm(27)_final(3).mov,resources/videos_natural\training(4).mov,True,False,right,0,55,55,55,2018-09-19 15:07:21.883650,2018-09-19 15:07:25.936882,0:00:04.053232,2,right,1,0.2838620880743292,29,m,2,11,2018_Sep_19_1501,MP_PerceptionTuring2,59.94796678686422,
57,resources/videos_generated\model(vcgpdm)-dataset(walking)-mode(ELBO)-parts(2)-dyn(23)-lvm(20)_final(4).mov,resources/videos_natural\training(33).mov,True,True,left,0,56,56,56,2018-09-19 15:07:27.337962,2018-09-19 15:07:31.241186,0:00:03.903224,2,left,1,0.25040115890351444,29,m,2,11,2018_Sep_19_1501,MP_PerceptionTuring2,59.94796678686422,
58,resources/videos_generated\model(tmp)-dataset(walking)-numprim(14)_final(9).mov,resources/videos_natural\training(5).mov,True,True,left,0,57,57,57,2018-09-19 15:07:32.609264,2018-09-19 15:07:36.529488,0:00:03.920224,2,left,1,0.38377535101381,29,m,2,11,2018_Sep_19_1501,MP_PerceptionTuring2,59.94796678686422,
59,resources/videos_generated\model(vcgpdm)-dataset(walking)-mode(ELBO)-parts(2)-dyn(25)-lvm(18)_final(2).mov,resources/videos_natural\training(41).mov,True,False,right,0,58,58,58,2018-09-19 15:07:38.030574,2018-09-19 15:07:42.117808,0:00:04.087234,2,right,1,0.28377956739859655,29,m,2,11,2018_Sep_19_1501,MP_PerceptionTuring2,59.94796678686422,
60,resources/videos_generated\model(vcgpdm)-dataset(walking)-mode(ELBO)-parts(2)-dyn(24)-lvm(19)_final(6).mov,resources/videos_natural\training(16).mov,True,False,right,0,59,59,59,2018-09-19 15:07:43.518888,2018-09-19 15:07:47.422111,0:00:03.903223,2,right,1,0.3004577789288305,29,m,2,11,2018_Sep_19_1501,MP_PerceptionTuring2,59.94796678686422,
61,resources/videos_generated\model(vcgpdm)-dataset(walking)-mode(ELBO)-parts(2)-dyn(28)-lvm(23)_final(6).mov,resources/videos_natural\training(22).mov,False,True,left,0,60,60,60,2018-09-19 15:07:48.840192,2018-09-19 15:07:52.793418,0:00:03.953226,2,left,1,0.2837196344999029,29,m,2,11,2018_Sep_19_1501,MP_PerceptionTuring2,59.94796678686422,
62,resources/videos_generated\model(vcgpdm)-dataset(walking)-mode(ELBO)-parts(1)-dyn(26)-lvm(27)_final(4).mov,resources/videos_natural\training(9).mov,False,False,right,0,61,61,61,2018-09-19 15:07:54.194499,2018-09-19 15:07:58.131724,0:00:03.937225,2,left,0,0.3004641035063287,29,m,2,11,2018_Sep_19_1501,MP_PerceptionTuring2,59.94796678686422,
63,resources/videos_generated\model(dmp)-dataset(walking)-npsi(90)_final(9).mov,resources/videos_natural\training(28).mov,True,True,left,0,62,62,62,2018-09-19 15:07:59.548805,2018-09-19 15:08:03.469029,0:00:03.920224,2,right,0,0.26708659852192795,29,m,2,11,2018_Sep_19_1501,MP_PerceptionTuring2,59.94796678686422,
64,resources/videos_generated\model(vcgpdm)-dataset(walking)-mode(ELBO)-parts(1)-dyn(24)-lvm(27)_final(7).mov,resources/videos_natural\training(13).mov,True,False,right,0,63,63,63,2018-09-19 15:08:04.854108,2018-09-19 15:08:08.824335,0:00:03.970227,2,right,1,0.3838250441212949,29,m,2,11,2018_Sep_19_1501,MP_PerceptionTuring2,59.94796678686422,
65,resources/videos_generated\model(vcgpdm)-dataset(walking)-mode(ELBO)-parts(2)-dyn(25)-lvm(20)_final(8).mov,resources/videos_natural\training(27).mov,False,False,right,0,64,64,64,2018-09-19 15:08:10.325421,2018-09-19 15:08:14.245645,0:00:03.920224,2,right,1,0.317163698130571,29,m,2,11,2018_Sep_19_1501,MP_PerceptionTuring2,59.94796678686422,
66,resources/videos_generated\model(vcgpdm)-dataset(walking)-mode(ELBO)-parts(1)-dyn(25)-lvm(22)_final(3).mov,resources/videos_natural\training(7).mov,True,False,right,0,65,65,65,2018-09-19 15:08:15.679727,2018-09-19 15:08:19.599952,0:00:03.920225,2,right,1,0.33380576921899774,29,m,2,11,2018_Sep_19_1501,MP_PerceptionTuring2,59.94796678686422,
67,resources/videos_generated\model(dmp)-dataset(walking)-npsi(90)_final(7).mov,resources/videos_natural\training(35).mov,False,False,right,0,66,66,66,2018-09-19 15:08:21.051035,2018-09-19 15:08:24.954258,0:00:03.903223,2,right,1,0.2838837723393226,29,m,2,11,2018_Sep_19_1501,MP_PerceptionTuring2,59.94796678686422,
68,resources/videos_generated\model(tmp)-dataset(walking)-numprim(12)_final(5).mov,resources/videos_natural\training(28).mov,True,True,left,0,67,67,67,2018-09-19 15:08:26.355338,2018-09-19 15:08:30.242560,0:00:03.887222,2,right,0,0.2671118968310111,29,m,2,11,2018_Sep_19_1501,MP_PerceptionTuring2,59.94796678686422,
69,resources/videos_generated\model(vcgpdm)-dataset(walking)-mode(ELBO)-parts(1)-dyn(22)-lvm(25)_final(1).mov,resources/videos_natural\training(24).mov,False,False,right,0,68,68,68,2018-09-19 15:08:31.626640,2018-09-19 15:08:35.746875,0:00:04.120235,2,right,1,0.28378769899791223,29,m,2,11,2018_Sep_19_1501,MP_PerceptionTuring2,59.94796678686422,
70,resources/videos_generated\model(vcgpdm)-dataset(walking)-mode(ELBO)-parts(2)-dyn(24)-lvm(21)_final(4).mov,resources/videos_natural\training(34).mov,False,False,right,0,69,69,69,2018-09-19 15:08:37.148955,2018-09-19 15:08:41.068180,0:00:03.919225,2,right,1,0.28378016973965714,29,m,2,11,2018_Sep_19_1501,MP_PerceptionTuring2,59.94796678686422,
71,resources/videos_generated\model(vcgpdm)-dataset(walking)-mode(ELBO)-parts(2)-dyn(26)-lvm(21)_final(2).mov,resources/videos_natural\training(36).mov,False,False,right,0,70,70,70,2018-09-19 15:08:42.469260,2018-09-19 15:08:46.356482,0:00:03.887222,2,right,1,0.25042886657593044,29,m,2,11,2018_Sep_19_1501,MP_PerceptionTuring2,59.94796678686422,
72,resources/videos_generated\model(vcgpdm)-dataset(walking)-mode(ELBO)-parts(1)-dyn(25)-lvm(22)_final(7).mov,resources/videos_natural\training(43).mov,True,True,left,0,71,71,71,2018-09-19 15:08:47.724560,2018-09-19 15:08:51.794793,0:00:04.070233,2,left,1,0.2838885910641693,29,m,2,11,2018_Sep_19_1501,MP_PerceptionTuring2,59.94796678686422,
73,resources/videos_generated\model(tmp)-dataset(walking)-numprim(12)_final(1).mov,resources/videos_natural\training(46).mov,True,True,left,0,72,72,72,2018-09-19 15:08:53.195873,2018-09-19 15:08:57.116097,0:00:03.920224,2,left,1,0.31716881802640273,29,m,2,11,2018_Sep_19_1501,MP_PerceptionTuring2,59.94796678686422,
74,resources/videos_generated\model(vcgpdm)-dataset(walking)-mode(ELBO)-parts(1)-dyn(28)-lvm(24)_final(5).mov,resources/videos_natural\training(42).mov,False,True,left,0,73,73,73,2018-09-19 15:08:58.550179,2018-09-19 15:09:02.453403,0:00:03.903224,2,right,0,0.30047735500193085,29,m,2,11,2018_Sep_19_1501,MP_PerceptionTuring2,59.94796678686422,
75,resources/videos_generated\model(vcgpdm)-dataset(walking)-mode(ELBO)-parts(2)-dyn(26)-lvm(19)_final(6).mov,resources/videos_natural\training(37).mov,True,False,right,0,74,74,74,2018-09-19 15:09:03.871484,2018-09-19 15:09:07.808709,0:00:03.937225,2,left,0,0.31716279462034436,29,m,2,11,2018_Sep_19_1501,MP_PerceptionTuring2,59.94796678686422,
76,resources/videos_generated\model(vcgpdm)-dataset(walking)-mode(ELBO)-parts(1)-dyn(28)-lvm(25)_final(2).mov,resources/videos_natural\training(33).mov,False,False,right,0,75,75,75,2018-09-19 15:09:09.242791,2018-09-19 15:09:13.180016,0:00:03.937225,2,right,1,0.3171679145152666,29,m,2,11,2018_Sep_19_1501,MP_PerceptionTuring2,59.94796678686422,
77,resources/videos_generated\model(dmp)-dataset(walking)-npsi(60)_final(7).mov,resources/videos_natural\training(37).mov,True,False,right,0,76,76,76,2018-09-19 15:09:14.614098,2018-09-19 15:09:18.517322,0:00:03.903224,2,left,0,0.5173706021596445,29,m,2,11,2018_Sep_19_1501,MP_PerceptionTuring2,59.94796678686422,
78,resources/videos_generated\model(vcgpdm)-dataset(walking)-mode(ELBO)-parts(1)-dyn(22)-lvm(27)_final(3)_fail.mov,resources/videos_natural\training(35).mov,False,False,right,0,77,77,77,2018-09-19 15:09:20.152415,2018-09-19 15:09:24.089640,0:00:03.937225,2,right,1,0.4840726061474925,29,m,2,11,2018_Sep_19_1501,MP_PerceptionTuring2,59.94796678686422,
79,resources/videos_generated\model(vcgpdm)-dataset(walking)-mode(ELBO)-parts(2)-dyn(25)-lvm(22)_final(4).mov,resources/videos_natural\training(34).mov,False,False,right,0,78,78,78,2018-09-19 15:09:25.690732,2018-09-19 15:09:29.760965,0:00:04.070233,2,right,1,0.26613730958524684,29,m,2,11,2018_Sep_19_1501,MP_PerceptionTuring2,59.94796678686422,
80,resources/videos_generated\model(dmp)-dataset(walking)-npsi(80)_final(3).mov,resources/videos_natural\training(16).mov,False,False,right,0,79,79,79,2018-09-19 15:09:31.145044,2018-09-19 15:09:35.065268,0:00:03.920224,2,right,1,0.3505665014245096,29,m,2,11,2018_Sep_19_1501,MP_PerceptionTuring2,59.94796678686422,
81,resources/videos_generated\model(vcgpdm)-dataset(walking)-mode(ELBO)-parts(1)-dyn(24)-lvm(23)_final(5).mov,resources/videos_natural\training(18).mov,True,True,left,0,80,80,80,2018-09-19 15:09:36.533352,2018-09-19 15:09:40.503579,0:00:03.970227,2,left,1,0.3173380757625637,29,m,2,11,2018_Sep_19_1501,MP_PerceptionTuring2,59.94796678686422,
82,resources/videos_generated\model(vcgpdm)-dataset(walking)-mode(ELBO)-parts(2)-dyn(23)-lvm(20)_final(6).mov,resources/videos_natural\training(34).mov,False,True,left,0,81,81,81,2018-09-19 15:09:41.937661,2018-09-19 15:09:45.840884,0:00:03.903223,2,left,1,0.2838804594657631,29,m,2,11,2018_Sep_19_1501,MP_PerceptionTuring2,59.94796678686422,
83,resources/videos_generated\model(vcgpdm)-dataset(walking)-mode(ELBO)-parts(1)-dyn(23)-lvm(22)_final(8)_fail.mov,resources/videos_natural\training(22).mov,True,True,left,0,82,82,82,2018-09-19 15:09:47.242965,2018-09-19 15:09:51.146188,0:00:03.903223,2,left,1,0.3837964329377428,29,m,2,11,2018_Sep_19_1501,MP_PerceptionTuring2,59.94796678686422,
84,resources/videos_generated\model(vcgpdm)-dataset(walking)-mode(ELBO)-parts(1)-dyn(25)-lvm(26)_final(3)_fail.mov,resources/videos_natural\training(13).mov,False,False,right,0,83,83,83,2018-09-19 15:09:52.647274,2018-09-19 15:09:56.767509,0:00:04.120235,2,right,1,0.2503418283449719,29,m,2,11,2018_Sep_19_1501,MP_PerceptionTuring2,59.94796678686422,
85,resources/videos_generated\model(vcgpdm)-dataset(walking)-mode(ELBO)-parts(2)-dyn(25)-lvm(20)_final(6).mov,resources/videos_natural\training(0).mov,True,False,right,0,84,84,84,2018-09-19 15:09:58.134588,2018-09-19 15:10:02.188819,0:00:04.054231,2,left,0,0.30038881091968506,29,m,2,11,2018_Sep_19_1501,MP_PerceptionTuring2,59.94796678686422,
86,resources/videos_generated\model(vcgpdm)-dataset(walking)-mode(ELBO)-parts(2)-dyn(22)-lvm(23)_final(6).mov,resources/videos_natural\training(42).mov,False,False,right,0,85,85,85,2018-09-19 15:10:03.606901,2018-09-19 15:10:07.527125,0:00:03.920224,2,right,1,0.25053909492271487,29,m,2,11,2018_Sep_19_1501,MP_PerceptionTuring2,59.94796678686422,
87,resources/videos_generated\model(dmp)-dataset(walking)-npsi(60)_final(5).mov,resources/videos_natural\training(34).mov,True,True,left,0,86,86,86,2018-09-19 15:10:08.894203,2018-09-19 15:10:12.881431,0:00:03.987228,2,right,0,0.3005415042853201,29,m,2,11,2018_Sep_19_1501,MP_PerceptionTuring2,59.94796678686422,
88,resources/videos_generated\model(vcgpdm)-dataset(walking)-mode(ELBO)-parts(1)-dyn(25)-lvm(24)_final(6).mov,resources/videos_natural\training(17).mov,True,False,right,0,87,87,87,2018-09-19 15:10:14.299512,2018-09-19 15:10:18.202735,0:00:03.903223,2,right,1,0.2838672079706157,29,m,2,11,2018_Sep_19_1501,MP_PerceptionTuring2,59.94796678686422,
89,resources/videos_generated\model(vcgpdm)-dataset(walking)-mode(ELBO)-parts(2)-dyn(28)-lvm(19)_final(8).mov,resources/videos_natural\training(18).mov,True,True,left,0,88,88,88,2018-09-19 15:10:19.603815,2018-09-19 15:10:23.691049,0:00:04.087234,2,left,1,0.3171941163363954,29,m,2,11,2018_Sep_19_1501,MP_PerceptionTuring2,59.94796678686422,
90,resources/videos_generated\model(vcgpdm)-dataset(walking)-mode(ELBO)-parts(1)-dyn(27)-lvm(24)_final(6).mov,resources/videos_natural\training(20).mov,False,False,right,0,89,89,89,2018-09-19 15:10:25.125131,2018-09-19 15:10:29.045356,0:00:03.920225,2,right,1,0.25049452171060693,29,m,2,11,2018_Sep_19_1501,MP_PerceptionTuring2,59.94796678686422,
91,resources/videos_generated\model(vcgpdm)-dataset(walking)-mode(ELBO)-parts(2)-dyn(28)-lvm(17)_final(6).mov,resources/videos_natural\training(35).mov,False,True,left,0,90,90,90,2018-09-19 15:11:07.144535,2018-09-19 15:11:11.181766,0:00:04.037231,3,left,1,0.30054120311524457,29,m,2,11,2018_Sep_19_1501,MP_PerceptionTuring2,59.94796678686422,
92,resources/videos_generated\model(vcgpdm)-dataset(walking)-mode(ELBO)-parts(1)-dyn(23)-lvm(26)_final(0).mov,resources/videos_natural\training(32).mov,True,True,left,0,91,91,91,2018-09-19 15:11:12.599847,2018-09-19 15:11:16.653079,0:00:04.053232,3,right,0,0.41727061360506923,29,m,2,11,2018_Sep_19_1501,MP_PerceptionTuring2,59.94796678686422,
93,resources/videos_generated\model(vcgpdm)-dataset(walking)-mode(ELBO)-parts(2)-dyn(22)-lvm(21)_final(0).mov,resources/videos_natural\training(16).mov,False,True,left,0,92,92,92,2018-09-19 15:11:18.187166,2018-09-19 15:11:22.107390,0:00:03.920224,3,left,1,0.26721519825969153,29,m,2,11,2018_Sep_19_1501,MP_PerceptionTuring2,59.94796678686422,
94,resources/videos_generated\model(vcgpdm)-dataset(walking)-mode(ELBO)-parts(2)-dyn(24)-lvm(21)_final(6).mov,resources/videos_natural\training(44).mov,True,False,right,0,93,93,93,2018-09-19 15:11:23.492470,2018-09-19 15:11:27.412694,0:00:03.920224,3,right,1,0.7675931670464706,29,m,2,11,2018_Sep_19_1501,MP_PerceptionTuring2,59.94796678686422,
95,resources/videos_generated\model(dmp)-dataset(walking)-npsi(80)_final(1).mov,resources/videos_natural\training(28).mov,False,False,right,0,94,94,94,2018-09-19 15:11:29.296802,2018-09-19 15:11:33.318032,0:00:04.021230,3,right,1,0.30056951312781166,29,m,2,11,2018_Sep_19_1501,MP_PerceptionTuring2,59.94796678686422,
96,resources/videos_generated\model(vcgpdm)-dataset(walking)-mode(ELBO)-parts(1)-dyn(28)-lvm(25)_final(4).mov,resources/videos_natural\training(36).mov,True,True,left,0,95,95,95,2018-09-19 15:11:34.735113,2018-09-19 15:11:38.688339,0:00:03.953226,3,left,1,0.3337883013391547,29,m,2,11,2018_Sep_19_1501,MP_PerceptionTuring2,59.94796678686422,
97,resources/videos_generated\model(vcgpdm)-dataset(walking)-mode(ELBO)-parts(2)-dyn(28)-lvm(23)_final(4)_fail.mov,resources/videos_natural\training(39).mov,False,False,right,0,96,96,96,2018-09-19 15:11:40.140422,2018-09-19 15:11:44.076647,0:00:03.936225,3,right,1,0.28378800016889727,29,m,2,11,2018_Sep_19_1501,MP_PerceptionTuring2,59.94796678686422,
98,resources/videos_generated\model(vcgpdm)-dataset(walking)-mode(ELBO)-parts(1)-dyn(26)-lvm(23)_final(8).mov,resources/videos_natural\training(8).mov,False,True,left,0,97,97,97,2018-09-19 15:11:45.477727,2018-09-19 15:11:49.414952,0:00:03.937225,3,left,1,0.3338997343671508,29,m,2,11,2018_Sep_19_1501,MP_PerceptionTuring2,59.94796678686422,
99,resources/videos_generated\model(vcgpdm)-dataset(walking)-mode(ELBO)-parts(2)-dyn(28)-lvm(21)_final(8).mov,resources/videos_natural\training(38).mov,True,False,right,0,98,98,98,2018-09-19 15:11:50.866035,2018-09-19 15:11:54.786260,0:00:03.920225,3,right,1,0.2672612773239962,29,m,2,11,2018_Sep_19_1501,MP_PerceptionTuring2,59.94796678686422,
100,resources/videos_generated\model(vcgpdm)-dataset(walking)-mode(ELBO)-parts(2)-dyn(27)-lvm(22)_final(8).mov,resources/videos_natural\training(20).mov,False,False,right,0,99,99,99,2018-09-19 15:11:56.170339,2018-09-19 15:12:00.223571,0:00:04.053232,3,right,1,0.3506008348440446,29,m,2,11,2018_Sep_19_1501,MP_PerceptionTuring2,59.94796678686422,
101,resources/videos_generated\model(tmp)-dataset(walking)-numprim(15)_final(3).mov,resources/videos_natural\training(11).mov,False,False,right,0,100,100,100,2018-09-19 15:12:01.691655,2018-09-19 15:12:05.628880,0:00:03.937225,3,left,0,0.28399972292299935,29,m,2,11,2018_Sep_19_1501,MP_PerceptionTuring2,59.94796678686422,
102,resources/videos_generated\model(vcgpdm)-dataset(walking)-mode(ELBO)-parts(1)-dyn(23)-lvm(28)_final(1).mov,resources/videos_natural\training(16).mov,True,True,left,0,101,101,101,2018-09-19 15:12:07.029960,2018-09-19 15:12:10.933183,0:00:03.903223,3,left,1,0.3505547557815589,29,m,2,11,2018_Sep_19_1501,MP_PerceptionTuring2,59.94796678686422,
103,resources/videos_generated\model(vcgpdm)-dataset(walking)-mode(ELBO)-parts(2)-dyn(26)-lvm(17)_final(8).mov,resources/videos_natural\training(33).mov,False,False,right,0,102,102,102,2018-09-19 15:12:12.401267,2018-09-19 15:12:16.321491,0:00:03.920224,3,left,0,0.3004969310741217,29,m,2,11,2018_Sep_19_1501,MP_PerceptionTuring2,59.94796678686422,
104,resources/videos_generated\model(vcgpdm)-dataset(walking)-mode(ELBO)-parts(2)-dyn(22)-lvm(23)_final(4).mov,resources/videos_natural\training(0).mov,True,False,right,0,103,103,103,2018-09-19 15:12:17.739572,2018-09-19 15:12:21.842807,0:00:04.103235,3,right,1,0.3674221022893107,29,m,2,11,2018_Sep_19_1501,MP_PerceptionTuring2,59.94796678686422,
105,resources/videos_generated\model(vcgpdm)-dataset(walking)-mode(ELBO)-parts(1)-dyn(22)-lvm(28)_final(2).mov,resources/videos_natural\training(17).mov,True,True,left,0,104,104,104,2018-09-19 15:12:23.326892,2018-09-19 15:12:27.214114,0:00:03.887222,3,right,0,0.31717454026329506,29,m,2,11,2018_Sep_19_1501,MP_PerceptionTuring2,59.94796678686422,
106,resources/videos_generated\model(vcgpdm)-dataset(walking)-mode(ELBO)-parts(2)-dyn(22)-lvm(23)_final(8).mov,resources/videos_natural\training(30).mov,True,False,right,0,105,105,105,2018-09-19 15:12:28.648196,2018-09-19 15:12:32.602423,0:00:03.954227,3,right,1,0.26718417771462555,29,m,2,11,2018_Sep_19_1501,MP_PerceptionTuring2,59.94796678686422,
107,resources/videos_generated\model(vcgpdm)-dataset(walking)-mode(ELBO)-parts(2)-dyn(28)-lvm(17)_final(4).mov,resources/videos_natural\training(29).mov,True,False,right,0,106,106,106,2018-09-19 15:12:33.986502,2018-09-19 15:12:37.989731,0:00:04.003229,3,right,1,0.3003906179419573,29,m,2,11,2018_Sep_19_1501,MP_PerceptionTuring2,59.94796678686422,
108,resources/videos_generated\model(vcgpdm)-dataset(walking)-mode(ELBO)-parts(1)-dyn(26)-lvm(22)_final(2).mov,resources/videos_natural\training(19).mov,True,True,left,0,107,107,107,2018-09-19 15:12:39.407812,2018-09-19 15:12:43.428042,0:00:04.020230,3,left,1,0.2837322836539897,29,m,2,11,2018_Sep_19_1501,MP_PerceptionTuring2,59.94796678686422,
109,resources/videos_generated\model(vcgpdm)-dataset(walking)-mode(ELBO)-parts(1)-dyn(23)-lvm(28)_final(9).mov,resources/videos_natural\training(32).mov,False,True,left,0,108,108,108,2018-09-19 15:12:44.829122,2018-09-19 15:12:48.766347,0:00:03.937225,3,right,0,0.28378077207980823,29,m,2,11,2018_Sep_19_1501,MP_PerceptionTuring2,59.94796678686422,
110,resources/videos_generated\model(vcgpdm)-dataset(walking)-mode(ELBO)-parts(2)-dyn(23)-lvm(20)_final(2).mov,resources/videos_natural\training(10).mov,False,False,right,0,109,109,109,2018-09-19 15:12:50.167427,2018-09-19 15:12:54.070650,0:00:03.903223,3,right,1,0.2824899559691403,29,m,2,11,2018_Sep_19_1501,MP_PerceptionTuring2,59.94796678686422,
111,resources/videos_generated\model(vcgpdm)-dataset(walking)-mode(ELBO)-parts(2)-dyn(22)-lvm(19)_final(6).mov,resources/videos_natural\training(40).mov,True,True,left,0,110,110,110,2018-09-19 15:12:55.471731,2018-09-19 15:12:59.358953,0:00:03.887222,3,left,1,0.2671028617205593,29,m,2,11,2018_Sep_19_1501,MP_PerceptionTuring2,59.94796678686422,
112,resources/videos_generated\model(tmp)-dataset(walking)-numprim(15)_final(9).mov,resources/videos_natural\training(20).mov,True,False,right,0,111,111,111,2018-09-19 15:13:00.743032,2018-09-19 15:13:04.663256,0:00:03.920224,3,left,0,0.26706370957526815,29,m,2,11,2018_Sep_19_1501,MP_PerceptionTuring2,59.94796678686422,
113,resources/videos_generated\model(vcgpdm)-dataset(walking)-mode(ELBO)-parts(2)-dyn(23)-lvm(18)_final(2).mov,resources/videos_natural\training(16).mov,True,True,left,0,112,112,112,2018-09-19 15:13:06.047336,2018-09-19 15:13:09.984561,0:00:03.937225,3,left,1,0.21714472439907695,29,m,2,11,2018_Sep_19_1501,MP_PerceptionTuring2,59.94796678686422,
114,resources/videos_generated\model(vcgpdm)-dataset(walking)-mode(ELBO)-parts(2)-dyn(26)-lvm(23)_final(2).mov,resources/videos_natural\training(46).mov,False,False,right,0,113,113,113,2018-09-19 15:13:11.318637,2018-09-19 15:13:15.355868,0:00:04.037231,3,right,1,0.2670579873383758,29,m,2,11,2018_Sep_19_1501,MP_PerceptionTuring2,59.94796678686422,
115,resources/videos_generated\model(vcgpdm)-dataset(walking)-mode(ELBO)-parts(1)-dyn(27)-lvm(28)_final(2).mov,resources/videos_natural\training(39).mov,True,False,right,0,114,114,114,2018-09-19 15:13:16.739947,2018-09-19 15:13:20.644170,0:00:03.904223,3,right,1,0.16706943181270617,29,m,2,11,2018_Sep_19_1501,MP_PerceptionTuring2,59.94796678686422,
116,resources/videos_generated\model(vcgpdm)-dataset(walking)-mode(ELBO)-parts(1)-dyn(22)-lvm(27)_final(9)_hip-corrected.mov,resources/videos_natural\training(9).mov,False,False,right,0,115,115,115,2018-09-19 15:13:21.928244,2018-09-19 15:13:25.831467,0:00:03.903223,3,right,1,0.28390063787810504,29,m,2,11,2018_Sep_19_1501,MP_PerceptionTuring2,59.94796678686422,
117,resources/videos_generated\model(vcgpdm)-dataset(walking)-mode(ELBO)-parts(2)-dyn(28)-lvm(23)_final(2).mov,resources/videos_natural\training(41).mov,True,False,right,0,116,116,116,2018-09-19 15:13:27.232547,2018-09-19 15:13:31.235776,0:00:04.003229,3,right,1,0.31718146718139906,29,m,2,11,2018_Sep_19_1501,MP_PerceptionTuring2,59.94796678686422,
118,resources/videos_generated\model(vcgpdm)-dataset(walking)-mode(ELBO)-parts(1)-dyn(26)-lvm(27)_final(2).mov,resources/videos_natural\training(0).mov,False,True,left,0,117,117,117,2018-09-19 15:13:32.670858,2018-09-19 15:13:36.607083,0:00:03.936225,3,right,0,0.3005565628027398,29,m,2,11,2018_Sep_19_1501,MP_PerceptionTuring2,59.94796678686422,
119,resources/videos_generated\model(vcgpdm)-dataset(walking)-mode(ELBO)-parts(1)-dyn(23)-lvm(24)_final(0).mov,resources/videos_natural\training(0).mov,False,False,right,0,118,118,118,2018-09-19 15:13:38.025165,2018-09-19 15:13:42.095397,0:00:04.070232,3,right,1,0.2670649142573893,29,m,2,11,2018_Sep_19_1501,MP_PerceptionTuring2,59.94796678686422,
120,resources/videos_generated\model(vcgpdm)-dataset(walking)-mode(ELBO)-parts(2)-dyn(27)-lvm(20)_final(2).mov,resources/videos_natural\training(47).mov,False,True,left,0,119,119,119,2018-09-19 15:13:43.480477,2018-09-19 15:13:47.433703,0:00:03.953226,3,left,1,0.23380607038961898,29,m,2,11,2018_Sep_19_1501,MP_PerceptionTuring2,59.94796678686422,
121,resources/videos_generated\model(vcgpdm)-dataset(walking)-mode(ELBO)-parts(2)-dyn(25)-lvm(18)_final(6).mov,resources/videos_natural\training(37).mov,True,False,right,0,120,120,120,2018-09-19 15:13:48.784780,2018-09-19 15:13:52.755007,0:00:03.970227,3,right,1,0.35054782886254543,29,m,2,11,2018_Sep_19_1501,MP_PerceptionTuring2,59.94796678686422,
122,resources/videos_generated\model(vcgpdm)-dataset(walking)-mode(ELBO)-parts(1)-dyn(26)-lvm(23)_final(2).mov,resources/videos_natural\training(2).mov,True,False,right,0,121,121,121,2018-09-19 15:13:54.222091,2018-09-19 15:13:58.159316,0:00:03.937225,3,right,1,0.3337819767612018,29,m,2,11,2018_Sep_19_1501,MP_PerceptionTuring2,59.94796678686422,
123,resources/videos_generated\model(vcgpdm)-dataset(walking)-mode(ELBO)-parts(1)-dyn(27)-lvm(26)_final(6).mov,resources/videos_natural\training(45).mov,False,False,right,0,122,122,122,2018-09-19 15:13:59.610399,2018-09-19 15:14:03.697633,0:00:04.087234,3,right,1,0.41730735638702754,29,m,2,11,2018_Sep_19_1501,MP_PerceptionTuring2,59.94796678686422,
124,resources/videos_generated\model(vcgpdm)-dataset(walking)-mode(ELBO)-parts(1)-dyn(23)-lvm(28)_final(5).mov,resources/videos_natural\training(28).mov,False,True,left,0,123,123,123,2018-09-19 15:14:05.231721,2018-09-19 15:14:09.185947,0:00:03.954226,3,left,1,0.26708117745602067,29,m,2,11,2018_Sep_19_1501,MP_PerceptionTuring2,59.94796678686422,
125,resources/videos_generated\model(vcgpdm)-dataset(walking)-mode(ELBO)-parts(2)-dyn(24)-lvm(23)_final(2).mov,resources/videos_natural\training(9).mov,False,True,left,0,124,124,124,2018-09-19 15:14:10.570026,2018-09-19 15:14:14.657260,0:00:04.087234,3,left,1,0.23387142435512942,29,m,2,11,2018_Sep_19_1501,MP_PerceptionTuring2,59.94796678686422,
126,resources/videos_generated\model(dmp)-dataset(walking)-npsi(80)_final(5).mov,resources/videos_natural\training(23).mov,True,True,left,0,125,125,125,2018-09-19 15:14:16.008337,2018-09-19 15:14:19.944562,0:00:03.936225,3,right,0,0.233674760118447,29,m,2,11,2018_Sep_19_1501,MP_PerceptionTuring2,59.94796678686422,
127,resources/videos_generated\model(vcgpdm)-dataset(walking)-mode(ELBO)-parts(1)-dyn(25)-lvm(26)_final(5).mov,resources/videos_natural\training(45).mov,False,True,left,0,126,126,126,2018-09-19 15:14:21.295639,2018-09-19 15:14:25.249866,0:00:03.954227,3,right,0,0.250422240827902,29,m,2,11,2018_Sep_19_1501,MP_PerceptionTuring2,59.94796678686422,
128,resources/videos_generated\model(dmp)-dataset(walking)-npsi(50)_final(7).mov,resources/videos_natural\training(11).mov,False,True,left,0,127,127,127,2018-09-19 15:14:26.616944,2018-09-19 15:14:30.704178,0:00:04.087234,3,right,0,0.3338373921051243,29,m,2,11,2018_Sep_19_1501,MP_PerceptionTuring2,59.94796678686422,
129,resources/videos_generated\model(vcgpdm)-dataset(walking)-mode(ELBO)-parts(1)-dyn(24)-lvm(25)_final(5).mov,resources/videos_natural\training(12).mov,False,False,right,0,128,128,128,2018-09-19 15:14:32.155261,2018-09-19 15:14:36.075485,0:00:03.920224,3,right,1,0.2838906992574266,29,m,2,11,2018_Sep_19_1501,MP_PerceptionTuring2,59.94796678686422,
130,resources/videos_generated\model(vcgpdm)-dataset(walking)-mode(ELBO)-parts(2)-dyn(26)-lvm(21)_final(6).mov,resources/videos_natural\training(6).mov,True,True,left,0,129,129,129,2018-09-19 15:14:37.476565,2018-09-19 15:14:41.429791,0:00:03.953226,3,left,1,0.3004002553925602,29,m,2,11,2018_Sep_19_1501,MP_PerceptionTuring2,59.94796678686422,
131,resources/videos_generated\model(vcgpdm)-dataset(walking)-mode(ELBO)-parts(1)-dyn(23)-lvm(22)_final(0).mov,resources/videos_natural\training(44).mov,False,False,right,0,130,130,130,2018-09-19 15:14:42.847872,2018-09-19 15:14:46.851101,0:00:04.003229,3,right,1,0.23390636011572496,29,m,2,11,2018_Sep_19_1501,MP_PerceptionTuring2,59.94796678686422,
132,resources/videos_generated\model(vcgpdm)-dataset(walking)-mode(ELBO)-parts(1)-dyn(28)-lvm(25)_final(8).mov,resources/videos_natural\training(30).mov,False,False,right,0,131,131,131,2018-09-19 15:14:48.202178,2018-09-19 15:14:52.122403,0:00:03.920225,3,right,1,0.21712695534824888,29,m,2,11,2018_Sep_19_1501,MP_PerceptionTuring2,59.94796678686422,
133,resources/videos_generated\model(vcgpdm)-dataset(walking)-mode(ELBO)-parts(2)-dyn(27)-lvm(20)_final(4).mov,resources/videos_natural\training(19).mov,True,True,left,0,132,132,132,2018-09-19 15:14:53.457479,2018-09-19 15:14:57.426706,0:00:03.969227,3,left,1,0.2503556821811799,29,m,2,11,2018_Sep_19_1501,MP_PerceptionTuring2,59.94796678686422,
134,resources/videos_generated\model(vcgpdm)-dataset(walking)-mode(ELBO)-parts(1)-dyn(22)-lvm(23)_final(9).mov,resources/videos_natural\training(22).mov,False,False,right,0,133,133,133,2018-09-19 15:14:58.794784,2018-09-19 15:15:02.732009,0:00:03.937225,3,right,1,0.16707635872990068,29,m,2,11,2018_Sep_19_1501,MP_PerceptionTuring2,59.94796678686422,
135,resources/videos_generated\model(vcgpdm)-dataset(walking)-mode(ELBO)-parts(2)-dyn(28)-lvm(19)_final(0).mov,resources/videos_natural\training(47).mov,False,True,left,0,134,134,134,2018-09-19 15:15:04.016083,2018-09-19 15:15:08.053314,0:00:04.037231,3,left,1,0.20033038387191482,29,m,2,11,2018_Sep_19_1501,MP_PerceptionTuring2,59.94796678686422,
136,resources/videos_generated\model(vcgpdm)-dataset(walking)-mode(ELBO)-parts(2)-dyn(24)-lvm(19)_final(2).mov,resources/videos_natural\training(8).mov,True,False,right,0,135,135,135,2018-09-19 15:15:48.888649,2018-09-19 15:15:52.774872,0:00:03.886223,4,right,1,0.300499340436545,29,m,2,11,2018_Sep_19_1501,MP_PerceptionTuring2,59.94796678686422,
137,resources/videos_generated\model(vcgpdm)-dataset(walking)-mode(ELBO)-parts(2)-dyn(26)-lvm(21)_final(8).mov,resources/videos_natural\training(42).mov,True,False,right,0,136,136,136,2018-09-19 15:15:54.192953,2018-09-19 15:15:58.163180,0:00:03.970227,4,right,1,0.21714171269468352,29,m,2,11,2018_Sep_19_1501,MP_PerceptionTuring2,59.94796678686422,
138,resources/videos_generated\model(vcgpdm)-dataset(walking)-mode(ELBO)-parts(2)-dyn(24)-lvm(19)_final(4).mov,resources/videos_natural\training(10).mov,True,False,right,0,137,137,137,2018-09-19 15:15:59.497256,2018-09-19 15:16:03.484484,0:00:03.987228,4,right,1,0.2171567712130127,29,m,2,11,2018_Sep_19_1501,MP_PerceptionTuring2,59.94796678686422,
139,resources/videos_generated\model(vcgpdm)-dataset(walking)-mode(ELBO)-parts(2)-dyn(24)-lvm(17)_final(6).mov,resources/videos_natural\training(42).mov,True,False,right,0,138,138,138,2018-09-19 15:16:04.818561,2018-09-19 15:16:08.771787,0:00:03.953226,4,right,1,0.23382293592840142,29,m,2,11,2018_Sep_19_1501,MP_PerceptionTuring2,59.94796678686422,
140,resources/videos_generated\model(dmp)-dataset(walking)-npsi(90)_final(1).mov,resources/videos_natural\training(24).mov,False,False,right,0,139,139,139,2018-09-19 15:16:10.122864,2018-09-19 15:16:14.077090,0:00:03.954226,4,right,1,0.2671685168561453,29,m,2,11,2018_Sep_19_1501,MP_PerceptionTuring2,59.94796678686422,
141,resources/videos_generated\model(vcgpdm)-dataset(walking)-mode(ELBO)-parts(2)-dyn(28)-lvm(23)_final(0).mov,resources/videos_natural\training(23).mov,True,False,right,0,140,140,140,2018-09-19 15:16:15.461169,2018-09-19 15:16:19.381394,0:00:03.920225,4,right,1,0.2836843975692318,29,m,2,11,2018_Sep_19_1501,MP_PerceptionTuring2,59.94796678686422,
142,resources/videos_generated\model(vcgpdm)-dataset(walking)-mode(ELBO)-parts(2)-dyn(24)-lvm(23)_final(6).mov,resources/videos_natural\training(35).mov,True,False,right,0,141,141,141,2018-09-19 15:16:20.782474,2018-09-19 15:16:24.702698,0:00:03.920224,4,right,1,0.4007200983014627,29,m,2,11,2018_Sep_19_1501,MP_PerceptionTuring2,59.94796678686422,
143,resources/videos_generated\model(dmp)-dataset(walking)-npsi(60)_final(3).mov,resources/videos_natural\training(29).mov,True,False,right,0,142,142,142,2018-09-19 15:16:26.220785,2018-09-19 15:16:30.191012,0:00:03.970227,4,left,0,0.25057162131997757,29,m,2,11,2018_Sep_19_1501,MP_PerceptionTuring2,59.94796678686422,
144,resources/videos_generated\model(vcgpdm)-dataset(walking)-mode(ELBO)-parts(1)-dyn(22)-lvm(22)_final(3).mov,resources/videos_natural\training(4).mov,True,True,left,0,143,143,143,2018-09-19 15:16:31.558090,2018-09-19 15:16:35.645324,0:00:04.087234,4,left,1,0.2673480143839697,29,m,2,11,2018_Sep_19_1501,MP_PerceptionTuring2,59.94796678686422,
145,resources/videos_generated\model(vcgpdm)-dataset(walking)-mode(ELBO)-parts(2)-dyn(24)-lvm(21)_final(0).mov,resources/videos_natural\training(38).mov,False,False,right,0,144,144,144,2018-09-19 15:16:37.030403,2018-09-19 15:16:40.949627,0:00:03.919224,4,right,1,0.5008496015516357,29,m,2,11,2018_Sep_19_1501,MP_PerceptionTuring2,59.94796678686422,
146,resources/videos_generated\model(tmp)-dataset(walking)-numprim(11)_final(9).mov,resources/videos_natural\training(26).mov,False,True,left,0,145,145,145,2018-09-19 15:16:42.567720,2018-09-19 15:16:46.687955,0:00:04.120235,4,right,0,0.26722724507453677,29,m,2,11,2018_Sep_19_1501,MP_PerceptionTuring2,59.94796678686422,
147,resources/videos_generated\model(vcgpdm)-dataset(walking)-mode(ELBO)-parts(2)-dyn(25)-lvm(22)_final(6).mov,resources/videos_natural\training(12).mov,False,False,right,0,146,146,146,2018-09-19 15:16:48.073035,2018-09-19 15:16:52.026261,0:00:03.953226,4,left,0,0.25040115890351444,29,m,2,11,2018_Sep_19_1501,MP_PerceptionTuring2,59.94796678686422,
148,resources/videos_generated\model(vcgpdm)-dataset(walking)-mode(ELBO)-parts(1)-dyn(22)-lvm(22)_final(5).mov,resources/videos_natural\training(45).mov,True,True,left,0,147,147,147,2018-09-19 15:16:53.394339,2018-09-19 15:16:57.330564,0:00:03.936225,4,left,1,0.23375246206705924,29,m,2,11,2018_Sep_19_1501,MP_PerceptionTuring2,59.94796678686422,
149,resources/videos_generated\model(vcgpdm)-dataset(walking)-mode(ELBO)-parts(2)-dyn(22)-lvm(19)_final(0).mov,resources/videos_natural\training(15).mov,True,False,right,0,148,148,148,2018-09-19 15:16:58.681641,2018-09-19 15:17:02.618867,0:00:03.937226,4,right,1,0.2504647058467526,29,m,2,11,2018_Sep_19_1501,MP_PerceptionTuring2,59.94796678686422,
150,resources/videos_generated\model(vcgpdm)-dataset(walking)-mode(ELBO)-parts(1)-dyn(25)-lvm(28)_final(3).mov,resources/videos_natural\training(48).mov,True,False,right,0,149,149,149,2018-09-19 15:17:03.986945,2018-09-19 15:17:07.890168,0:00:03.903223,4,right,1,0.06687788747058221,29,m,2,11,2018_Sep_19_1501,MP_PerceptionTuring2,59.94796678686422,
151,resources/videos_generated\model(dmp)-dataset(walking)-npsi(100)_final(1).mov,resources/videos_natural\training(26).mov,True,True,left,0,150,150,150,2018-09-19 15:17:09.074236,2018-09-19 15:17:12.994460,0:00:03.920224,4,right,0,0.25044000987873005,29,m,2,11,2018_Sep_19_1501,MP_PerceptionTuring2,59.94796678686422,
152,resources/videos_generated\model(vcgpdm)-dataset(walking)-mode(ELBO)-parts(2)-dyn(28)-lvm(21)_final(4).mov,resources/videos_natural\training(40).mov,True,False,right,0,151,151,151,2018-09-19 15:17:14.362538,2018-09-19 15:17:18.465773,0:00:04.103235,4,right,1,0.25045808009872417,29,m,2,11,2018_Sep_19_1501,MP_PerceptionTuring2,59.94796678686422,
153,resources/videos_generated\model(vcgpdm)-dataset(walking)-mode(ELBO)-parts(1)-dyn(24)-lvm(25)_final(9).mov,resources/videos_natural\training(28).mov,True,True,left,0,152,152,152,2018-09-19 15:17:19.833851,2018-09-19 15:17:23.737075,0:00:03.903224,4,right,0,0.35055084056602936,29,m,2,11,2018_Sep_19_1501,MP_PerceptionTuring2,59.94796678686422,
154,resources/videos_generated\model(vcgpdm)-dataset(walking)-mode(ELBO)-parts(2)-dyn(24)-lvm(21)_final(8).mov,resources/videos_natural\training(42).mov,False,True,left,0,153,153,153,2018-09-19 15:17:25.205158,2018-09-19 15:17:29.258390,0:00:04.053232,4,left,1,0.2671480372737278,29,m,2,11,2018_Sep_19_1501,MP_PerceptionTuring2,59.94796678686422,
155,resources/videos_generated\model(vcgpdm)-dataset(walking)-mode(ELBO)-parts(1)-dyn(22)-lvm(25)_final(5).mov,resources/videos_natural\training(11).mov,True,False,right,0,154,154,154,2018-09-19 15:17:30.642469,2018-09-19 15:17:34.546693,0:00:03.904224,4,right,1,0.31716339696049545,29,m,2,11,2018_Sep_19_1501,MP_PerceptionTuring2,59.94796678686422,
156,resources/videos_generated\model(vcgpdm)-dataset(walking)-mode(ELBO)-parts(2)-dyn(26)-lvm(19)_final(0).mov,resources/videos_natural\training(25).mov,False,True,left,0,155,155,155,2018-09-19 15:17:35.980775,2018-09-19 15:17:39.866997,0:00:03.886222,4,left,1,0.25037766761670355,29,m,2,11,2018_Sep_19_1501,MP_PerceptionTuring2,59.94796678686422,
157,resources/videos_generated\model(vcgpdm)-dataset(walking)-mode(ELBO)-parts(2)-dyn(27)-lvm(22)_final(2).mov,resources/videos_natural\training(9).mov,True,False,right,0,156,156,156,2018-09-19 15:17:41.235075,2018-09-19 15:17:45.155300,0:00:03.920225,4,right,1,0.25039302730419877,29,m,2,11,2018_Sep_19_1501,MP_PerceptionTuring2,59.94796678686422,
158,resources/videos_generated\model(vcgpdm)-dataset(walking)-mode(ELBO)-parts(1)-dyn(23)-lvm(26)_final(2).mov,resources/videos_natural\training(25).mov,False,False,right,0,157,157,157,2018-09-19 15:17:46.523378,2018-09-19 15:17:50.626613,0:00:04.103235,4,right,1,0.3005005451186662,29,m,2,11,2018_Sep_19_1501,MP_PerceptionTuring2,59.94796678686422,
159,resources/videos_generated\model(vcgpdm)-dataset(walking)-mode(ELBO)-parts(1)-dyn(27)-lvm(26)_final(2).mov,resources/videos_natural\training(18).mov,True,True,left,0,158,158,158,2018-09-19 15:17:52.044694,2018-09-19 15:17:55.981919,0:00:03.937225,4,left,1,0.28387503839985584,29,m,2,11,2018_Sep_19_1501,MP_PerceptionTuring2,59.94796678686422,
160,resources/videos_generated\model(vcgpdm)-dataset(walking)-mode(ELBO)-parts(2)-dyn(26)-lvm(19)_final(4).mov,resources/videos_natural\training(31).mov,False,True,left,0,159,159,159,2018-09-19 15:17:57.382999,2018-09-19 15:18:01.336225,0:00:03.953226,4,right,0,0.28373318716512586,29,m,2,11,2018_Sep_19_1501,MP_PerceptionTuring2,59.94796678686422,
161,resources/videos_generated\model(dmp)-dataset(walking)-npsi(70)_final(3).mov,resources/videos_natural\training(13).mov,False,False,right,0,160,160,160,2018-09-19 15:18:02.738305,2018-09-19 15:18:06.674530,0:00:03.936225,4,right,1,0.5006800426453992,29,m,2,11,2018_Sep_19_1501,MP_PerceptionTuring2,59.94796678686422,
162,resources/videos_generated\model(vcgpdm)-dataset(walking)-mode(ELBO)-parts(2)-dyn(28)-lvm(19)_final(6).mov,resources/videos_natural\training(17).mov,True,True,left,0,161,161,161,2018-09-19 15:18:08.291623,2018-09-19 15:18:12.295852,0:00:04.004229,4,left,1,0.24924436359742685,29,m,2,11,2018_Sep_19_1501,MP_PerceptionTuring2,59.94796678686422,
163,resources/videos_generated\model(vcgpdm)-dataset(walking)-mode(ELBO)-parts(1)-dyn(28)-lvm(23)_final(2).mov,resources/videos_natural\training(12).mov,True,False,right,0,162,162,162,2018-09-19 15:18:13.662930,2018-09-19 15:18:17.583154,0:00:03.920224,4,right,1,0.3004339864719441,29,m,2,11,2018_Sep_19_1501,MP_PerceptionTuring2,59.94796678686422,
164,resources/videos_generated\model(vcgpdm)-dataset(walking)-mode(ELBO)-parts(2)-dyn(26)-lvm(23)_final(0).mov,resources/videos_natural\training(21).mov,False,True,left,0,163,163,163,2018-09-19 15:18:19.001235,2018-09-19 15:18:22.888458,0:00:03.887223,4,left,1,0.25047313861614384,29,m,2,11,2018_Sep_19_1501,MP_PerceptionTuring2,59.94796678686422,
165,resources/videos_generated\model(vcgpdm)-dataset(walking)-mode(ELBO)-parts(2)-dyn(25)-lvm(20)_final(4).mov,resources/videos_natural\training(10).mov,False,True,left,0,164,164,164,2018-09-19 15:18:24.255536,2018-09-19 15:18:28.175760,0:00:03.920224,4,right,0,0.283959064926421,29,m,2,11,2018_Sep_19_1501,MP_PerceptionTuring2,59.94796678686422,
166,resources/videos_generated\model(vcgpdm)-dataset(walking)-mode(ELBO)-parts(1)-dyn(25)-lvm(26)_final(9).mov,resources/videos_natural\training(27).mov,False,True,left,0,165,165,165,2018-09-19 15:18:29.576840,2018-09-19 15:18:33.497065,0:00:03.920225,4,right,0,0.5173760232255518,29,m,2,11,2018_Sep_19_1501,MP_PerceptionTuring2,59.94796678686422,
167,resources/videos_generated\model(vcgpdm)-dataset(walking)-mode(ELBO)-parts(2)-dyn(26)-lvm(17)_final(0).mov,resources/videos_natural\training(47).mov,True,True,left,0,166,166,166,2018-09-19 15:18:35.132158,2018-09-19 15:18:39.068383,0:00:03.936225,4,left,1,0.11699805444004596,29,m,2,11,2018_Sep_19_1501,MP_PerceptionTuring2,59.94796678686422,
168,resources/videos_generated\model(vcgpdm)-dataset(walking)-mode(ELBO)-parts(2)-dyn(23)-lvm(20)_final(0).mov,resources/videos_natural\training(15).mov,False,True,left,0,167,167,167,2018-09-19 15:18:40.303454,2018-09-19 15:18:44.206677,0:00:03.903223,4,left,1,0.26703449605156493,29,m,2,11,2018_Sep_19_1501,MP_PerceptionTuring2,59.94796678686422,
169,resources/videos_generated\model(vcgpdm)-dataset(walking)-mode(ELBO)-parts(1)-dyn(27)-lvm(22)_final(4).mov,resources/videos_natural\training(28).mov,True,True,left,0,168,168,168,2018-09-19 15:18:45.590756,2018-09-19 15:18:49.510980,0:00:03.920224,4,left,1,0.2836557863856797,29,m,2,11,2018_Sep_19_1501,MP_PerceptionTuring2,59.94796678686422,
170,resources/videos_generated\model(dmp)-dataset(walking)-npsi(90)_final(3).mov,resources/videos_natural\training(7).mov,False,False,right,0,169,169,169,2018-09-19 15:18:50.912061,2018-09-19 15:18:54.849286,0:00:03.937225,4,left,0,0.23378047090955079,29,m,2,11,2018_Sep_19_1501,MP_PerceptionTuring2,59.94796678686422,
171,resources/videos_generated\model(vcgpdm)-dataset(walking)-mode(ELBO)-parts(1)-dyn(27)-lvm(28)_final(8).mov,resources/videos_natural\training(44).mov,False,True,left,0,170,170,170,2018-09-19 15:18:56.200363,2018-09-19 15:19:00.220593,0:00:04.020230,4,left,1,0.28375667845193675,29,m,2,11,2018_Sep_19_1501,MP_PerceptionTuring2,59.94796678686422,
172,resources/videos_generated\model(vcgpdm)-dataset(walking)-mode(ELBO)-parts(2)-dyn(22)-lvm(23)_final(2).mov,resources/videos_natural\training(43).mov,False,True,left,0,171,171,171,2018-09-19 15:19:01.621673,2018-09-19 15:19:05.574899,0:00:03.953226,4,left,1,0.2837440292978499,29,m,2,11,2018_Sep_19_1501,MP_PerceptionTuring2,59.94796678686422,
173,resources/videos_generated\model(vcgpdm)-dataset(walking)-mode(ELBO)-parts(2)-dyn(23)-lvm(22)_final(8).mov,resources/videos_natural\training(40).mov,True,True,left,0,172,172,172,2018-09-19 15:19:06.975979,2018-09-19 15:19:10.963207,0:00:03.987228,4,left,1,0.25053819141248823,29,m,2,11,2018_Sep_19_1501,MP_PerceptionTuring2,59.94796678686422,
174,resources/videos_generated\model(vcgpdm)-dataset(walking)-mode(ELBO)-parts(2)-dyn(23)-lvm(18)_final(4).mov,resources/videos_natural\training(46).mov,True,False,right,0,173,173,173,2018-09-19 15:19:12.330286,2018-09-19 15:19:16.250510,0:00:03.920224,4,left,0,0.21699474156594079,29,m,2,11,2018_Sep_19_1501,MP_PerceptionTuring2,59.94796678686422,
175,resources/videos_generated\model(vcgpdm)-dataset(walking)-mode(ELBO)-parts(1)-dyn(27)-lvm(28)_final(0).mov,resources/videos_natural\training(21).mov,False,False,right,0,174,174,174,2018-09-19 15:19:17.585586,2018-09-19 15:19:21.705822,0:00:04.120236,4,right,1,0.23378438612417085,29,m,2,11,2018_Sep_19_1501,MP_PerceptionTuring2,59.94796678686422,
176,resources/videos_generated\model(tmp)-dataset(walking)-numprim(11)_final(3).mov,resources/videos_natural\training(8).mov,True,False,right,0,175,175,175,2018-09-19 15:19:23.056899,2018-09-19 15:19:27.010125,0:00:03.953226,4,left,0,0.2337404152531235,29,m,2,11,2018_Sep_19_1501,MP_PerceptionTuring2,59.94796678686422,
177,resources/videos_generated\model(vcgpdm)-dataset(walking)-mode(ELBO)-parts(1)-dyn(22)-lvm(25)_final(3).mov,resources/videos_natural\training(25).mov,True,False,right,0,176,176,176,2018-09-19 15:19:28.361203,2018-09-19 15:19:32.265426,0:00:03.904223,4,right,1,0.2502026876436503,29,m,2,11,2018_Sep_19_1501,MP_PerceptionTuring2,59.94796678686422,
178,resources/videos_generated\model(dmp)-dataset(walking)-npsi(70)_final(7).mov,resources/videos_natural\training(6).mov,False,False,right,0,177,177,177,2018-09-19 15:19:33.632504,2018-09-19 15:19:37.552728,0:00:03.920224,4,left,0,0.2670528674425441,29,m,2,11,2018_Sep_19_1501,MP_PerceptionTuring2,59.94796678686422,
179,resources/videos_generated\model(vcgpdm)-dataset(walking)-mode(ELBO)-parts(1)-dyn(27)-lvm(22)_final(6).mov,resources/videos_natural\training(29).mov,True,True,left,0,178,178,178,2018-09-19 15:19:38.936807,2018-09-19 15:19:42.840031,0:00:03.903224,4,right,0,0.3338434155120922,29,m,2,11,2018_Sep_19_1501,MP_PerceptionTuring2,59.94796678686422,
180,resources/videos_generated\model(vcgpdm)-dataset(walking)-mode(ELBO)-parts(1)-dyn(24)-lvm(23)_final(1).mov,resources/videos_natural\training(27).mov,True,True,left,0,179,179,179,2018-09-19 15:19:44.292114,2018-09-19 15:19:48.195337,0:00:03.903223,4,left,1,0.36728537095132197,29,m,2,11,2018_Sep_19_1501,MP_PerceptionTuring2,59.94796678686422,
181,resources/videos_generated\model(vcgpdm)-dataset(walking)-mode(ELBO)-parts(2)-dyn(24)-lvm(23)_final(8).mov,resources/videos_natural\training(0).mov,False,False,right,0,180,180,180,2018-09-19 15:20:32.883893,2018-09-19 15:20:36.837119,0:00:03.953226,5,right,1,0.31725495274622517,29,m,2,11,2018_Sep_19_1501,MP_PerceptionTuring2,59.94796678686422,
182,resources/videos_generated\model(vcgpdm)-dataset(walking)-mode(ELBO)-parts(1)-dyn(25)-lvm(24)_final(8).mov,resources/videos_natural\training(28).mov,False,False,right,0,181,181,181,2018-09-19 15:20:38.271201,2018-09-19 15:20:42.175425,0:00:03.904224,5,right,1,0.2669372180298524,29,m,2,11,2018_Sep_19_1501,MP_PerceptionTuring2,59.94796678686422,
183,resources/videos_generated\model(vcgpdm)-dataset(walking)-mode(ELBO)-parts(2)-dyn(23)-lvm(20)_final(8).mov,resources/videos_natural\training(13).mov,False,False,right,0,182,182,182,2018-09-19 15:20:43.559504,2018-09-19 15:20:47.662738,0:00:04.103234,5,right,1,0.28383227221002016,29,m,2,11,2018_Sep_19_1501,MP_PerceptionTuring2,59.94796678686422,
184,resources/videos_generated\model(dmp)-dataset(walking)-npsi(50)_final(9).mov,resources/videos_natural\training(9).mov,True,False,right,0,183,183,183,2018-09-19 15:20:49.063819,2018-09-19 15:20:52.984043,0:00:03.920224,5,right,1,0.3172040549579833,29,m,2,11,2018_Sep_19_1501,MP_PerceptionTuring2,59.94796678686422,
185,resources/videos_generated\model(vcgpdm)-dataset(walking)-mode(ELBO)-parts(1)-dyn(25)-lvm(25)_final(0).mov,resources/videos_natural\training(14).mov,True,False,right,0,184,184,184,2018-09-19 15:20:54.419125,2018-09-19 15:20:58.505359,0:00:04.086234,5,right,1,0.5506381799677911,29,m,2,11,2018_Sep_19_1501,MP_PerceptionTuring2,59.94796678686422,
186,resources/videos_generated\model(vcgpdm)-dataset(walking)-mode(ELBO)-parts(2)-dyn(22)-lvm(17)_final(8).mov,resources/videos_natural\training(17).mov,False,True,left,0,185,185,185,2018-09-19 15:21:00.173454,2018-09-19 15:21:04.093678,0:00:03.920224,5,right,0,0.31715104897648416,29,m,2,11,2018_Sep_19_1501,MP_PerceptionTuring2,59.94796678686422,
187,resources/videos_generated\model(vcgpdm)-dataset(walking)-mode(ELBO)-parts(2)-dyn(28)-lvm(21)_final(2).mov,resources/videos_natural\training(38).mov,True,True,left,0,186,186,186,2018-09-19 15:21:05.528760,2018-09-19 15:21:09.631995,0:00:04.103235,5,left,1,0.35051680831656995,29,m,2,11,2018_Sep_19_1501,MP_PerceptionTuring2,59.94796678686422,
188,resources/videos_generated\model(vcgpdm)-dataset(walking)-mode(ELBO)-parts(2)-dyn(22)-lvm(17)_final(4).mov,resources/videos_natural\training(22).mov,False,False,right,0,187,187,187,2018-09-19 15:21:11.100079,2018-09-19 15:21:15.153311,0:00:04.053232,5,right,1,0.4506348670938678,29,m,2,11,2018_Sep_19_1501,MP_PerceptionTuring2,59.94796678686422,
189,resources/videos_generated\model(vcgpdm)-dataset(walking)-mode(ELBO)-parts(2)-dyn(22)-lvm(19)_final(4).mov,resources/videos_natural\training(36).mov,True,False,right,0,188,188,188,2018-09-19 15:21:16.721400,2018-09-19 15:21:20.658626,0:00:03.937226,5,right,1,0.3173763243967187,29,m,2,11,2018_Sep_19_1501,MP_PerceptionTuring2,59.94796678686422,
190,resources/videos_generated\model(vcgpdm)-dataset(walking)-mode(ELBO)-parts(1)-dyn(24)-lvm(27)_final(9).mov,resources/videos_natural\training(43).mov,True,False,right,0,189,189,189,2018-09-19 15:21:22.092708,2018-09-19 15:21:26.195942,0:00:04.103234,5,right,1,0.25057553653459763,29,m,2,11,2018_Sep_19_1501,MP_PerceptionTuring2,59.94796678686422,
191,resources/videos_generated\model(vcgpdm)-dataset(walking)-mode(ELBO)-parts(2)-dyn(27)-lvm(18)_final(2).mov,resources/videos_natural\training(46).mov,True,False,right,0,190,190,190,2018-09-19 15:21:27.564021,2018-09-19 15:21:31.617252,0:00:04.053231,5,right,1,0.4339286467211423,29,m,2,11,2018_Sep_19_1501,MP_PerceptionTuring2,59.94796678686422,
192,resources/videos_generated\model(dmp)-dataset(walking)-npsi(100)_final(9).mov,resources/videos_natural\training(43).mov,False,False,right,0,191,191,191,2018-09-19 15:21:33.169341,2018-09-19 15:21:37.089565,0:00:03.920224,5,left,0,0.4005990278228637,29,m,2,11,2018_Sep_19_1501,MP_PerceptionTuring2,59.94796678686422,
193,resources/videos_generated\model(vcgpdm)-dataset(walking)-mode(ELBO)-parts(2)-dyn(25)-lvm(22)_final(0).mov,resources/videos_natural\training(45).mov,False,False,right,0,192,192,192,2018-09-19 15:21:38.606652,2018-09-19 15:21:42.526876,0:00:03.920224,5,left,0,0.20044000987854815,29,m,2,11,2018_Sep_19_1501,MP_PerceptionTuring2,59.94796678686422,
194,resources/videos_generated\model(vcgpdm)-dataset(walking)-mode(ELBO)-parts(1)-dyn(26)-lvm(25)_final(6).mov,resources/videos_natural\training(43).mov,False,False,right,0,193,193,193,2018-09-19 15:21:43.844952,2018-09-19 15:21:47.748175,0:00:03.903223,5,right,1,0.30038248634173215,29,m,2,11,2018_Sep_19_1501,MP_PerceptionTuring2,59.94796678686422,
195,resources/videos_generated\model(vcgpdm)-dataset(walking)-mode(ELBO)-parts(1)-dyn(24)-lvm(25)_final(3).mov,resources/videos_natural\training(39).mov,False,True,left,0,194,194,194,2018-09-19 15:21:49.166256,2018-09-19 15:21:53.236489,0:00:04.070233,5,right,0,0.30061589336128236,29,m,2,11,2018_Sep_19_1501,MP_PerceptionTuring2,59.94796678686422,
196,resources/videos_generated\model(vcgpdm)-dataset(walking)-mode(ELBO)-parts(1)-dyn(25)-lvm(23)_final(2).mov,resources/videos_natural\training(20).mov,True,True,left,0,195,195,195,2018-09-19 15:21:54.654570,2018-09-19 15:21:58.557793,0:00:03.903223,5,left,1,0.30051259193260194,29,m,2,11,2018_Sep_19_1501,MP_PerceptionTuring2,59.94796678686422,
197,resources/videos_generated\model(vcgpdm)-dataset(walking)-mode(ELBO)-parts(1)-dyn(23)-lvm(24)_final(2).mov,resources/videos_natural\training(4).mov,False,False,right,0,196,196,196,2018-09-19 15:21:59.975874,2018-09-19 15:22:03.879098,0:00:03.903224,5,right,1,0.2671061745941188,29,m,2,11,2018_Sep_19_1501,MP_PerceptionTuring2,59.94796678686422,
198,resources/videos_generated\model(vcgpdm)-dataset(walking)-mode(ELBO)-parts(2)-dyn(26)-lvm(23)_final(4).mov,resources/videos_natural\training(25).mov,False,True,left,0,197,197,197,2018-09-19 15:22:05.263177,2018-09-19 15:22:09.167400,0:00:03.904223,5,left,1,0.3174067426016336,29,m,2,11,2018_Sep_19_1501,MP_PerceptionTuring2,59.94796678686422,
199,resources/videos_generated\model(vcgpdm)-dataset(walking)-mode(ELBO)-parts(1)-dyn(27)-lvm(28)_final(6).mov,resources/videos_natural\training(2).mov,True,True,left,0,198,198,198,2018-09-19 15:22:10.601482,2018-09-19 15:22:14.571709,0:00:03.970227,5,left,1,0.26710376523169543,29,m,2,11,2018_Sep_19_1501,MP_PerceptionTuring2,59.94796678686422,
200,resources/videos_generated\model(vcgpdm)-dataset(walking)-mode(ELBO)-parts(2)-dyn(28)-lvm(17)_final(8).mov,resources/videos_natural\training(5).mov,False,False,right,0,199,199,199,2018-09-19 15:22:15.955788,2018-09-19 15:22:19.893014,0:00:03.937226,5,right,1,0.2837133099228595,29,m,2,11,2018_Sep_19_1501,MP_PerceptionTuring2,59.94796678686422,
201,resources/videos_generated\model(vcgpdm)-dataset(walking)-mode(ELBO)-parts(1)-dyn(28)-lvm(27)_final(2).mov,resources/videos_natural\training(36).mov,True,False,right,0,200,200,200,2018-09-19 15:22:21.294094,2018-09-19 15:22:25.197317,0:00:03.903223,5,right,1,0.21715436185058934,29,m,2,11,2018_Sep_19_1501,MP_PerceptionTuring2,59.94796678686422,
202,resources/videos_generated\model(tmp)-dataset(walking)-numprim(14)_final(5).mov,resources/videos_natural\training(47).mov,True,True,left,0,201,201,201,2018-09-19 15:22:26.532393,2018-09-19 15:22:30.485620,0:00:03.953227,5,right,0,0.3171417126950473,29,m,2,11,2018_Sep_19_1501,MP_PerceptionTuring2,59.94796678686422,
203,resources/videos_generated\model(vcgpdm)-dataset(walking)-mode(ELBO)-parts(2)-dyn(25)-lvm(18)_final(0).mov,resources/videos_natural\training(25).mov,False,False,right,0,202,202,202,2018-09-19 15:22:31.919702,2018-09-19 15:22:35.906930,0:00:03.987228,5,right,1,0.6841346472392615,29,m,2,11,2018_Sep_19_1501,MP_PerceptionTuring2,59.94796678686422,
204,resources/videos_generated\model(dmp)-dataset(walking)-npsi(100)_final(3).mov,resources/videos_natural\training(3).mov,False,True,left,0,203,203,203,2018-09-19 15:22:37.708033,2018-09-19 15:22:41.761264,0:00:04.053231,5,left,1,0.28391810575885756,29,m,2,11,2018_Sep_19_1501,MP_PerceptionTuring2,59.94796678686422,
205,resources/videos_generated\model(dmp)-dataset(walking)-npsi(80)_final(9).mov,resources/videos_natural\training(29).mov,True,False,right,0,204,204,204,2018-09-19 15:22:43.163345,2018-09-19 15:22:47.183575,0:00:04.020230,5,right,1,0.16697365964137134,29,m,2,11,2018_Sep_19_1501,MP_PerceptionTuring2,59.94796678686422,
206,resources/videos_generated\model(vcgpdm)-dataset(walking)-mode(ELBO)-parts(2)-dyn(28)-lvm(19)_final(4).mov,resources/videos_natural\training(19).mov,True,False,right,0,205,205,205,2018-09-19 15:22:48.467648,2018-09-19 15:22:52.370871,0:00:03.903223,5,right,1,0.20041922912423615,29,m,2,11,2018_Sep_19_1501,MP_PerceptionTuring2,59.94796678686422,
207,resources/videos_generated\model(dmp)-dataset(walking)-npsi(50)_final(1).mov,resources/videos_natural\training(40).mov,False,True,left,0,206,206,206,2018-09-19 15:22:53.688947,2018-09-19 15:22:57.575169,0:00:03.886222,5,right,0,0.25173263301167026,29,m,2,11,2018_Sep_19_1501,MP_PerceptionTuring2,59.94796678686422,
208,resources/videos_generated\model(vcgpdm)-dataset(walking)-mode(ELBO)-parts(1)-dyn(28)-lvm(25)_final(6).mov,resources/videos_natural\training(11).mov,True,False,right,0,207,207,207,2018-09-19 15:22:58.943247,2018-09-19 15:23:02.963477,0:00:04.020230,5,right,1,0.250418927953433,29,m,2,11,2018_Sep_19_1501,MP_PerceptionTuring2,59.94796678686422,
209,resources/videos_generated\model(vcgpdm)-dataset(walking)-mode(ELBO)-parts(1)-dyn(22)-lvm(23)_final(1).mov,resources/videos_natural\training(26).mov,False,True,left,0,208,208,208,2018-09-19 15:23:04.331555,2018-09-19 15:23:08.234779,0:00:03.903224,5,left,1,0.2837714358001904,29,m,2,11,2018_Sep_19_1501,MP_PerceptionTuring2,59.94796678686422,
210,resources/videos_generated\model(vcgpdm)-dataset(walking)-mode(ELBO)-parts(1)-dyn(23)-lvm(28)_final(3)_hip-corrected.mov,resources/videos_natural\training(47).mov,True,False,right,0,209,209,209,2018-09-19 15:23:09.635859,2018-09-19 15:23:13.589085,0:00:03.953226,5,left,0,0.30061800155453966,29,m,2,11,2018_Sep_19_1501,MP_PerceptionTuring2,59.94796678686422,
211,resources/videos_generated\model(vcgpdm)-dataset(walking)-mode(ELBO)-parts(2)-dyn(26)-lvm(17)_final(4).mov,resources/videos_natural\training(6).mov,False,True,left,0,210,210,210,2018-09-19 15:23:15.007166,2018-09-19 15:23:19.010395,0:00:04.003229,5,right,0,0.43476830965119007,29,m,2,11,2018_Sep_19_1501,MP_PerceptionTuring2,59.94796678686422,
212,resources/videos_generated\model(dmp)-dataset(walking)-npsi(90)_final(5).mov,resources/videos_natural\training(11).mov,False,True,left,0,211,211,211,2018-09-19 15:23:20.563484,2018-09-19 15:23:24.498709,0:00:03.935225,5,right,0,0.31722423337123473,29,m,2,11,2018_Sep_19_1501,MP_PerceptionTuring2,59.94796678686422,
213,resources/videos_generated\model(vcgpdm)-dataset(walking)-mode(ELBO)-parts(2)-dyn(25)-lvm(18)_final(8).mov,resources/videos_natural\training(11).mov,False,True,left,0,212,212,212,2018-09-19 15:23:25.932791,2018-09-19 15:23:29.837014,0:00:03.904223,5,left,1,0.283844921364107,29,m,2,11,2018_Sep_19_1501,MP_PerceptionTuring2,59.94796678686422,
214,resources/videos_generated\model(vcgpdm)-dataset(walking)-mode(ELBO)-parts(2)-dyn(24)-lvm(19)_final(0).mov,resources/videos_natural\training(1).mov,True,True,left,0,213,213,213,2018-09-19 15:23:31.238094,2018-09-19 15:23:35.141318,0:00:03.903224,5,right,0,0.3172266427336581,29,m,2,11,2018_Sep_19_1501,MP_PerceptionTuring2,59.94796678686422,
215,resources/videos_generated\model(vcgpdm)-dataset(walking)-mode(ELBO)-parts(1)-dyn(26)-lvm(25)_final(8).mov,resources/videos_natural\training(44).mov,False,False,right,0,214,214,214,2018-09-19 15:23:36.575400,2018-09-19 15:23:40.495624,0:00:03.920224,5,right,1,0.45059571494857664,29,m,2,11,2018_Sep_19_1501,MP_PerceptionTuring2,59.94796678686422,
216,resources/videos_generated\model(tmp)-dataset(walking)-numprim(13)_final(3).mov,resources/videos_natural\training(4).mov,False,False,right,0,215,215,215,2018-09-19 15:23:42.063714,2018-09-19 15:23:46.100944,0:00:04.037230,5,right,1,0.25040808582161844,29,m,2,11,2018_Sep_19_1501,MP_PerceptionTuring2,59.94796678686422,
217,resources/videos_generated\model(vcgpdm)-dataset(walking)-mode(ELBO)-parts(1)-dyn(28)-lvm(24)_final(0).mov,resources/videos_natural\training(31).mov,True,True,left,0,216,216,216,2018-09-19 15:23:47.468023,2018-09-19 15:23:51.505254,0:00:04.037231,5,right,0,0.26712183545259904,29,m,2,11,2018_Sep_19_1501,MP_PerceptionTuring2,59.94796678686422,
218,resources/videos_generated\model(vcgpdm)-dataset(walking)-mode(ELBO)-parts(2)-dyn(23)-lvm(18)_final(0).mov,resources/videos_natural\training(2).mov,False,False,right,0,217,217,217,2018-09-19 15:23:52.889333,2018-09-19 15:23:56.793556,0:00:03.904223,5,left,0,0.18366030394099653,29,m,2,11,2018_Sep_19_1501,MP_PerceptionTuring2,59.94796678686422,
219,resources/videos_generated\model(vcgpdm)-dataset(walking)-mode(ELBO)-parts(2)-dyn(26)-lvm(19)_final(2).mov,resources/videos_natural\training(10).mov,True,True,left,0,218,218,218,2018-09-19 15:23:58.094630,2018-09-19 15:24:01.980853,0:00:03.886223,5,right,0,0.23381540667014633,29,m,2,11,2018_Sep_19_1501,MP_PerceptionTuring2,59.94796678686422,
220,resources/videos_generated\model(vcgpdm)-dataset(walking)-mode(ELBO)-parts(2)-dyn(22)-lvm(21)_final(8).mov,resources/videos_natural\training(2).mov,False,True,left,0,219,219,219,2018-09-19 15:24:03.331930,2018-09-19 15:24:07.235153,0:00:03.903223,5,left,1,0.1837175263071913,29,m,2,11,2018_Sep_19_1501,MP_PerceptionTuring2,59.94796678686422,
221,resources/videos_generated\model(vcgpdm)-dataset(walking)-mode(ELBO)-parts(2)-dyn(25)-lvm(22)_final(8).mov,resources/videos_natural\training(44).mov,False,False,right,0,220,220,220,2018-09-19 15:24:08.536228,2018-09-19 15:24:12.506455,0:00:03.970227,5,right,1,0.7510034995993919,29,m,2,11,2018_Sep_19_1501,MP_PerceptionTuring2,59.94796678686422,
222,resources/videos_generated\model(vcgpdm)-dataset(walking)-mode(ELBO)-parts(1)-dyn(23)-lvm(27)_final(7).mov,resources/videos_natural\training(18).mov,False,False,right,0,221,221,221,2018-09-19 15:24:14.374562,2018-09-19 15:24:18.294786,0:00:03.920224,5,right,1,0.25056318855058635,29,m,2,11,2018_Sep_19_1501,MP_PerceptionTuring2,59.94796678686422,
223,resources/videos_generated\model(vcgpdm)-dataset(walking)-mode(ELBO)-parts(1)-dyn(22)-lvm(27)_final(1)_fail.mov,resources/videos_natural\training(21).mov,False,False,right,0,222,222,222,2018-09-19 15:24:19.662864,2018-09-19 15:24:23.633091,0:00:03.970227,5,right,1,0.2503674278241306,29,m,2,11,2018_Sep_19_1501,MP_PerceptionTuring2,59.94796678686422,
224,resources/videos_generated\model(tmp)-dataset(walking)-numprim(12)_final(7).mov,resources/videos_natural\training(11).mov,True,False,right,0,223,223,223,2018-09-19 15:24:25.001169,2018-09-19 15:24:29.121405,0:00:04.120236,5,right,1,0.584118986381327,29,m,2,11,2018_Sep_19_1501,MP_PerceptionTuring2,59.94796678686422,
225,resources/videos_generated\model(vcgpdm)-dataset(walking)-mode(ELBO)-parts(2)-dyn(27)-lvm(22)_final(4).mov,resources/videos_natural\training(37).mov,True,False,right,0,224,224,224,2018-09-19 15:24:30.822502,2018-09-19 15:24:34.759728,0:00:03.937226,5,right,1,0.26713026822199026,29,m,2,11,2018_Sep_19_1501,MP_PerceptionTuring2,59.94796678686422,
226,resources/videos_generated\model(vcgpdm)-dataset(walking)-mode(ELBO)-parts(1)-dyn(26)-lvm(25)_final(4).mov,resources/videos_natural\training(33).mov,False,True,left,0,225,225,225,2018-09-19 15:25:16.996143,2018-09-19 15:25:20.966370,0:00:03.970227,6,left,1,0.3004644046759495,29,m,2,11,2018_Sep_19_1501,MP_PerceptionTuring2,59.94796678686422,
227,resources/videos_generated\model(vcgpdm)-dataset(walking)-mode(ELBO)-parts(1)-dyn(26)-lvm(27)_final(0).mov,resources/videos_natural\training(15).mov,True,True,left,0,226,226,226,2018-09-19 15:25:22.383452,2018-09-19 15:25:26.270674,0:00:03.887222,6,left,1,0.2504120010362385,29,m,2,11,2018_Sep_19_1501,MP_PerceptionTuring2,59.94796678686422,
228,resources/videos_generated\model(vcgpdm)-dataset(walking)-mode(ELBO)-parts(1)-dyn(23)-lvm(27)_final(0).mov,resources/videos_natural\training(12).mov,True,True,left,0,227,227,227,2018-09-19 15:25:27.638752,2018-09-19 15:25:31.541975,0:00:03.903223,6,left,1,0.2003933284740924,29,m,2,11,2018_Sep_19_1501,MP_PerceptionTuring2,59.94796678686422,
229,resources/videos_generated\model(tmp)-dataset(walking)-numprim(15)_final(7).mov,resources/videos_natural\training(30).mov,True,True,left,0,228,228,228,2018-09-19 15:25:32.859051,2018-09-19 15:25:36.946284,0:00:04.087233,6,left,1,0.033626874032052,29,m,2,11,2018_Sep_19_1501,MP_PerceptionTuring2,59.94796678686422,
230,resources/videos_generated\model(vcgpdm)-dataset(walking)-mode(ELBO)-parts(1)-dyn(28)-lvm(27)_final(4).mov,resources/videos_natural\training(48).mov,False,False,right,0,229,229,229,2018-09-19 15:25:38.097350,2018-09-19 15:25:42.000574,0:00:03.903224,6,right,1,0.2503379131303518,29,m,2,11,2018_Sep_19_1501,MP_PerceptionTuring2,59.94796678686422,
231,resources/videos_generated\model(vcgpdm)-dataset(walking)-mode(ELBO)-parts(2)-dyn(28)-lvm(21)_final(0).mov,resources/videos_natural\training(1).mov,False,False,right,0,230,230,230,2018-09-19 15:25:43.368652,2018-09-19 15:25:47.305877,0:00:03.937225,6,right,1,0.23398466440539778,29,m,2,11,2018_Sep_19_1501,MP_PerceptionTuring2,59.94796678686422,
232,resources/videos_generated\model(vcgpdm)-dataset(walking)-mode(ELBO)-parts(1)-dyn(22)-lvm(27)_final(7)_hip-corrected.mov,resources/videos_natural\training(38).mov,False,False,right,0,231,231,231,2018-09-19 15:25:48.655954,2018-09-19 15:25:52.677184,0:00:04.021230,6,right,1,0.250415615080783,29,m,2,11,2018_Sep_19_1501,MP_PerceptionTuring2,59.94796678686422,
233,resources/videos_generated\model(vcgpdm)-dataset(walking)-mode(ELBO)-parts(1)-dyn(26)-lvm(25)_final(2).mov,resources/videos_natural\training(23).mov,True,False,right,0,232,232,232,2018-09-19 15:25:54.044262,2018-09-19 15:25:58.131496,0:00:04.087234,6,right,1,0.31730825989870937,29,m,2,11,2018_Sep_19_1501,MP_PerceptionTuring2,59.94796678686422,
234,resources/videos_generated\model(vcgpdm)-dataset(walking)-mode(ELBO)-parts(1)-dyn(23)-lvm(24)_final(4).mov,resources/videos_natural\training(40).mov,True,False,right,0,233,233,233,2018-09-19 15:25:59.565578,2018-09-19 15:26:03.485802,0:00:03.920224,6,right,1,0.3171667098340549,29,m,2,11,2018_Sep_19_1501,MP_PerceptionTuring2,59.94796678686422,
235,resources/videos_generated\model(vcgpdm)-dataset(walking)-mode(ELBO)-parts(1)-dyn(25)-lvm(28)_final(1).mov,resources/videos_natural\training(39).mov,True,False,right,0,234,234,234,2018-09-19 15:26:04.920885,2018-09-19 15:26:08.841109,0:00:03.920224,6,right,1,0.5673808419523994,29,m,2,11,2018_Sep_19_1501,MP_PerceptionTuring2,59.94796678686422,
236,resources/videos_generated\model(vcgpdm)-dataset(walking)-mode(ELBO)-parts(1)-dyn(28)-lvm(23)_final(0).mov,resources/videos_natural\training(26).mov,False,False,right,0,235,235,235,2018-09-19 15:26:10.525205,2018-09-19 15:26:14.412427,0:00:03.887222,6,right,1,0.5006929929704711,29,m,2,11,2018_Sep_19_1501,MP_PerceptionTuring2,59.94796678686422,
237,resources/videos_generated\model(vcgpdm)-dataset(walking)-mode(ELBO)-parts(2)-dyn(24)-lvm(23)_final(4).mov,resources/videos_natural\training(5).mov,False,True,left,0,236,236,236,2018-09-19 15:26:16.030520,2018-09-19 15:26:19.966745,0:00:03.936225,6,right,0,0.2503614044180722,29,m,2,11,2018_Sep_19_1501,MP_PerceptionTuring2,59.94796678686422,
238,resources/videos_generated\model(vcgpdm)-dataset(walking)-mode(ELBO)-parts(1)-dyn(25)-lvm(24)_final(2).mov,resources/videos_natural\training(1).mov,True,False,right,0,237,237,237,2018-09-19 15:26:21.334823,2018-09-19 15:26:25.438058,0:00:04.103235,6,right,1,0.2673416898069263,29,m,2,11,2018_Sep_19_1501,MP_PerceptionTuring2,59.94796678686422,
239,resources/videos_generated\model(vcgpdm)-dataset(walking)-mode(ELBO)-parts(1)-dyn(25)-lvm(22)_final(9).mov,resources/videos_natural\training(23).mov,False,False,right,0,238,238,238,2018-09-19 15:26:26.823137,2018-09-19 15:26:30.742361,0:00:03.919224,6,right,1,0.3003671266542369,29,m,2,11,2018_Sep_19_1501,MP_PerceptionTuring2,59.94796678686422,
240,resources/videos_generated\model(vcgpdm)-dataset(walking)-mode(ELBO)-parts(1)-dyn(27)-lvm(22)_final(0).mov,resources/videos_natural\training(41).mov,False,False,right,0,239,239,239,2018-09-19 15:26:32.160443,2018-09-19 15:26:36.097668,0:00:03.937225,6,right,1,0.5007134725547076,29,m,2,11,2018_Sep_19_1501,MP_PerceptionTuring2,59.94796678686422,
241,resources/videos_generated\model(vcgpdm)-dataset(walking)-mode(ELBO)-parts(2)-dyn(28)-lvm(17)_final(0).mov,resources/videos_natural\training(46).mov,True,True,left,0,240,240,240,2018-09-19 15:26:37.715760,2018-09-19 15:26:41.618984,0:00:03.903224,6,left,1,0.25047524680940114,29,m,2,11,2018_Sep_19_1501,MP_PerceptionTuring2,59.94796678686422,
242,resources/videos_generated\model(vcgpdm)-dataset(walking)-mode(ELBO)-parts(1)-dyn(26)-lvm(23)_final(6)_fail.mov,resources/videos_natural\training(6).mov,True,True,left,0,241,241,241,2018-09-19 15:26:42.987062,2018-09-19 15:26:46.907286,0:00:03.920224,6,left,1,0.28377745920624875,29,m,2,11,2018_Sep_19_1501,MP_PerceptionTuring2,59.94796678686422,
243,resources/videos_generated\model(vcgpdm)-dataset(walking)-mode(ELBO)-parts(2)-dyn(28)-lvm(23)_final(8).mov,resources/videos_natural\training(26).mov,False,False,right,0,242,242,242,2018-09-19 15:26:48.308366,2018-09-19 15:26:52.227590,0:00:03.919224,6,right,1,0.21712334130461386,29,m,2,11,2018_Sep_19_1501,MP_PerceptionTuring2,59.94796678686422,
244,resources/videos_generated\model(tmp)-dataset(walking)-numprim(13)_final(9).mov,resources/videos_natural\training(46).mov,False,False,right,0,243,243,243,2018-09-19 15:26:53.562667,2018-09-19 15:26:57.465890,0:00:03.903223,6,left,0,0.26753805287353316,29,m,2,11,2018_Sep_19_1501,MP_PerceptionTuring2,59.94796678686422,
245,resources/videos_generated\model(vcgpdm)-dataset(walking)-mode(ELBO)-parts(2)-dyn(23)-lvm(22)_final(0).mov,resources/videos_natural\training(32).mov,False,True,left,0,244,244,244,2018-09-19 15:26:58.849969,2018-09-19 15:27:02.754192,0:00:03.904223,6,left,1,0.2336711460739025,29,m,2,11,2018_Sep_19_1501,MP_PerceptionTuring2,59.94796678686422,
246,resources/videos_generated\model(vcgpdm)-dataset(walking)-mode(ELBO)-parts(1)-dyn(25)-lvm(22)_final(5).mov,resources/videos_natural\training(41).mov,False,True,left,0,245,245,245,2018-09-19 15:27:04.105270,2018-09-19 15:27:08.025494,0:00:03.920224,6,left,1,0.2504647058476621,29,m,2,11,2018_Sep_19_1501,MP_PerceptionTuring2,59.94796678686422,
247,resources/videos_generated\model(vcgpdm)-dataset(walking)-mode(ELBO)-parts(1)-dyn(24)-lvm(25)_final(7).mov,resources/videos_natural\training(42).mov,False,False,right,0,246,246,246,2018-09-19 15:27:09.392572,2018-09-19 15:27:13.412802,0:00:04.020230,6,right,1,0.23380215517499892,29,m,2,11,2018_Sep_19_1501,MP_PerceptionTuring2,59.94796678686422,
248,resources/videos_generated\model(vcgpdm)-dataset(walking)-mode(ELBO)-parts(1)-dyn(27)-lvm(24)_final(4).mov,resources/videos_natural\training(37).mov,False,False,right,0,247,247,247,2018-09-19 15:27:14.763879,2018-09-19 15:27:18.651102,0:00:03.887223,6,right,1,0.23380185400492337,29,m,2,11,2018_Sep_19_1501,MP_PerceptionTuring2,59.94796678686422,
249,resources/videos_generated\model(dmp)-dataset(walking)-npsi(50)_final(5).mov,resources/videos_natural\training(27).mov,False,True,left,0,248,248,248,2018-09-19 15:27:20.002179,2018-09-19 15:27:23.972406,0:00:03.970227,6,right,0,0.26712725651850633,29,m,2,11,2018_Sep_19_1501,MP_PerceptionTuring2,59.94796678686422,
250,resources/videos_generated\model(vcgpdm)-dataset(walking)-mode(ELBO)-parts(2)-dyn(22)-lvm(21)_final(6).mov,resources/videos_natural\training(19).mov,False,False,right,0,249,249,249,2018-09-19 15:27:25.356485,2018-09-19 15:27:29.460720,0:00:04.104235,6,left,0,0.567485348063201,29,m,2,11,2018_Sep_19_1501,MP_PerceptionTuring2,59.94796678686422,
251,resources/videos_generated\model(vcgpdm)-dataset(walking)-mode(ELBO)-parts(1)-dyn(23)-lvm(28)_final(7).mov,resources/videos_natural\training(38).mov,False,True,left,0,250,250,250,2018-09-19 15:27:31.144816,2018-09-19 15:27:35.082041,0:00:03.937225,6,right,0,0.2336946373607134,29,m,2,11,2018_Sep_19_1501,MP_PerceptionTuring2,59.94796678686422,
252,resources/videos_generated\model(tmp)-dataset(walking)-numprim(11)_final(1).mov,resources/videos_natural\training(48).mov,False,False,right,0,251,251,251,2018-09-19 15:27:36.433119,2018-09-19 15:27:40.469350,0:00:04.036231,6,right,1,0.2171209319421905,29,m,2,11,2018_Sep_19_1501,MP_PerceptionTuring2,59.94796678686422,
253,resources/videos_generated\model(vcgpdm)-dataset(walking)-mode(ELBO)-parts(2)-dyn(23)-lvm(22)_final(2).mov,resources/videos_natural\training(1).mov,True,True,left,0,252,252,252,2018-09-19 15:27:41.804426,2018-09-19 15:27:45.774653,0:00:03.970227,6,left,1,0.25044332275228953,29,m,2,11,2018_Sep_19_1501,MP_PerceptionTuring2,59.94796678686422,
254,resources/videos_generated\model(tmp)-dataset(walking)-numprim(13)_final(1).mov,resources/videos_natural\training(38).mov,False,True,left,0,253,253,253,2018-09-19 15:27:47.141731,2018-09-19 15:27:51.045955,0:00:03.904224,6,right,0,0.23365006414951495,29,m,2,11,2018_Sep_19_1501,MP_PerceptionTuring2,59.94796678686422,
255,resources/videos_generated\model(vcgpdm)-dataset(walking)-mode(ELBO)-parts(1)-dyn(24)-lvm(23)_final(7).mov,resources/videos_natural\training(29).mov,False,False,right,0,254,254,254,2018-09-19 15:27:52.397032,2018-09-19 15:27:56.317256,0:00:03.920224,6,right,1,0.2170793704335665,29,m,2,11,2018_Sep_19_1501,MP_PerceptionTuring2,59.94796678686422,
256,resources/videos_generated\model(vcgpdm)-dataset(walking)-mode(ELBO)-parts(2)-dyn(24)-lvm(21)_final(2).mov,resources/videos_natural\training(24).mov,True,True,left,0,255,255,255,2018-09-19 15:27:57.651332,2018-09-19 15:28:01.571557,0:00:03.920225,6,right,0,0.31623579228835297,29,m,2,11,2018_Sep_19_1501,MP_PerceptionTuring2,59.94796678686422,
257,resources/videos_generated\model(vcgpdm)-dataset(walking)-mode(ELBO)-parts(1)-dyn(27)-lvm(24)_final(8).mov,resources/videos_natural\training(46).mov,False,True,left,0,256,256,256,2018-09-19 15:28:03.005639,2018-09-19 15:28:06.942864,0:00:03.937225,6,left,1,0.26721188538613205,29,m,2,11,2018_Sep_19_1501,MP_PerceptionTuring2,59.94796678686422,
258,resources/videos_generated\model(vcgpdm)-dataset(walking)-mode(ELBO)-parts(2)-dyn(26)-lvm(23)_final(8).mov,resources/videos_natural\training(14).mov,False,True,left,0,257,257,257,2018-09-19 15:28:08.326943,2018-09-19 15:28:12.414177,0:00:04.087234,6,right,0,0.11691914780840307,29,m,2,11,2018_Sep_19_1501,MP_PerceptionTuring2,59.94796678686422,
259,resources/videos_generated\model(vcgpdm)-dataset(walking)-mode(ELBO)-parts(1)-dyn(28)-lvm(25)_final(0).mov,resources/videos_natural\training(21).mov,True,False,right,0,258,258,258,2018-09-19 15:28:13.648247,2018-09-19 15:28:17.568472,0:00:03.920225,6,left,0,0.2673450026804858,29,m,2,11,2018_Sep_19_1501,MP_PerceptionTuring2,59.94796678686422,
260,resources/videos_generated\model(vcgpdm)-dataset(walking)-mode(ELBO)-parts(2)-dyn(23)-lvm(18)_final(6).mov,resources/videos_natural\training(12).mov,False,True,left,0,259,259,259,2018-09-19 15:28:18.952551,2018-09-19 15:28:22.872775,0:00:03.920224,6,left,1,0.11712394364531065,29,m,2,11,2018_Sep_19_1501,MP_PerceptionTuring2,59.94796678686422,
261,resources/videos_generated\model(vcgpdm)-dataset(walking)-mode(ELBO)-parts(1)-dyn(27)-lvm(24)_final(0).mov,resources/videos_natural\training(37).mov,True,False,right,0,260,260,260,2018-09-19 15:28:24.107846,2018-09-19 15:28:28.027070,0:00:03.919224,6,right,1,0.25051530246491893,29,m,2,11,2018_Sep_19_1501,MP_PerceptionTuring2,59.94796678686422,
262,resources/videos_generated\model(dmp)-dataset(walking)-npsi(70)_final(9).mov,resources/videos_natural\training(14).mov,False,True,left,0,261,261,261,2018-09-19 15:28:29.395148,2018-09-19 15:28:33.315372,0:00:03.920224,6,right,0,0.36723116028861114,29,m,2,11,2018_Sep_19_1501,MP_PerceptionTuring2,59.94796678686422,
263,resources/videos_generated\model(vcgpdm)-dataset(walking)-mode(ELBO)-parts(2)-dyn(22)-lvm(19)_final(2).mov,resources/videos_natural\training(26).mov,False,True,left,0,262,262,262,2018-09-19 15:28:34.800457,2018-09-19 15:28:38.736682,0:00:03.936225,6,left,1,0.16706160138255655,29,m,2,11,2018_Sep_19_1501,MP_PerceptionTuring2,59.94796678686422,
264,resources/videos_generated\model(tmp)-dataset(walking)-numprim(11)_final(5).mov,resources/videos_natural\training(19).mov,False,True,left,0,263,263,263,2018-09-19 15:28:40.020756,2018-09-19 15:28:43.974982,0:00:03.954226,6,right,0,0.23367988001336926,29,m,2,11,2018_Sep_19_1501,MP_PerceptionTuring2,59.94796678686422,
265,resources/videos_generated\model(vcgpdm)-dataset(walking)-mode(ELBO)-parts(2)-dyn(24)-lvm(23)_final(0).mov,resources/videos_natural\training(17).mov,True,True,left,0,264,264,264,2018-09-19 15:28:45.326059,2018-09-19 15:28:49.362290,0:00:04.036231,6,left,1,0.2837624006888291,29,m,2,11,2018_Sep_19_1501,MP_PerceptionTuring2,59.94796678686422,
266,resources/videos_generated\model(vcgpdm)-dataset(walking)-mode(ELBO)-parts(1)-dyn(23)-lvm(22)_final(6)_fail.mov,resources/videos_natural\training(7).mov,True,False,right,0,265,265,265,2018-09-19 15:28:50.763370,2018-09-19 15:28:54.683594,0:00:03.920224,6,right,1,0.26720556080908864,29,m,2,11,2018_Sep_19_1501,MP_PerceptionTuring2,59.94796678686422,
267,resources/videos_generated\model(vcgpdm)-dataset(walking)-mode(ELBO)-parts(1)-dyn(22)-lvm(23)_final(7).mov,resources/videos_natural\training(7).mov,True,False,right,0,266,266,266,2018-09-19 15:28:56.068674,2018-09-19 15:29:00.004899,0:00:03.936225,6,right,1,0.26713508694774646,29,m,2,11,2018_Sep_19_1501,MP_PerceptionTuring2,59.94796678686422,
268,resources/videos_generated\model(vcgpdm)-dataset(walking)-mode(ELBO)-parts(2)-dyn(22)-lvm(17)_final(6).mov,resources/videos_natural\training(13).mov,True,True,left,0,267,267,267,2018-09-19 15:29:01.389978,2018-09-19 15:29:05.460211,0:00:04.070233,6,right,0,0.21704684403539432,29,m,2,11,2018_Sep_19_1501,MP_PerceptionTuring2,59.94796678686422,
269,resources/videos_generated\model(vcgpdm)-dataset(walking)-mode(ELBO)-parts(2)-dyn(26)-lvm(21)_final(0).mov,resources/videos_natural\training(35).mov,True,True,left,0,268,268,268,2018-09-19 15:29:06.794287,2018-09-19 15:29:10.681509,0:00:03.887222,6,left,1,0.25047193393493217,29,m,2,11,2018_Sep_19_1501,MP_PerceptionTuring2,59.94796678686422,
270,resources/videos_generated\model(vcgpdm)-dataset(walking)-mode(ELBO)-parts(1)-dyn(26)-lvm(23)_final(0).mov,resources/videos_natural\training(39).mov,True,False,right,0,269,269,269,2018-09-19 15:29:12.048588,2018-09-19 15:29:15.951811,0:00:03.903223,6,right,1,0.20047193393475027,29,m,2,11,2018_Sep_19_1501,MP_PerceptionTuring2,59.94796678686422,
271,resources/videos_generated\model(vcgpdm)-dataset(walking)-mode(ELBO)-parts(1)-dyn(23)-lvm(24)_final(6).mov,resources/videos_natural\training(13).mov,True,False,right,0,270,270,270,2018-09-19 15:29:55.920097,2018-09-19 15:29:59.823320,0:00:03.903223,7,right,1,0.31722844975593034,29,m,2,11,2018_Sep_19_1501,MP_PerceptionTuring2,59.94796678686422,
272,resources/videos_generated\model(vcgpdm)-dataset(walking)-mode(ELBO)-parts(1)-dyn(26)-lvm(27)_final(6).mov,resources/videos_natural\training(20).mov,False,False,right,0,271,271,271,2018-09-19 15:30:01.258402,2018-09-19 15:30:05.161626,0:00:03.903224,7,right,1,0.23379763761931827,29,m,2,11,2018_Sep_19_1501,MP_PerceptionTuring2,59.94796678686422,
273,resources/videos_generated\model(vcgpdm)-dataset(walking)-mode(ELBO)-parts(2)-dyn(26)-lvm(21)_final(4).mov,resources/videos_natural\training(5).mov,True,False,right,0,272,272,272,2018-09-19 15:30:06.512703,2018-09-19 15:30:10.432927,0:00:03.920224,7,right,1,0.2838428131717592,29,m,2,11,2018_Sep_19_1501,MP_PerceptionTuring2,59.94796678686422,
274,resources/videos_generated\model(vcgpdm)-dataset(walking)-mode(ELBO)-parts(2)-dyn(26)-lvm(17)_final(6).mov,resources/videos_natural\training(34).mov,False,False,right,0,273,273,273,2018-09-19 15:30:11.834007,2018-09-19 15:30:15.720229,0:00:03.886222,7,right,1,0.2502840036377165,29,m,2,11,2018_Sep_19_1501,MP_PerceptionTuring2,59.94796678686422,
275,resources/videos_generated\model(vcgpdm)-dataset(walking)-mode(ELBO)-parts(2)-dyn(28)-lvm(21)_final(6).mov,resources/videos_natural\training(31).mov,False,True,left,0,274,274,274,2018-09-19 15:30:17.088308,2018-09-19 15:30:21.025533,0:00:03.937225,7,left,1,0.283938585343094,29,m,2,11,2018_Sep_19_1501,MP_PerceptionTuring2,59.94796678686422,
276,resources/videos_generated\model(vcgpdm)-dataset(walking)-mode(ELBO)-parts(1)-dyn(25)-lvm(28)_final(7).mov,resources/videos_natural\training(14).mov,False,False,right,0,275,275,275,2018-09-19 15:30:22.426613,2018-09-19 15:30:26.346837,0:00:03.920224,7,right,1,0.23376149717842054,29,m,2,11,2018_Sep_19_1501,MP_PerceptionTuring2,59.94796678686422,
277,resources/videos_generated\model(vcgpdm)-dataset(walking)-mode(ELBO)-parts(1)-dyn(26)-lvm(25)_final(0).mov,resources/videos_natural\training(41).mov,False,False,right,0,276,276,276,2018-09-19 15:30:27.697915,2018-09-19 15:30:31.601138,0:00:03.903223,7,right,1,0.2661960378027288,29,m,2,11,2018_Sep_19_1501,MP_PerceptionTuring2,59.94796678686422,
278,resources/videos_generated\model(vcgpdm)-dataset(walking)-mode(ELBO)-parts(2)-dyn(24)-lvm(19)_final(8).mov,resources/videos_natural\training(41).mov,False,True,left,0,277,277,277,2018-09-19 15:30:32.985217,2018-09-19 15:30:36.922442,0:00:03.937225,7,left,1,0.05029394225948636,29,m,2,11,2018_Sep_19_1501,MP_PerceptionTuring2,59.94796678686422,
279,resources/videos_generated\model(vcgpdm)-dataset(walking)-mode(ELBO)-parts(1)-dyn(23)-lvm(22)_final(4)_fail.mov,resources/videos_natural\training(21).mov,False,True,left,0,278,278,278,2018-09-19 15:30:38.089509,2018-09-19 15:30:42.193744,0:00:04.104235,7,left,1,0.2663309621184453,29,m,2,11,2018_Sep_19_1501,MP_PerceptionTuring2,59.94796678686422,
280,resources/videos_generated\model(tmp)-dataset(walking)-numprim(13)_final(5).mov,resources/videos_natural\training(15).mov,True,False,right,0,279,279,279,2018-09-19 15:30:43.577823,2018-09-19 15:30:47.515048,0:00:03.937225,7,left,0,0.2838295616766118,29,m,2,11,2018_Sep_19_1501,MP_PerceptionTuring2,59.94796678686422,
281,resources/videos_generated\model(vcgpdm)-dataset(walking)-mode(ELBO)-parts(1)-dyn(28)-lvm(23)_final(8).mov,resources/videos_natural\training(44).mov,False,True,left,0,280,280,280,2018-09-19 15:30:48.916128,2018-09-19 15:30:52.836352,0:00:03.920224,7,left,1,0.33376842409597884,29,m,2,11,2018_Sep_19_1501,MP_PerceptionTuring2,59.94796678686422,
282,resources/videos_generated\model(vcgpdm)-dataset(walking)-mode(ELBO)-parts(1)-dyn(25)-lvm(25)_final(7).mov,resources/videos_natural\training(14).mov,True,True,left,0,281,281,281,2018-09-19 15:30:54.287435,2018-09-19 15:30:58.207660,0:00:03.920225,7,left,1,0.267145627910395,29,m,2,11,2018_Sep_19_1501,MP_PerceptionTuring2,59.94796678686422,
283,resources/videos_generated\model(vcgpdm)-dataset(walking)-mode(ELBO)-parts(1)-dyn(27)-lvm(24)_final(2).mov,resources/videos_natural\training(40).mov,True,True,left,0,282,282,282,2018-09-19 15:30:59.591739,2018-09-19 15:31:03.544965,0:00:03.953226,7,left,1,0.23388678404262464,29,m,2,11,2018_Sep_19_1501,MP_PerceptionTuring2,59.94796678686422,
284,resources/videos_generated\model(vcgpdm)-dataset(walking)-mode(ELBO)-parts(2)-dyn(26)-lvm(19)_final(8).mov,resources/videos_natural\training(23).mov,True,False,right,0,283,283,283,2018-09-19 15:31:04.896042,2018-09-19 15:31:08.916272,0:00:04.020230,7,left,0,0.3506279401754,29,m,2,11,2018_Sep_19_1501,MP_PerceptionTuring2,59.94796678686422,
285,resources/videos_generated\model(vcgpdm)-dataset(walking)-mode(ELBO)-parts(2)-dyn(23)-lvm(22)_final(4).mov,resources/videos_natural\training(34).mov,False,True,left,0,284,284,284,2018-09-19 15:31:10.384356,2018-09-19 15:31:14.404586,0:00:04.020230,7,left,1,0.35065655135804263,29,m,2,11,2018_Sep_19_1501,MP_PerceptionTuring2,59.94796678686422,
286,resources/videos_generated\model(vcgpdm)-dataset(walking)-mode(ELBO)-parts(1)-dyn(22)-lvm(22)_final(7).mov,resources/videos_natural\training(23).mov,False,True,left,0,285,285,285,2018-09-19 15:31:15.872670,2018-09-19 15:31:19.825896,0:00:03.953226,7,left,1,0.3504210361470541,29,m,2,11,2018_Sep_19_1501,MP_PerceptionTuring2,59.94796678686422,
287,resources/videos_generated\model(vcgpdm)-dataset(walking)-mode(ELBO)-parts(1)-dyn(24)-lvm(25)_final(1).mov,resources/videos_natural\training(9).mov,True,False,right,0,286,286,286,2018-09-19 15:31:21.293980,2018-09-19 15:31:25.214204,0:00:03.920224,7,left,0,0.3005538522702409,29,m,2,11,2018_Sep_19_1501,MP_PerceptionTuring2,59.94796678686422,
288,resources/videos_generated\model(vcgpdm)-dataset(walking)-mode(ELBO)-parts(1)-dyn(28)-lvm(23)_final(6)_fail.mov,resources/videos_natural\training(27).mov,False,False,right,0,287,287,287,2018-09-19 15:31:26.631285,2018-09-19 15:31:30.568510,0:00:03.937225,7,right,1,0.2837786638883699,29,m,2,11,2018_Sep_19_1501,MP_PerceptionTuring2,59.94796678686422,
289,resources/videos_generated\model(tmp)-dataset(walking)-numprim(15)_final(1).mov,resources/videos_natural\training(29).mov,False,True,left,0,288,288,288,2018-09-19 15:31:31.969591,2018-09-19 15:31:35.872814,0:00:03.903223,7,right,0,0.3171368939702006,29,m,2,11,2018_Sep_19_1501,MP_PerceptionTuring2,59.94796678686422,
290,resources/videos_generated\model(vcgpdm)-dataset(walking)-mode(ELBO)-parts(1)-dyn(22)-lvm(25)_final(9).mov,resources/videos_natural\training(24).mov,True,False,right,0,289,289,289,2018-09-19 15:31:37.307896,2018-09-19 15:31:41.261122,0:00:03.953226,7,right,1,0.2671871894181095,29,m,2,11,2018_Sep_19_1501,MP_PerceptionTuring2,59.94796678686422,
