n_trial,mov_file_generated,mov_file_natural,mirrored,switch_stim_pos,correct_answer,trials.thisRepN,trials.thisTrialN,trials.thisN,trials.thisIndex,stimulus_onset,stimulus_off,stimulus_length,block,response.keys,response.corr,response.rt,age,gender,condition,participant,date,expName,frameRate,
1,resources/videos_generated\model(vcgpdm)-dataset(walking)-mode(ELBO)-parts(2)-dyn(23)-lvm(20)_final(7).mov,resources/videos_natural\training(4).mov,False,True,left,0,0,0,0,2018-09-19 16:18:30.102779,2018-09-19 16:18:34.340021,0:00:04.237242,1,right,0,1.0342870394342754,20,f,1,12,2018_Sep_19_1617,MP_PerceptionTuring2,59.958792076494305,
2,resources/videos_generated\model(tmp)-dataset(walking)-numprim(12)_final(6).mov,resources/videos_natural\training(35).mov,False,True,left,0,1,1,1,2018-09-19 16:18:36.491144,2018-09-19 16:18:40.378366,0:00:03.887222,1,right,0,0.9511950439409702,20,f,1,12,2018_Sep_19_1617,MP_PerceptionTuring2,59.958792076494305,
3,resources/videos_generated\model(vcgpdm)-dataset(walking)-mode(ELBO)-parts(1)-dyn(22)-lvm(27)_final(2)_hip-corrected.mov,resources/videos_natural\training(34).mov,False,True,left,0,2,2,2,2018-09-19 16:18:42.446485,2018-09-19 16:18:46.366709,0:00:03.920224,1,right,0,0.2502840036377165,20,f,1,12,2018_Sep_19_1617,MP_PerceptionTuring2,59.958792076494305,
4,resources/videos_generated\model(vcgpdm)-dataset(walking)-mode(ELBO)-parts(1)-dyn(22)-lvm(22)_final(8).mov,resources/videos_natural\training(1).mov,False,False,right,0,3,3,3,2018-09-19 16:18:47.734787,2018-09-19 16:18:51.655011,0:00:03.920224,1,right,1,0.2671576747234212,20,f,1,12,2018_Sep_19_1617,MP_PerceptionTuring2,59.958792076494305,
5,resources/videos_generated\model(vcgpdm)-dataset(walking)-mode(ELBO)-parts(1)-dyn(23)-lvm(26)_final(3)_hip-corrected.mov,resources/videos_natural\training(13).mov,False,True,left,0,4,4,4,2018-09-19 16:18:53.039091,2018-09-19 16:18:56.959315,0:00:03.920224,1,left,1,0.48400122877501417,20,f,1,12,2018_Sep_19_1617,MP_PerceptionTuring2,59.958792076494305,
6,resources/videos_generated\model(vcgpdm)-dataset(walking)-mode(ELBO)-parts(1)-dyn(22)-lvm(25)_final(8).mov,resources/videos_natural\training(42).mov,False,False,right,0,5,5,5,2018-09-19 16:18:58.560406,2018-09-19 16:19:02.480631,0:00:03.920225,1,right,1,0.6842680657027813,20,f,1,12,2018_Sep_19_1617,MP_PerceptionTuring2,59.958792076494305,
7,resources/videos_generated\model(vcgpdm)-dataset(walking)-mode(ELBO)-parts(2)-dyn(23)-lvm(18)_final(1).mov,resources/videos_natural\training(47).mov,True,False,right,0,6,6,6,2018-09-19 16:19:04.281734,2018-09-19 16:19:08.218959,0:00:03.937225,1,left,0,0.45049482288231957,20,f,1,12,2018_Sep_19_1617,MP_PerceptionTuring2,59.958792076494305,
8,resources/videos_generated\model(vcgpdm)-dataset(walking)-mode(ELBO)-parts(2)-dyn(23)-lvm(20)_final(5).mov,resources/videos_natural\training(29).mov,False,False,right,0,7,7,7,2018-09-19 16:19:09.787048,2018-09-19 16:19:13.707273,0:00:03.920225,1,right,1,0.617493479661789,20,f,1,12,2018_Sep_19_1617,MP_PerceptionTuring2,59.958792076494305,
9,resources/videos_generated\model(vcgpdm)-dataset(walking)-mode(ELBO)-parts(2)-dyn(23)-lvm(22)_final(1).mov,resources/videos_natural\training(9).mov,False,False,right,0,8,8,8,2018-09-19 16:19:15.441372,2018-09-19 16:19:19.345595,0:00:03.904223,1,right,1,0.16704594052498578,20,f,1,12,2018_Sep_19_1617,MP_PerceptionTuring2,59.958792076494305,
10,resources/videos_generated\model(vcgpdm)-dataset(walking)-mode(ELBO)-parts(2)-dyn(28)-lvm(23)_final(1).mov,resources/videos_natural\training(4).mov,False,True,left,0,9,9,9,2018-09-19 16:19:20.629669,2018-09-19 16:19:24.549893,0:00:03.920224,1,left,1,1.7350854420274118,20,f,1,12,2018_Sep_19_1617,MP_PerceptionTuring2,59.958792076494305,
11,resources/videos_generated\model(vcgpdm)-dataset(walking)-mode(ELBO)-parts(1)-dyn(23)-lvm(24)_final(7).mov,resources/videos_natural\training(16).mov,False,True,left,0,10,10,10,2018-09-19 16:19:27.402056,2018-09-19 16:19:31.322280,0:00:03.920224,1,left,1,0.36723537667421624,20,f,1,12,2018_Sep_19_1617,MP_PerceptionTuring2,59.958792076494305,
12,resources/videos_generated\model(vcgpdm)-dataset(walking)-mode(ELBO)-parts(1)-dyn(25)-lvm(24)_final(7).mov,resources/videos_natural\training(42).mov,False,True,left,0,11,11,11,2018-09-19 16:19:32.806365,2018-09-19 16:19:36.726589,0:00:03.920224,1,right,0,0.48401990133606887,20,f,1,12,2018_Sep_19_1617,MP_PerceptionTuring2,59.958792076494305,
13,resources/videos_generated\model(vcgpdm)-dataset(walking)-mode(ELBO)-parts(2)-dyn(24)-lvm(19)_final(9).mov,resources/videos_natural\training(26).mov,False,False,right,0,12,12,12,2018-09-19 16:19:38.327681,2018-09-19 16:19:42.231904,0:00:03.904223,1,right,1,0.4006107734658144,20,f,1,12,2018_Sep_19_1617,MP_PerceptionTuring2,59.958792076494305,
14,resources/videos_generated\model(vcgpdm)-dataset(walking)-mode(ELBO)-parts(1)-dyn(26)-lvm(27)_final(1).mov,resources/videos_natural\training(44).mov,False,True,left,0,13,13,13,2018-09-19 16:19:43.748991,2018-09-19 16:19:47.653214,0:00:03.904223,1,right,0,0.3338241406108864,20,f,1,12,2018_Sep_19_1617,MP_PerceptionTuring2,59.958792076494305,
15,resources/videos_generated\model(vcgpdm)-dataset(walking)-mode(ELBO)-parts(2)-dyn(26)-lvm(23)_final(1).mov,resources/videos_natural\training(28).mov,False,False,right,0,14,14,14,2018-09-19 16:19:49.104297,2018-09-19 16:19:53.040522,0:00:03.936225,1,right,1,0.5174871550843818,20,f,1,12,2018_Sep_19_1617,MP_PerceptionTuring2,59.958792076494305,
16,resources/videos_generated\model(vcgpdm)-dataset(walking)-mode(ELBO)-parts(1)-dyn(25)-lvm(22)_final(0).mov,resources/videos_natural\training(13).mov,True,False,right,0,15,15,15,2018-09-19 16:19:54.675616,2018-09-19 16:19:58.595840,0:00:03.920224,1,left,0,1.568147621657772,20,f,1,12,2018_Sep_19_1617,MP_PerceptionTuring2,59.958792076494305,
17,resources/videos_generated\model(vcgpdm)-dataset(walking)-mode(ELBO)-parts(2)-dyn(28)-lvm(23)_final(5).mov,resources/videos_natural\training(38).mov,True,False,right,0,16,16,16,2018-09-19 16:20:01.280994,2018-09-19 16:20:05.185217,0:00:03.904223,1,left,0,0.3171817683523841,20,f,1,12,2018_Sep_19_1617,MP_PerceptionTuring2,59.958792076494305,
18,resources/videos_generated\model(tmp)-dataset(walking)-numprim(14)_final(2).mov,resources/videos_natural\training(31).mov,False,True,left,0,17,17,17,2018-09-19 16:20:06.619299,2018-09-19 16:20:10.539523,0:00:03.920224,1,right,0,0.3514498340555292,20,f,1,12,2018_Sep_19_1617,MP_PerceptionTuring2,59.958792076494305,
19,resources/videos_generated\model(vcgpdm)-dataset(walking)-mode(ELBO)-parts(1)-dyn(25)-lvm(26)_final(0).mov,resources/videos_natural\training(28).mov,False,False,right,0,18,18,18,2018-09-19 16:20:12.007607,2018-09-19 16:20:15.893830,0:00:03.886223,1,right,1,0.5506487209295301,20,f,1,12,2018_Sep_19_1617,MP_PerceptionTuring2,59.958792076494305,
20,resources/videos_generated\model(vcgpdm)-dataset(walking)-mode(ELBO)-parts(2)-dyn(24)-lvm(17)_final(7).mov,resources/videos_natural\training(23).mov,True,True,left,0,19,19,19,2018-09-19 16:20:17.561925,2018-09-19 16:20:21.465148,0:00:03.903223,1,right,0,0.3507703937502811,20,f,1,12,2018_Sep_19_1617,MP_PerceptionTuring2,59.958792076494305,
21,resources/videos_generated\model(vcgpdm)-dataset(walking)-mode(ELBO)-parts(1)-dyn(23)-lvm(26)_final(5)_hip-corrected.mov,resources/videos_natural\training(13).mov,True,True,left,0,20,20,20,2018-09-19 16:20:22.933232,2018-09-19 16:20:26.820455,0:00:03.887223,1,right,0,2.20212746733705,20,f,1,12,2018_Sep_19_1617,MP_PerceptionTuring2,59.958792076494305,
22,resources/videos_generated\model(vcgpdm)-dataset(walking)-mode(ELBO)-parts(2)-dyn(25)-lvm(22)_final(1).mov,resources/videos_natural\training(10).mov,True,True,left,0,21,21,21,2018-09-19 16:20:30.139644,2018-09-19 16:20:34.025867,0:00:03.886223,1,left,1,0.35060475005957414,20,f,1,12,2018_Sep_19_1617,MP_PerceptionTuring2,59.958792076494305,
23,resources/videos_generated\model(vcgpdm)-dataset(walking)-mode(ELBO)-parts(1)-dyn(27)-lvm(24)_final(3).mov,resources/videos_natural\training(22).mov,True,True,left,0,22,22,22,2018-09-19 16:20:35.493951,2018-09-19 16:20:39.414175,0:00:03.920224,1,left,1,0.33394762045281823,20,f,1,12,2018_Sep_19_1617,MP_PerceptionTuring2,59.958792076494305,
24,resources/videos_generated\model(vcgpdm)-dataset(walking)-mode(ELBO)-parts(1)-dyn(22)-lvm(22)_final(2).mov,resources/videos_natural\training(31).mov,False,False,right,0,23,23,23,2018-09-19 16:20:40.865258,2018-09-19 16:20:44.768481,0:00:03.903223,1,right,1,0.5673293418221874,20,f,1,12,2018_Sep_19_1617,MP_PerceptionTuring2,59.958792076494305,
25,resources/videos_generated\model(vcgpdm)-dataset(walking)-mode(ELBO)-parts(2)-dyn(28)-lvm(23)_final(9).mov,resources/videos_natural\training(18).mov,True,False,right,0,24,24,24,2018-09-19 16:20:46.453577,2018-09-19 16:20:50.340800,0:00:03.887223,1,left,0,0.35060685825192195,20,f,1,12,2018_Sep_19_1617,MP_PerceptionTuring2,59.958792076494305,
26,resources/videos_generated\model(vcgpdm)-dataset(walking)-mode(ELBO)-parts(1)-dyn(24)-lvm(23)_final(0).mov,resources/videos_natural\training(40).mov,True,False,right,0,25,25,25,2018-09-19 16:20:51.807884,2018-09-19 16:20:55.728108,0:00:03.920224,1,right,1,0.40057583770612837,20,f,1,12,2018_Sep_19_1617,MP_PerceptionTuring2,59.958792076494305,
27,resources/videos_generated\model(vcgpdm)-dataset(walking)-mode(ELBO)-parts(2)-dyn(28)-lvm(19)_final(5).mov,resources/videos_natural\training(21).mov,True,False,right,0,26,26,26,2018-09-19 16:20:57.246195,2018-09-19 16:21:01.183420,0:00:03.937225,1,right,1,0.4338151054998889,20,f,1,12,2018_Sep_19_1617,MP_PerceptionTuring2,59.958792076494305,
28,resources/videos_generated\model(vcgpdm)-dataset(walking)-mode(ELBO)-parts(2)-dyn(25)-lvm(20)_final(5).mov,resources/videos_natural\training(10).mov,True,True,left,0,27,27,27,2018-09-19 16:21:02.734509,2018-09-19 16:21:06.620731,0:00:03.886222,1,right,0,0.26723477433188236,20,f,1,12,2018_Sep_19_1617,MP_PerceptionTuring2,59.958792076494305,
29,resources/videos_generated\model(vcgpdm)-dataset(walking)-mode(ELBO)-parts(2)-dyn(28)-lvm(19)_final(1).mov,resources/videos_natural\training(32).mov,False,False,right,0,28,28,28,2018-09-19 16:21:08.005810,2018-09-19 16:21:11.909033,0:00:03.903223,1,right,1,0.23381992422582698,20,f,1,12,2018_Sep_19_1617,MP_PerceptionTuring2,59.958792076494305,
30,resources/videos_generated\model(vcgpdm)-dataset(walking)-mode(ELBO)-parts(2)-dyn(24)-lvm(17)_final(1).mov,resources/videos_natural\training(35).mov,False,False,right,0,29,29,29,2018-09-19 16:21:13.260111,2018-09-19 16:21:17.213337,0:00:03.953226,1,right,1,0.15031954173900886,20,f,1,12,2018_Sep_19_1617,MP_PerceptionTuring2,59.958792076494305,
31,resources/videos_generated\model(vcgpdm)-dataset(walking)-mode(ELBO)-parts(1)-dyn(28)-lvm(25)_final(1).mov,resources/videos_natural\training(45).mov,False,False,right,0,30,30,30,2018-09-19 16:21:18.481409,2018-09-19 16:21:22.367632,0:00:03.886223,1,right,1,0.2336871081006393,20,f,1,12,2018_Sep_19_1617,MP_PerceptionTuring2,59.958792076494305,
32,resources/videos_generated\model(vcgpdm)-dataset(walking)-mode(ELBO)-parts(1)-dyn(26)-lvm(23)_final(5).mov,resources/videos_natural\training(36).mov,True,False,right,0,31,31,31,2018-09-19 16:21:23.718709,2018-09-19 16:21:27.638933,0:00:03.920224,1,right,1,4.3874014420034655,20,f,1,12,2018_Sep_19_1617,MP_PerceptionTuring2,59.958792076494305,
33,resources/videos_generated\model(vcgpdm)-dataset(walking)-mode(ELBO)-parts(2)-dyn(22)-lvm(23)_final(1).mov,resources/videos_natural\training(7).mov,False,True,left,0,32,32,32,2018-09-19 16:21:33.144248,2018-09-19 16:21:37.064472,0:00:03.920224,1,left,1,0.3186343129400484,20,f,1,12,2018_Sep_19_1617,MP_PerceptionTuring2,59.958792076494305,
34,resources/videos_generated\model(vcgpdm)-dataset(walking)-mode(ELBO)-parts(1)-dyn(23)-lvm(28)_final(8).mov,resources/videos_natural\training(41).mov,True,True,left,0,33,33,33,2018-09-19 16:21:38.498554,2018-09-19 16:21:42.418778,0:00:03.920224,1,left,1,0.2670995488479093,20,f,1,12,2018_Sep_19_1617,MP_PerceptionTuring2,59.958792076494305,
35,resources/videos_generated\model(vcgpdm)-dataset(walking)-mode(ELBO)-parts(2)-dyn(23)-lvm(20)_final(3).mov,resources/videos_natural\training(29).mov,True,True,left,0,34,34,34,2018-09-19 16:21:43.802858,2018-09-19 16:21:47.690080,0:00:03.887222,1,left,1,0.36724802582830307,20,f,1,12,2018_Sep_19_1617,MP_PerceptionTuring2,59.958792076494305,
36,resources/videos_generated\model(vcgpdm)-dataset(walking)-mode(ELBO)-parts(2)-dyn(25)-lvm(22)_final(9).mov,resources/videos_natural\training(11).mov,False,False,right,0,35,35,35,2018-09-19 16:21:49.174165,2018-09-19 16:21:53.061387,0:00:03.887222,1,right,1,0.26717785313667264,20,f,1,12,2018_Sep_19_1617,MP_PerceptionTuring2,59.958792076494305,
37,resources/videos_generated\model(tmp)-dataset(walking)-numprim(11)_final(8).mov,resources/videos_natural\training(31).mov,False,False,right,0,36,36,36,2018-09-19 16:21:54.445466,2018-09-19 16:21:58.315688,0:00:03.870222,1,right,1,0.3674489064505906,20,f,1,12,2018_Sep_19_1617,MP_PerceptionTuring2,59.958792076494305,
38,resources/videos_generated\model(vcgpdm)-dataset(walking)-mode(ELBO)-parts(2)-dyn(26)-lvm(21)_final(3).mov,resources/videos_natural\training(20).mov,False,True,left,0,37,37,37,2018-09-19 16:21:59.800773,2018-09-19 16:22:03.703996,0:00:03.903223,1,left,1,0.350503255651347,20,f,1,12,2018_Sep_19_1617,MP_PerceptionTuring2,59.958792076494305,
39,resources/videos_generated\model(vcgpdm)-dataset(walking)-mode(ELBO)-parts(1)-dyn(25)-lvm(24)_final(9).mov,resources/videos_natural\training(48).mov,False,True,left,0,38,38,38,2018-09-19 16:22:05.172080,2018-09-19 16:22:09.125306,0:00:03.953226,1,right,0,0.5006484197601822,20,f,1,12,2018_Sep_19_1617,MP_PerceptionTuring2,59.958792076494305,
40,resources/videos_generated\model(vcgpdm)-dataset(walking)-mode(ELBO)-parts(1)-dyn(26)-lvm(23)_final(7).mov,resources/videos_natural\training(28).mov,True,True,left,0,39,39,39,2018-09-19 16:22:10.743399,2018-09-19 16:22:14.663623,0:00:03.920224,1,left,1,0.36731006692025403,20,f,1,12,2018_Sep_19_1617,MP_PerceptionTuring2,59.958792076494305,
41,resources/videos_generated\model(vcgpdm)-dataset(walking)-mode(ELBO)-parts(2)-dyn(28)-lvm(17)_final(9).mov,resources/videos_natural\training(4).mov,False,True,left,0,40,40,40,2018-09-19 16:22:16.147708,2018-09-19 16:22:20.084933,0:00:03.937225,1,left,1,0.3839307549133082,20,f,1,12,2018_Sep_19_1617,MP_PerceptionTuring2,59.958792076494305,
42,resources/videos_generated\model(vcgpdm)-dataset(walking)-mode(ELBO)-parts(2)-dyn(28)-lvm(17)_final(7).mov,resources/videos_natural\training(42).mov,True,True,left,0,41,41,41,2018-09-19 16:22:21.586019,2018-09-19 16:22:25.489242,0:00:03.903223,1,left,1,0.3505990278226818,20,f,1,12,2018_Sep_19_1617,MP_PerceptionTuring2,59.958792076494305,
43,resources/videos_generated\model(vcgpdm)-dataset(walking)-mode(ELBO)-parts(1)-dyn(24)-lvm(27)_final(6).mov,resources/videos_natural\training(29).mov,True,True,left,0,42,42,42,2018-09-19 16:22:26.957326,2018-09-19 16:22:30.877550,0:00:03.920224,1,left,1,0.3839382841724728,20,f,1,12,2018_Sep_19_1617,MP_PerceptionTuring2,59.958792076494305,
44,resources/videos_generated\model(vcgpdm)-dataset(walking)-mode(ELBO)-parts(1)-dyn(23)-lvm(22)_final(1)_fail.mov,resources/videos_natural\training(27).mov,True,False,right,0,43,43,43,2018-09-19 16:22:32.378636,2018-09-19 16:22:36.264858,0:00:03.886222,1,right,1,0.7508610460245109,20,f,1,12,2018_Sep_19_1617,MP_PerceptionTuring2,59.958792076494305,
45,resources/videos_generated\model(vcgpdm)-dataset(walking)-mode(ELBO)-parts(2)-dyn(24)-lvm(21)_final(1).mov,resources/videos_natural\training(5).mov,True,True,left,0,44,44,44,2018-09-19 16:22:38.133965,2018-09-19 16:22:42.053189,0:00:03.919224,1,left,1,0.3171471337609546,20,f,1,12,2018_Sep_19_1617,MP_PerceptionTuring2,59.958792076494305,
46,resources/videos_generated\model(vcgpdm)-dataset(walking)-mode(ELBO)-parts(1)-dyn(27)-lvm(24)_final(1).mov,resources/videos_natural\training(4).mov,True,True,left,0,45,45,45,2018-09-19 16:23:17.651225,2018-09-19 16:23:21.604452,0:00:03.953227,2,left,1,0.3171263530075521,20,f,1,12,2018_Sep_19_1617,MP_PerceptionTuring2,59.958792076494305,
47,resources/videos_generated\model(vcgpdm)-dataset(walking)-mode(ELBO)-parts(2)-dyn(27)-lvm(18)_final(3).mov,resources/videos_natural\training(39).mov,True,False,right,0,46,46,46,2018-09-19 16:23:23.039534,2018-09-19 16:23:26.958758,0:00:03.919224,2,right,1,0.28373951174216927,20,f,1,12,2018_Sep_19_1617,MP_PerceptionTuring2,59.958792076494305,
48,resources/videos_generated\model(vcgpdm)-dataset(walking)-mode(ELBO)-parts(1)-dyn(26)-lvm(23)_final(9).mov,resources/videos_natural\training(7).mov,False,True,left,0,47,47,47,2018-09-19 16:23:28.359838,2018-09-19 16:23:32.247060,0:00:03.887222,2,right,0,0.3504574777580274,20,f,1,12,2018_Sep_19_1617,MP_PerceptionTuring2,59.958792076494305,
49,resources/videos_generated\model(vcgpdm)-dataset(walking)-mode(ELBO)-parts(1)-dyn(25)-lvm(22)_final(2).mov,resources/videos_natural\training(7).mov,True,True,left,0,48,48,48,2018-09-19 16:23:33.715144,2018-09-19 16:23:37.618368,0:00:03.903224,2,left,1,0.33383769327519985,20,f,1,12,2018_Sep_19_1617,MP_PerceptionTuring2,59.958792076494305,
50,resources/videos_generated\model(vcgpdm)-dataset(walking)-mode(ELBO)-parts(1)-dyn(25)-lvm(26)_final(2).mov,resources/videos_natural\training(21).mov,False,True,left,0,49,49,49,2018-09-19 16:23:39.069451,2018-09-19 16:23:43.006676,0:00:03.937225,2,right,0,0.4338416084901837,20,f,1,12,2018_Sep_19_1617,MP_PerceptionTuring2,59.958792076494305,
51,resources/videos_generated\model(dmp)-dataset(walking)-npsi(100)_final(0).mov,resources/videos_natural\training(25).mov,False,True,left,0,50,50,50,2018-09-19 16:23:44.557764,2018-09-19 16:23:48.477989,0:00:03.920225,2,right,0,0.518222613074613,20,f,1,12,2018_Sep_19_1617,MP_PerceptionTuring2,59.958792076494305,
52,resources/videos_generated\model(dmp)-dataset(walking)-npsi(60)_final(6).mov,resources/videos_natural\training(2).mov,False,True,left,0,51,51,51,2018-09-19 16:23:50.112082,2018-09-19 16:23:54.049307,0:00:03.937225,2,right,0,0.3005180129985092,20,f,1,12,2018_Sep_19_1617,MP_PerceptionTuring2,59.958792076494305,
53,resources/videos_generated\model(vcgpdm)-dataset(walking)-mode(ELBO)-parts(1)-dyn(28)-lvm(23)_final(5).mov,resources/videos_natural\training(47).mov,True,False,right,0,52,52,52,2018-09-19 16:23:55.467388,2018-09-19 16:23:59.387613,0:00:03.920225,2,right,1,0.3005662002542522,20,f,1,12,2018_Sep_19_1617,MP_PerceptionTuring2,59.958792076494305,
54,resources/videos_generated\model(vcgpdm)-dataset(walking)-mode(ELBO)-parts(1)-dyn(25)-lvm(26)_final(6)_fail.mov,resources/videos_natural\training(39).mov,False,False,right,0,53,53,53,2018-09-19 16:24:00.804694,2018-09-19 16:24:04.707917,0:00:03.903223,2,right,1,0.5173693974793423,20,f,1,12,2018_Sep_19_1617,MP_PerceptionTuring2,59.958792076494305,
55,resources/videos_generated\model(tmp)-dataset(walking)-numprim(13)_final(2).mov,resources/videos_natural\training(42).mov,False,False,right,0,54,54,54,2018-09-19 16:24:06.343010,2018-09-19 16:24:10.246234,0:00:03.903224,2,right,1,0.36717514260453754,20,f,1,12,2018_Sep_19_1617,MP_PerceptionTuring2,59.958792076494305,
56,resources/videos_generated\model(vcgpdm)-dataset(walking)-mode(ELBO)-parts(1)-dyn(23)-lvm(28)_final(6)_hip-corrected.mov,resources/videos_natural\training(36).mov,False,True,left,0,55,55,55,2018-09-19 16:24:11.731319,2018-09-19 16:24:15.651543,0:00:03.920224,2,right,0,0.384005445159346,20,f,1,12,2018_Sep_19_1617,MP_PerceptionTuring2,59.958792076494305,
57,resources/videos_generated\model(vcgpdm)-dataset(walking)-mode(ELBO)-parts(2)-dyn(25)-lvm(20)_final(9).mov,resources/videos_natural\training(48).mov,True,False,right,0,56,56,56,2018-09-19 16:24:17.152629,2018-09-19 16:24:21.038851,0:00:03.886222,2,left,0,0.5673172950082517,20,f,1,12,2018_Sep_19_1617,MP_PerceptionTuring2,59.958792076494305,
58,resources/videos_generated\model(tmp)-dataset(walking)-numprim(11)_final(2).mov,resources/videos_natural\training(14).mov,True,False,right,0,57,57,57,2018-09-19 16:24:22.723947,2018-09-19 16:24:26.644172,0:00:03.920225,2,right,1,0.31716701100594946,20,f,1,12,2018_Sep_19_1617,MP_PerceptionTuring2,59.958792076494305,
59,resources/videos_generated\model(vcgpdm)-dataset(walking)-mode(ELBO)-parts(1)-dyn(23)-lvm(24)_final(9).mov,resources/videos_natural\training(32).mov,False,True,left,0,58,58,58,2018-09-19 16:24:28.078254,2018-09-19 16:24:31.998478,0:00:03.920224,2,left,1,0.5340448984752584,20,f,1,12,2018_Sep_19_1617,MP_PerceptionTuring2,59.958792076494305,
60,resources/videos_generated\model(vcgpdm)-dataset(walking)-mode(ELBO)-parts(1)-dyn(28)-lvm(27)_final(1).mov,resources/videos_natural\training(33).mov,False,True,left,0,59,59,59,2018-09-19 16:24:33.650572,2018-09-19 16:24:37.569797,0:00:03.919225,2,right,0,0.5172254380522645,20,f,1,12,2018_Sep_19_1617,MP_PerceptionTuring2,59.958792076494305,
61,resources/videos_generated\model(dmp)-dataset(walking)-npsi(60)_final(4).mov,resources/videos_natural\training(6).mov,True,False,right,0,60,60,60,2018-09-19 16:24:39.204890,2018-09-19 16:24:43.091112,0:00:03.886222,2,left,0,0.7508908618892747,20,f,1,12,2018_Sep_19_1617,MP_PerceptionTuring2,59.958792076494305,
62,resources/videos_generated\model(vcgpdm)-dataset(walking)-mode(ELBO)-parts(2)-dyn(28)-lvm(21)_final(5).mov,resources/videos_natural\training(6).mov,True,False,right,0,61,61,61,2018-09-19 16:24:44.960219,2018-09-19 16:24:48.879443,0:00:03.919224,2,left,0,0.3336600027705572,20,f,1,12,2018_Sep_19_1617,MP_PerceptionTuring2,59.958792076494305,
63,resources/videos_generated\model(vcgpdm)-dataset(walking)-mode(ELBO)-parts(2)-dyn(28)-lvm(21)_final(3).mov,resources/videos_natural\training(24).mov,False,False,right,0,62,62,62,2018-09-19 16:24:50.331526,2018-09-19 16:24:54.217749,0:00:03.886223,2,right,1,0.43396177545946557,20,f,1,12,2018_Sep_19_1617,MP_PerceptionTuring2,59.958792076494305,
64,resources/videos_generated\model(dmp)-dataset(walking)-npsi(50)_final(0).mov,resources/videos_natural\training(35).mov,False,False,right,0,63,63,63,2018-09-19 16:24:55.768837,2018-09-19 16:24:59.689062,0:00:03.920225,2,right,1,0.3505384925829276,20,f,1,12,2018_Sep_19_1617,MP_PerceptionTuring2,59.958792076494305,
65,resources/videos_generated\model(vcgpdm)-dataset(walking)-mode(ELBO)-parts(1)-dyn(22)-lvm(22)_final(6).mov,resources/videos_natural\training(30).mov,True,False,right,0,64,64,64,2018-09-19 16:25:01.157146,2018-09-19 16:25:05.077370,0:00:03.920224,2,right,1,0.3673263301188854,20,f,1,12,2018_Sep_19_1617,MP_PerceptionTuring2,59.958792076494305,
66,resources/videos_generated\model(vcgpdm)-dataset(walking)-mode(ELBO)-parts(1)-dyn(27)-lvm(28)_final(7).mov,resources/videos_natural\training(8).mov,False,False,right,0,65,65,65,2018-09-19 16:25:06.561455,2018-09-19 16:25:10.465678,0:00:03.904223,2,right,1,0.3171209319407353,20,f,1,12,2018_Sep_19_1617,MP_PerceptionTuring2,59.958792076494305,
67,resources/videos_generated\model(tmp)-dataset(walking)-numprim(12)_final(2).mov,resources/videos_natural\training(34).mov,False,True,left,0,66,66,66,2018-09-19 16:25:11.899760,2018-09-19 16:25:15.786982,0:00:03.887222,2,right,0,0.31713779748133675,20,f,1,12,2018_Sep_19_1617,MP_PerceptionTuring2,59.958792076494305,
68,resources/videos_generated\model(vcgpdm)-dataset(walking)-mode(ELBO)-parts(2)-dyn(26)-lvm(19)_final(1).mov,resources/videos_natural\training(16).mov,False,True,left,0,67,67,67,2018-09-19 16:25:17.221064,2018-09-19 16:25:21.141289,0:00:03.920225,2,left,1,0.3339434040681226,20,f,1,12,2018_Sep_19_1617,MP_PerceptionTuring2,59.958792076494305,
69,resources/videos_generated\model(vcgpdm)-dataset(walking)-mode(ELBO)-parts(2)-dyn(26)-lvm(19)_final(9).mov,resources/videos_natural\training(18).mov,True,True,left,0,68,68,68,2018-09-19 16:25:22.592372,2018-09-19 16:25:26.512596,0:00:03.920224,2,left,1,0.48410573488581576,20,f,1,12,2018_Sep_19_1617,MP_PerceptionTuring2,59.958792076494305,
70,resources/videos_generated\model(vcgpdm)-dataset(walking)-mode(ELBO)-parts(1)-dyn(27)-lvm(24)_final(9).mov,resources/videos_natural\training(45).mov,True,True,left,0,69,69,69,2018-09-19 16:25:28.113687,2018-09-19 16:25:32.016911,0:00:03.903224,2,right,0,0.7342801125178084,20,f,1,12,2018_Sep_19_1617,MP_PerceptionTuring2,59.958792076494305,
71,resources/videos_generated\model(vcgpdm)-dataset(walking)-mode(ELBO)-parts(1)-dyn(26)-lvm(25)_final(7).mov,resources/videos_natural\training(44).mov,True,False,right,0,70,70,70,2018-09-19 16:25:33.869017,2018-09-19 16:25:37.789241,0:00:03.920224,2,right,1,0.5674281256960967,20,f,1,12,2018_Sep_19_1617,MP_PerceptionTuring2,59.958792076494305,
72,resources/videos_generated\model(vcgpdm)-dataset(walking)-mode(ELBO)-parts(2)-dyn(27)-lvm(20)_final(7).mov,resources/videos_natural\training(26).mov,False,True,left,0,71,71,71,2018-09-19 16:25:39.473337,2018-09-19 16:25:43.376560,0:00:03.903223,2,left,1,0.31711340268157073,20,f,1,12,2018_Sep_19_1617,MP_PerceptionTuring2,59.958792076494305,
73,resources/videos_generated\model(vcgpdm)-dataset(walking)-mode(ELBO)-parts(2)-dyn(23)-lvm(18)_final(5).mov,resources/videos_natural\training(27).mov,True,True,left,0,72,72,72,2018-09-19 16:25:44.811643,2018-09-19 16:25:48.747868,0:00:03.936225,2,left,1,0.5339024449003773,20,f,1,12,2018_Sep_19_1617,MP_PerceptionTuring2,59.958792076494305,
74,resources/videos_generated\model(vcgpdm)-dataset(walking)-mode(ELBO)-parts(2)-dyn(22)-lvm(17)_final(7).mov,resources/videos_natural\training(26).mov,True,False,right,0,73,73,73,2018-09-19 16:25:50.399962,2018-09-19 16:25:54.303185,0:00:03.903223,2,right,1,1.251356471248073,20,f,1,12,2018_Sep_19_1617,MP_PerceptionTuring2,59.958792076494305,
75,resources/videos_generated\model(vcgpdm)-dataset(walking)-mode(ELBO)-parts(2)-dyn(24)-lvm(19)_final(5).mov,resources/videos_natural\training(22).mov,True,True,left,0,74,74,74,2018-09-19 16:25:56.671321,2018-09-19 16:26:00.591545,0:00:03.920224,2,left,1,0.40057704238643055,20,f,1,12,2018_Sep_19_1617,MP_PerceptionTuring2,59.958792076494305,
76,resources/videos_generated\model(vcgpdm)-dataset(walking)-mode(ELBO)-parts(1)-dyn(24)-lvm(25)_final(8).mov,resources/videos_natural\training(33).mov,True,False,right,0,75,75,75,2018-09-19 16:26:02.109632,2018-09-19 16:26:06.029856,0:00:03.920224,2,right,1,1.1344728615404165,20,f,1,12,2018_Sep_19_1617,MP_PerceptionTuring2,59.958792076494305,
77,resources/videos_generated\model(vcgpdm)-dataset(walking)-mode(ELBO)-parts(2)-dyn(28)-lvm(21)_final(7).mov,resources/videos_natural\training(13).mov,False,True,left,0,76,76,76,2018-09-19 16:26:08.281985,2018-09-19 16:26:12.185208,0:00:03.903223,2,left,1,0.3837834826135804,20,f,1,12,2018_Sep_19_1617,MP_PerceptionTuring2,59.958792076494305,
78,resources/videos_generated\model(vcgpdm)-dataset(walking)-mode(ELBO)-parts(1)-dyn(26)-lvm(27)_final(5).mov,resources/videos_natural\training(25).mov,True,True,left,0,77,77,77,2018-09-19 16:26:13.686294,2018-09-19 16:26:17.623519,0:00:03.937225,2,left,1,0.4339039507522102,20,f,1,12,2018_Sep_19_1617,MP_PerceptionTuring2,59.958792076494305,
79,resources/videos_generated\model(vcgpdm)-dataset(walking)-mode(ELBO)-parts(1)-dyn(28)-lvm(23)_final(9).mov,resources/videos_natural\training(19).mov,False,True,left,0,78,78,78,2018-09-19 16:26:19.174608,2018-09-19 16:26:23.094832,0:00:03.920224,2,left,1,0.3839376818323217,20,f,1,12,2018_Sep_19_1617,MP_PerceptionTuring2,59.958792076494305,
80,resources/videos_generated\model(vcgpdm)-dataset(walking)-mode(ELBO)-parts(2)-dyn(27)-lvm(20)_final(3).mov,resources/videos_natural\training(18).mov,True,True,left,0,79,79,79,2018-09-19 16:26:24.595918,2018-09-19 16:26:28.533143,0:00:03.937225,2,left,1,0.4508917654002289,20,f,1,12,2018_Sep_19_1617,MP_PerceptionTuring2,59.958792076494305,
81,resources/videos_generated\model(vcgpdm)-dataset(walking)-mode(ELBO)-parts(1)-dyn(22)-lvm(23)_final(0).mov,resources/videos_natural\training(6).mov,False,True,left,0,80,80,80,2018-09-19 16:26:30.100233,2018-09-19 16:26:34.037458,0:00:03.937225,2,right,0,0.4351610357844038,20,f,1,12,2018_Sep_19_1617,MP_PerceptionTuring2,59.958792076494305,
82,resources/videos_generated\model(vcgpdm)-dataset(walking)-mode(ELBO)-parts(2)-dyn(26)-lvm(17)_final(9).mov,resources/videos_natural\training(12).mov,False,True,left,0,81,81,81,2018-09-19 16:26:35.588547,2018-09-19 16:26:39.491770,0:00:03.903223,2,left,1,0.3004978345852578,20,f,1,12,2018_Sep_19_1617,MP_PerceptionTuring2,59.958792076494305,
83,resources/videos_generated\model(vcgpdm)-dataset(walking)-mode(ELBO)-parts(2)-dyn(22)-lvm(21)_final(5).mov,resources/videos_natural\training(0).mov,False,False,right,0,82,82,82,2018-09-19 16:26:40.909851,2018-09-19 16:26:44.798074,0:00:03.888223,2,right,1,0.3507607562987687,20,f,1,12,2018_Sep_19_1617,MP_PerceptionTuring2,59.958792076494305,
84,resources/videos_generated\model(dmp)-dataset(walking)-npsi(90)_final(4).mov,resources/videos_natural\training(19).mov,False,False,right,0,83,83,83,2018-09-19 16:26:46.264157,2018-09-19 16:26:50.184382,0:00:03.920225,2,right,1,0.36708449032994395,20,f,1,12,2018_Sep_19_1617,MP_PerceptionTuring2,59.958792076494305,
85,resources/videos_generated\model(vcgpdm)-dataset(walking)-mode(ELBO)-parts(2)-dyn(26)-lvm(19)_final(3).mov,resources/videos_natural\training(47).mov,False,True,left,0,84,84,84,2018-09-19 16:26:51.669467,2018-09-19 16:26:55.589691,0:00:03.920224,2,right,0,0.2837804709106422,20,f,1,12,2018_Sep_19_1617,MP_PerceptionTuring2,59.958792076494305,
86,resources/videos_generated\model(vcgpdm)-dataset(walking)-mode(ELBO)-parts(1)-dyn(27)-lvm(28)_final(9).mov,resources/videos_natural\training(6).mov,False,True,left,0,85,85,85,2018-09-19 16:26:56.990771,2018-09-19 16:27:00.926996,0:00:03.936225,2,right,0,0.3005282527901727,20,f,1,12,2018_Sep_19_1617,MP_PerceptionTuring2,59.958792076494305,
87,resources/videos_generated\model(vcgpdm)-dataset(walking)-mode(ELBO)-parts(2)-dyn(24)-lvm(21)_final(5).mov,resources/videos_natural\training(16).mov,True,False,right,0,86,86,86,2018-09-19 16:27:02.345077,2018-09-19 16:27:06.232300,0:00:03.887223,2,left,0,0.3506806449859141,20,f,1,12,2018_Sep_19_1617,MP_PerceptionTuring2,59.958792076494305,
88,resources/videos_generated\model(vcgpdm)-dataset(walking)-mode(ELBO)-parts(2)-dyn(25)-lvm(18)_final(9).mov,resources/videos_natural\training(13).mov,True,True,left,0,87,87,87,2018-09-19 16:27:07.699383,2018-09-19 16:27:11.619608,0:00:03.920225,2,left,1,0.3170868996912759,20,f,1,12,2018_Sep_19_1617,MP_PerceptionTuring2,59.958792076494305,
89,resources/videos_generated\model(vcgpdm)-dataset(walking)-mode(ELBO)-parts(1)-dyn(24)-lvm(27)_final(2).mov,resources/videos_natural\training(48).mov,True,False,right,0,88,88,88,2018-09-19 16:27:13.054690,2018-09-19 16:27:16.924911,0:00:03.870221,2,right,1,0.5007712972601439,20,f,1,12,2018_Sep_19_1617,MP_PerceptionTuring2,59.958792076494305,
90,resources/videos_generated\model(vcgpdm)-dataset(walking)-mode(ELBO)-parts(1)-dyn(22)-lvm(23)_final(6)_fail.mov,resources/videos_natural\training(35).mov,True,True,left,0,89,89,89,2018-09-19 16:27:18.543004,2018-09-19 16:27:22.446227,0:00:03.903223,2,left,1,0.5341512116083322,20,f,1,12,2018_Sep_19_1617,MP_PerceptionTuring2,59.958792076494305,
91,resources/videos_generated\model(vcgpdm)-dataset(walking)-mode(ELBO)-parts(1)-dyn(26)-lvm(27)_final(3).mov,resources/videos_natural\training(2).mov,False,True,left,0,90,90,90,2018-09-19 16:27:55.741131,2018-09-19 16:27:59.661356,0:00:03.920225,3,right,0,0.5507496129957872,20,f,1,12,2018_Sep_19_1617,MP_PerceptionTuring2,59.958792076494305,
92,resources/videos_generated\model(vcgpdm)-dataset(walking)-mode(ELBO)-parts(2)-dyn(22)-lvm(23)_final(9).mov,resources/videos_natural\training(20).mov,True,True,left,0,91,91,91,2018-09-19 16:28:01.329451,2018-09-19 16:28:05.232674,0:00:03.903223,3,left,1,0.36725766327981546,20,f,1,12,2018_Sep_19_1617,MP_PerceptionTuring2,59.958792076494305,
93,resources/videos_generated\model(vcgpdm)-dataset(walking)-mode(ELBO)-parts(1)-dyn(26)-lvm(25)_final(9).mov,resources/videos_natural\training(34).mov,False,False,right,0,92,92,92,2018-09-19 16:28:06.717759,2018-09-19 16:28:10.587980,0:00:03.870221,3,right,1,0.6507134725543438,20,f,1,12,2018_Sep_19_1617,MP_PerceptionTuring2,59.958792076494305,
94,resources/videos_generated\model(vcgpdm)-dataset(walking)-mode(ELBO)-parts(2)-dyn(22)-lvm(21)_final(7).mov,resources/videos_natural\training(43).mov,True,False,right,0,93,93,93,2018-09-19 16:28:12.356082,2018-09-19 16:28:16.259305,0:00:03.903223,3,right,1,0.3504189279537968,20,f,1,12,2018_Sep_19_1617,MP_PerceptionTuring2,59.958792076494305,
95,resources/videos_generated\model(tmp)-dataset(walking)-numprim(13)_final(8).mov,resources/videos_natural\training(9).mov,False,False,right,0,94,94,94,2018-09-19 16:28:17.727389,2018-09-19 16:28:21.630612,0:00:03.903223,3,right,1,0.8008089435552392,20,f,1,12,2018_Sep_19_1617,MP_PerceptionTuring2,59.958792076494305,
96,resources/videos_generated\model(vcgpdm)-dataset(walking)-mode(ELBO)-parts(2)-dyn(23)-lvm(18)_final(3).mov,resources/videos_natural\training(3).mov,True,True,left,0,95,95,95,2018-09-19 16:28:23.548722,2018-09-19 16:28:27.468946,0:00:03.920224,3,left,1,0.48398376089426165,20,f,1,12,2018_Sep_19_1617,MP_PerceptionTuring2,59.958792076494305,
97,resources/videos_generated\model(vcgpdm)-dataset(walking)-mode(ELBO)-parts(2)-dyn(28)-lvm(17)_final(1).mov,resources/videos_natural\training(45).mov,True,True,left,0,96,96,96,2018-09-19 16:28:29.070038,2018-09-19 16:28:32.990262,0:00:03.920224,3,left,1,0.45044121455975983,20,f,1,12,2018_Sep_19_1617,MP_PerceptionTuring2,59.958792076494305,
98,resources/videos_generated\model(vcgpdm)-dataset(walking)-mode(ELBO)-parts(2)-dyn(24)-lvm(23)_final(5).mov,resources/videos_natural\training(32).mov,True,True,left,0,97,97,97,2018-09-19 16:28:34.558352,2018-09-19 16:28:38.444574,0:00:03.886222,3,left,1,0.383919009269448,20,f,1,12,2018_Sep_19_1617,MP_PerceptionTuring2,59.958792076494305,
99,resources/videos_generated\model(vcgpdm)-dataset(walking)-mode(ELBO)-parts(1)-dyn(22)-lvm(23)_final(2).mov,resources/videos_natural\training(15).mov,True,True,left,0,98,98,98,2018-09-19 16:28:39.946660,2018-09-19 16:28:43.849883,0:00:03.903223,3,left,1,0.5004830772395508,20,f,1,12,2018_Sep_19_1617,MP_PerceptionTuring2,59.958792076494305,
100,resources/videos_generated\model(vcgpdm)-dataset(walking)-mode(ELBO)-parts(1)-dyn(26)-lvm(22)_final(0).mov,resources/videos_natural\training(24).mov,False,True,left,0,99,99,99,2018-09-19 16:28:45.467976,2018-09-19 16:28:49.388200,0:00:03.920224,3,right,0,0.4172148970901617,20,f,1,12,2018_Sep_19_1617,MP_PerceptionTuring2,59.958792076494305,
101,resources/videos_generated\model(vcgpdm)-dataset(walking)-mode(ELBO)-parts(1)-dyn(27)-lvm(28)_final(1).mov,resources/videos_natural\training(27).mov,True,False,right,0,100,100,100,2018-09-19 16:28:50.922287,2018-09-19 16:28:54.859513,0:00:03.937226,3,left,0,0.4173998156838934,20,f,1,12,2018_Sep_19_1617,MP_PerceptionTuring2,59.958792076494305,
102,resources/videos_generated\model(dmp)-dataset(walking)-npsi(60)_final(0).mov,resources/videos_natural\training(12).mov,False,True,left,0,101,101,101,2018-09-19 16:28:56.393600,2018-09-19 16:29:00.296824,0:00:03.903224,3,left,1,0.9510399412120023,20,f,1,12,2018_Sep_19_1617,MP_PerceptionTuring2,59.958792076494305,
103,resources/videos_generated\model(tmp)-dataset(walking)-numprim(12)_final(8).mov,resources/videos_natural\training(24).mov,True,False,right,0,102,102,102,2018-09-19 16:29:02.365942,2018-09-19 16:29:06.302167,0:00:03.936225,3,left,0,0.6676546057988162,20,f,1,12,2018_Sep_19_1617,MP_PerceptionTuring2,59.958792076494305,
104,resources/videos_generated\model(vcgpdm)-dataset(walking)-mode(ELBO)-parts(1)-dyn(24)-lvm(27)_final(0).mov,resources/videos_natural\training(23).mov,False,False,right,0,103,103,103,2018-09-19 16:29:08.087269,2018-09-19 16:29:12.007493,0:00:03.920224,3,right,1,0.36714954312446935,20,f,1,12,2018_Sep_19_1617,MP_PerceptionTuring2,59.958792076494305,
105,resources/videos_generated\model(vcgpdm)-dataset(walking)-mode(ELBO)-parts(1)-dyn(27)-lvm(28)_final(3).mov,resources/videos_natural\training(0).mov,True,False,right,0,104,104,104,2018-09-19 16:29:13.491578,2018-09-19 16:29:17.378801,0:00:03.887223,3,left,0,0.3838858805320342,20,f,1,12,2018_Sep_19_1617,MP_PerceptionTuring2,59.958792076494305,
106,resources/videos_generated\model(vcgpdm)-dataset(walking)-mode(ELBO)-parts(1)-dyn(23)-lvm(24)_final(1).mov,resources/videos_natural\training(29).mov,True,True,left,0,105,105,105,2018-09-19 16:29:18.879887,2018-09-19 16:29:22.800111,0:00:03.920224,3,left,1,0.38396388365254097,20,f,1,12,2018_Sep_19_1617,MP_PerceptionTuring2,59.958792076494305,
107,resources/videos_generated\model(vcgpdm)-dataset(walking)-mode(ELBO)-parts(1)-dyn(25)-lvm(28)_final(0).mov,resources/videos_natural\training(43).mov,False,False,right,0,106,106,106,2018-09-19 16:29:24.301197,2018-09-19 16:29:28.204420,0:00:03.903223,3,right,1,0.35052433757664403,20,f,1,12,2018_Sep_19_1617,MP_PerceptionTuring2,59.958792076494305,
108,resources/videos_generated\model(vcgpdm)-dataset(walking)-mode(ELBO)-parts(1)-dyn(22)-lvm(25)_final(6).mov,resources/videos_natural\training(39).mov,True,False,right,0,107,107,107,2018-09-19 16:29:29.672504,2018-09-19 16:29:33.558726,0:00:03.886222,3,right,1,0.4340304422985355,20,f,1,12,2018_Sep_19_1617,MP_PerceptionTuring2,59.958792076494305,
109,resources/videos_generated\model(vcgpdm)-dataset(walking)-mode(ELBO)-parts(1)-dyn(23)-lvm(22)_final(7).mov,resources/videos_natural\training(25).mov,False,True,left,0,108,108,108,2018-09-19 16:29:35.110815,2018-09-19 16:29:38.997037,0:00:03.886222,3,right,0,0.5341229015957651,20,f,1,12,2018_Sep_19_1617,MP_PerceptionTuring2,59.958792076494305,
110,resources/videos_generated\model(vcgpdm)-dataset(walking)-mode(ELBO)-parts(1)-dyn(27)-lvm(26)_final(9).mov,resources/videos_natural\training(2).mov,True,False,right,0,109,109,109,2018-09-19 16:29:40.648132,2018-09-19 16:29:44.535354,0:00:03.887222,3,right,1,0.41726037381340575,20,f,1,12,2018_Sep_19_1617,MP_PerceptionTuring2,59.958792076494305,
111,resources/videos_generated\model(vcgpdm)-dataset(walking)-mode(ELBO)-parts(2)-dyn(24)-lvm(19)_final(3).mov,resources/videos_natural\training(10).mov,False,True,left,0,110,110,110,2018-09-19 16:29:46.070442,2018-09-19 16:29:49.973665,0:00:03.903223,3,left,1,0.7175588336267538,20,f,1,12,2018_Sep_19_1617,MP_PerceptionTuring2,59.958792076494305,
112,resources/videos_generated\model(vcgpdm)-dataset(walking)-mode(ELBO)-parts(2)-dyn(22)-lvm(21)_final(3).mov,resources/videos_natural\training(47).mov,True,True,left,0,111,111,111,2018-09-19 16:29:51.808770,2018-09-19 16:29:55.727994,0:00:03.919224,3,left,1,0.36716701100522187,20,f,1,12,2018_Sep_19_1617,MP_PerceptionTuring2,59.958792076494305,
113,resources/videos_generated\model(vcgpdm)-dataset(walking)-mode(ELBO)-parts(1)-dyn(22)-lvm(28)_final(0).mov,resources/videos_natural\training(44).mov,False,False,right,0,112,112,112,2018-09-19 16:29:57.213079,2018-09-19 16:30:01.133303,0:00:03.920224,3,right,1,0.40079990844424174,20,f,1,12,2018_Sep_19_1617,MP_PerceptionTuring2,59.958792076494305,
114,resources/videos_generated\model(vcgpdm)-dataset(walking)-mode(ELBO)-parts(1)-dyn(28)-lvm(25)_final(5).mov,resources/videos_natural\training(22).mov,False,False,right,0,113,113,113,2018-09-19 16:30:02.650390,2018-09-19 16:30:06.570614,0:00:03.920224,3,right,1,0.2838385967861541,20,f,1,12,2018_Sep_19_1617,MP_PerceptionTuring2,59.958792076494305,
115,resources/videos_generated\model(vcgpdm)-dataset(walking)-mode(ELBO)-parts(1)-dyn(24)-lvm(25)_final(2).mov,resources/videos_natural\training(0).mov,True,True,left,0,114,114,114,2018-09-19 16:30:07.972695,2018-09-19 16:30:11.875918,0:00:03.903223,3,right,0,0.333803962195816,20,f,1,12,2018_Sep_19_1617,MP_PerceptionTuring2,59.958792076494305,
116,resources/videos_generated\model(vcgpdm)-dataset(walking)-mode(ELBO)-parts(2)-dyn(22)-lvm(23)_final(7).mov,resources/videos_natural\training(9).mov,False,True,left,0,115,115,115,2018-09-19 16:30:13.327001,2018-09-19 16:30:17.247225,0:00:03.920224,3,left,1,0.5340765213622944,20,f,1,12,2018_Sep_19_1617,MP_PerceptionTuring2,59.958792076494305,
117,resources/videos_generated\model(tmp)-dataset(walking)-numprim(14)_final(6).mov,resources/videos_natural\training(28).mov,False,True,left,0,116,116,116,2018-09-19 16:30:18.898319,2018-09-19 16:30:22.801543,0:00:03.903224,3,right,0,0.31703238785848953,20,f,1,12,2018_Sep_19_1617,MP_PerceptionTuring2,59.958792076494305,
118,resources/videos_generated\model(tmp)-dataset(walking)-numprim(15)_final(6).mov,resources/videos_natural\training(14).mov,True,True,left,0,117,117,117,2018-09-19 16:30:24.236625,2018-09-19 16:30:28.172850,0:00:03.936225,3,left,1,0.3173730115231592,20,f,1,12,2018_Sep_19_1617,MP_PerceptionTuring2,59.958792076494305,
119,resources/videos_generated\model(vcgpdm)-dataset(walking)-mode(ELBO)-parts(2)-dyn(26)-lvm(23)_final(9).mov,resources/videos_natural\training(32).mov,True,False,right,0,118,118,118,2018-09-19 16:30:29.607932,2018-09-19 16:30:33.511155,0:00:03.903223,3,right,1,0.36728928616503254,20,f,1,12,2018_Sep_19_1617,MP_PerceptionTuring2,59.958792076494305,
120,resources/videos_generated\model(vcgpdm)-dataset(walking)-mode(ELBO)-parts(2)-dyn(27)-lvm(18)_final(7).mov,resources/videos_natural\training(6).mov,False,False,right,0,119,119,119,2018-09-19 16:30:34.995240,2018-09-19 16:30:38.882462,0:00:03.887222,3,right,1,0.31717303441109834,20,f,1,12,2018_Sep_19_1617,MP_PerceptionTuring2,59.958792076494305,
121,resources/videos_generated\model(vcgpdm)-dataset(walking)-mode(ELBO)-parts(2)-dyn(25)-lvm(18)_final(7).mov,resources/videos_natural\training(29).mov,False,False,right,0,120,120,120,2018-09-19 16:30:40.316544,2018-09-19 16:30:44.220768,0:00:03.904224,3,right,1,0.3174380643176846,20,f,1,12,2018_Sep_19_1617,MP_PerceptionTuring2,59.958792076494305,
122,resources/videos_generated\model(vcgpdm)-dataset(walking)-mode(ELBO)-parts(2)-dyn(28)-lvm(23)_final(7).mov,resources/videos_natural\training(29).mov,True,True,left,0,121,121,121,2018-09-19 16:30:45.654850,2018-09-19 16:30:49.591075,0:00:03.936225,3,right,0,0.5339584625853604,20,f,1,12,2018_Sep_19_1617,MP_PerceptionTuring2,59.958792076494305,
123,resources/videos_generated\model(vcgpdm)-dataset(walking)-mode(ELBO)-parts(2)-dyn(25)-lvm(22)_final(3).mov,resources/videos_natural\training(32).mov,True,True,left,0,122,122,122,2018-09-19 16:30:51.243169,2018-09-19 16:30:55.146393,0:00:03.903224,3,left,1,0.5173299441630661,20,f,1,12,2018_Sep_19_1617,MP_PerceptionTuring2,59.958792076494305,
124,resources/videos_generated\model(dmp)-dataset(walking)-npsi(70)_final(2).mov,resources/videos_natural\training(46).mov,True,True,left,0,123,123,123,2018-09-19 16:30:56.781486,2018-09-19 16:31:00.667708,0:00:03.886222,3,left,1,0.28374643866118276,20,f,1,12,2018_Sep_19_1617,MP_PerceptionTuring2,59.958792076494305,
125,resources/videos_generated\model(vcgpdm)-dataset(walking)-mode(ELBO)-parts(1)-dyn(22)-lvm(23)_final(8).mov,resources/videos_natural\training(44).mov,True,False,right,0,124,124,124,2018-09-19 16:31:02.068789,2018-09-19 16:31:05.989013,0:00:03.920224,3,right,1,0.30055294875819527,20,f,1,12,2018_Sep_19_1617,MP_PerceptionTuring2,59.958792076494305,
126,resources/videos_generated\model(vcgpdm)-dataset(walking)-mode(ELBO)-parts(2)-dyn(28)-lvm(17)_final(5).mov,resources/videos_natural\training(31).mov,False,False,right,0,125,125,125,2018-09-19 16:31:07.407094,2018-09-19 16:31:11.310317,0:00:03.903223,3,right,1,0.600689981267351,20,f,1,12,2018_Sep_19_1617,MP_PerceptionTuring2,59.958792076494305,
127,resources/videos_generated\model(vcgpdm)-dataset(walking)-mode(ELBO)-parts(1)-dyn(25)-lvm(24)_final(5).mov,resources/videos_natural\training(20).mov,True,True,left,0,126,126,126,2018-09-19 16:31:13.028415,2018-09-19 16:31:16.948640,0:00:03.920225,3,left,1,0.41725826561923895,20,f,1,12,2018_Sep_19_1617,MP_PerceptionTuring2,59.958792076494305,
128,resources/videos_generated\model(vcgpdm)-dataset(walking)-mode(ELBO)-parts(2)-dyn(24)-lvm(17)_final(9).mov,resources/videos_natural\training(9).mov,False,True,left,0,127,127,127,2018-09-19 16:31:18.483728,2018-09-19 16:31:22.386951,0:00:03.903223,3,right,0,0.3004360946633824,20,f,1,12,2018_Sep_19_1617,MP_PerceptionTuring2,59.958792076494305,
129,resources/videos_generated\model(vcgpdm)-dataset(walking)-mode(ELBO)-parts(2)-dyn(24)-lvm(21)_final(7).mov,resources/videos_natural\training(30).mov,False,True,left,0,128,128,128,2018-09-19 16:31:23.804032,2018-09-19 16:31:27.708255,0:00:03.904223,3,right,0,0.05036923484658473,20,f,1,12,2018_Sep_19_1617,MP_PerceptionTuring2,59.958792076494305,
130,resources/videos_generated\model(vcgpdm)-dataset(walking)-mode(ELBO)-parts(1)-dyn(27)-lvm(26)_final(3).mov,resources/videos_natural\training(25).mov,False,False,right,0,129,129,129,2018-09-19 16:31:28.875322,2018-09-19 16:31:32.778545,0:00:03.903223,3,right,1,0.3672371836964885,20,f,1,12,2018_Sep_19_1617,MP_PerceptionTuring2,59.958792076494305,
131,resources/videos_generated\model(tmp)-dataset(walking)-numprim(11)_final(4).mov,resources/videos_natural\training(12).mov,True,True,left,0,130,130,130,2018-09-19 16:31:34.263630,2018-09-19 16:31:38.183854,0:00:03.920224,3,right,0,0.4172414000804565,20,f,1,12,2018_Sep_19_1617,MP_PerceptionTuring2,59.958792076494305,
132,resources/videos_generated\model(vcgpdm)-dataset(walking)-mode(ELBO)-parts(1)-dyn(25)-lvm(24)_final(1).mov,resources/videos_natural\training(46).mov,False,False,right,0,131,131,131,2018-09-19 16:31:39.717942,2018-09-19 16:31:43.638166,0:00:03.920224,3,right,1,0.4174115613259346,20,f,1,12,2018_Sep_19_1617,MP_PerceptionTuring2,59.958792076494305,
133,resources/videos_generated\model(dmp)-dataset(walking)-npsi(50)_final(4).mov,resources/videos_natural\training(38).mov,False,True,left,0,132,132,132,2018-09-19 16:31:45.173254,2018-09-19 16:31:49.109479,0:00:03.936225,3,right,0,0.46729290020994085,20,f,1,12,2018_Sep_19_1617,MP_PerceptionTuring2,59.958792076494305,
134,resources/videos_generated\model(vcgpdm)-dataset(walking)-mode(ELBO)-parts(1)-dyn(25)-lvm(22)_final(6).mov,resources/videos_natural\training(43).mov,True,False,right,0,133,133,133,2018-09-19 16:31:50.694570,2018-09-19 16:31:54.580792,0:00:03.886222,3,right,1,0.3004195302946755,20,f,1,12,2018_Sep_19_1617,MP_PerceptionTuring2,59.958792076494305,
135,resources/videos_generated\model(vcgpdm)-dataset(walking)-mode(ELBO)-parts(2)-dyn(27)-lvm(22)_final(1).mov,resources/videos_natural\training(3).mov,False,False,right,0,134,134,134,2018-09-19 16:31:55.998873,2018-09-19 16:31:59.919097,0:00:03.920224,3,right,1,0.4506634782774199,20,f,1,12,2018_Sep_19_1617,MP_PerceptionTuring2,59.958792076494305,
136,resources/videos_generated\model(dmp)-dataset(walking)-npsi(60)_final(8).mov,resources/videos_natural\training(31).mov,True,True,left,0,135,135,135,2018-09-19 16:32:32.913985,2018-09-19 16:32:36.851210,0:00:03.937225,4,left,1,0.3005041591641202,20,f,1,12,2018_Sep_19_1617,MP_PerceptionTuring2,59.958792076494305,
137,resources/videos_generated\model(dmp)-dataset(walking)-npsi(70)_final(4).mov,resources/videos_natural\training(37).mov,True,False,right,0,136,136,136,2018-09-19 16:32:38.268291,2018-09-19 16:32:42.172514,0:00:03.904223,4,right,1,0.2503743547422346,20,f,1,12,2018_Sep_19_1617,MP_PerceptionTuring2,59.958792076494305,
138,resources/videos_generated\model(tmp)-dataset(walking)-numprim(11)_final(6).mov,resources/videos_natural\training(17).mov,True,False,right,0,137,137,137,2018-09-19 16:32:43.542593,2018-09-19 16:32:47.459817,0:00:03.917224,4,right,1,2.0017657617518125,20,f,1,12,2018_Sep_19_1617,MP_PerceptionTuring2,59.958792076494305,
139,resources/videos_generated\model(vcgpdm)-dataset(walking)-mode(ELBO)-parts(1)-dyn(25)-lvm(26)_final(8).mov,resources/videos_natural\training(10).mov,False,True,left,0,138,138,138,2018-09-19 16:32:50.579995,2018-09-19 16:32:54.482218,0:00:03.902223,4,right,0,0.28375878664519405,20,f,1,12,2018_Sep_19_1617,MP_PerceptionTuring2,59.958792076494305,
140,resources/videos_generated\model(vcgpdm)-dataset(walking)-mode(ELBO)-parts(1)-dyn(28)-lvm(27)_final(3).mov,resources/videos_natural\training(45).mov,False,False,right,0,139,139,139,2018-09-19 16:32:55.884299,2018-09-19 16:32:59.804523,0:00:03.920224,4,right,1,0.26709352544094145,20,f,1,12,2018_Sep_19_1617,MP_PerceptionTuring2,59.958792076494305,
141,resources/videos_generated\model(tmp)-dataset(walking)-numprim(13)_final(4).mov,resources/videos_natural\training(4).mov,True,True,left,0,140,140,140,2018-09-19 16:33:01.188602,2018-09-19 16:33:05.108826,0:00:03.920224,4,left,1,0.3338714243545837,20,f,1,12,2018_Sep_19_1617,MP_PerceptionTuring2,59.958792076494305,
142,resources/videos_generated\model(vcgpdm)-dataset(walking)-mode(ELBO)-parts(1)-dyn(25)-lvm(26)_final(4)_fail.mov,resources/videos_natural\training(26).mov,True,False,right,0,141,141,141,2018-09-19 16:33:06.559909,2018-09-19 16:33:10.480133,0:00:03.920224,4,right,1,0.30050024394768116,20,f,1,12,2018_Sep_19_1617,MP_PerceptionTuring2,59.958792076494305,
143,resources/videos_generated\model(vcgpdm)-dataset(walking)-mode(ELBO)-parts(2)-dyn(25)-lvm(18)_final(3).mov,resources/videos_natural\training(35).mov,True,True,left,0,142,142,142,2018-09-19 16:33:11.898214,2018-09-19 16:33:15.784437,0:00:03.886223,4,left,1,0.3671706250479474,20,f,1,12,2018_Sep_19_1617,MP_PerceptionTuring2,59.958792076494305,
144,resources/videos_generated\model(dmp)-dataset(walking)-npsi(50)_final(8).mov,resources/videos_natural\training(41).mov,True,True,left,0,143,143,143,2018-09-19 16:33:17.269522,2018-09-19 16:33:21.155744,0:00:03.886222,4,right,0,0.35048006553370215,20,f,1,12,2018_Sep_19_1617,MP_PerceptionTuring2,59.958792076494305,
145,resources/videos_generated\model(vcgpdm)-dataset(walking)-mode(ELBO)-parts(1)-dyn(26)-lvm(27)_final(7).mov,resources/videos_natural\training(17).mov,True,True,left,0,144,144,144,2018-09-19 16:33:22.623828,2018-09-19 16:33:26.544052,0:00:03.920224,4,right,0,0.6175148627571616,20,f,1,12,2018_Sep_19_1617,MP_PerceptionTuring2,59.958792076494305,
146,resources/videos_generated\model(tmp)-dataset(walking)-numprim(15)_final(4).mov,resources/videos_natural\training(30).mov,False,False,right,0,145,145,145,2018-09-19 16:33:28.278151,2018-09-19 16:33:32.198376,0:00:03.920225,4,right,1,0.5839795445099298,20,f,1,12,2018_Sep_19_1617,MP_PerceptionTuring2,59.958792076494305,
147,resources/videos_generated\model(vcgpdm)-dataset(walking)-mode(ELBO)-parts(1)-dyn(24)-lvm(27)_final(8).mov,resources/videos_natural\training(5).mov,True,True,left,0,146,146,146,2018-09-19 16:33:33.900473,2018-09-19 16:33:37.820697,0:00:03.920224,4,left,1,0.1837446316385467,20,f,1,12,2018_Sep_19_1617,MP_PerceptionTuring2,59.958792076494305,
148,resources/videos_generated\model(vcgpdm)-dataset(walking)-mode(ELBO)-parts(1)-dyn(25)-lvm(24)_final(3).mov,resources/videos_natural\training(24).mov,True,True,left,0,147,147,147,2018-09-19 16:33:39.120771,2018-09-19 16:33:43.074998,0:00:03.954227,4,left,1,0.11706732361926697,20,f,1,12,2018_Sep_19_1617,MP_PerceptionTuring2,59.958792076494305,
149,resources/videos_generated\model(dmp)-dataset(walking)-npsi(100)_final(4).mov,resources/videos_natural\training(33).mov,True,True,left,0,148,148,148,2018-09-19 16:33:44.309068,2018-09-19 16:33:48.229292,0:00:03.920224,4,left,1,0.30051951885070594,20,f,1,12,2018_Sep_19_1617,MP_PerceptionTuring2,59.958792076494305,
150,resources/videos_generated\model(vcgpdm)-dataset(walking)-mode(ELBO)-parts(1)-dyn(28)-lvm(25)_final(7).mov,resources/videos_natural\training(34).mov,False,False,right,0,149,149,149,2018-09-19 16:33:49.647374,2018-09-19 16:33:53.567598,0:00:03.920224,4,right,1,0.28392141863332654,20,f,1,12,2018_Sep_19_1617,MP_PerceptionTuring2,59.958792076494305,
151,resources/videos_generated\model(vcgpdm)-dataset(walking)-mode(ELBO)-parts(2)-dyn(26)-lvm(21)_final(1).mov,resources/videos_natural\training(8).mov,True,True,left,0,150,150,150,2018-09-19 16:33:54.968678,2018-09-19 16:33:58.904903,0:00:03.936225,4,left,1,0.31726097615319304,20,f,1,12,2018_Sep_19_1617,MP_PerceptionTuring2,59.958792076494305,
152,resources/videos_generated\model(vcgpdm)-dataset(walking)-mode(ELBO)-parts(2)-dyn(27)-lvm(22)_final(5).mov,resources/videos_natural\training(46).mov,False,False,right,0,151,151,151,2018-09-19 16:34:00.339985,2018-09-19 16:34:04.243208,0:00:03.903223,4,right,1,0.2672760346704308,20,f,1,12,2018_Sep_19_1617,MP_PerceptionTuring2,59.958792076494305,
153,resources/videos_generated\model(vcgpdm)-dataset(walking)-mode(ELBO)-parts(2)-dyn(23)-lvm(18)_final(7).mov,resources/videos_natural\training(23).mov,True,True,left,0,152,152,152,2018-09-19 16:34:05.627288,2018-09-19 16:34:09.530511,0:00:03.903223,4,left,1,0.36716189110848063,20,f,1,12,2018_Sep_19_1617,MP_PerceptionTuring2,59.958792076494305,
154,resources/videos_generated\model(vcgpdm)-dataset(walking)-mode(ELBO)-parts(1)-dyn(28)-lvm(27)_final(9).mov,resources/videos_natural\training(47).mov,True,True,left,0,153,153,153,2018-09-19 16:34:11.015596,2018-09-19 16:34:14.918819,0:00:03.903223,4,right,0,0.23371300875260204,20,f,1,12,2018_Sep_19_1617,MP_PerceptionTuring2,59.958792076494305,
155,resources/videos_generated\model(vcgpdm)-dataset(walking)-mode(ELBO)-parts(2)-dyn(26)-lvm(19)_final(7).mov,resources/videos_natural\training(5).mov,False,False,right,0,154,154,154,2018-09-19 16:34:16.269896,2018-09-19 16:34:20.157119,0:00:03.887223,4,right,1,0.2671242448141129,20,f,1,12,2018_Sep_19_1617,MP_PerceptionTuring2,59.958792076494305,
156,resources/videos_generated\model(vcgpdm)-dataset(walking)-mode(ELBO)-parts(2)-dyn(26)-lvm(21)_final(9).mov,resources/videos_natural\training(47).mov,False,False,right,0,155,155,155,2018-09-19 16:34:21.541198,2018-09-19 16:34:25.461422,0:00:03.920224,4,left,0,0.23375607611160376,20,f,1,12,2018_Sep_19_1617,MP_PerceptionTuring2,59.958792076494305,
157,resources/videos_generated\model(dmp)-dataset(walking)-npsi(50)_final(6).mov,resources/videos_natural\training(13).mov,False,False,right,0,156,156,156,2018-09-19 16:34:26.812499,2018-09-19 16:34:30.732724,0:00:03.920225,4,right,1,0.21730073063918098,20,f,1,12,2018_Sep_19_1617,MP_PerceptionTuring2,59.958792076494305,
158,resources/videos_generated\model(vcgpdm)-dataset(walking)-mode(ELBO)-parts(2)-dyn(27)-lvm(20)_final(1).mov,resources/videos_natural\training(27).mov,True,True,left,0,157,157,157,2018-09-19 16:34:32.066800,2018-09-19 16:34:36.020026,0:00:03.953226,4,left,1,0.3672941048916982,20,f,1,12,2018_Sep_19_1617,MP_PerceptionTuring2,59.958792076494305,
159,resources/videos_generated\model(vcgpdm)-dataset(walking)-mode(ELBO)-parts(1)-dyn(24)-lvm(25)_final(4).mov,resources/videos_natural\training(15).mov,True,True,left,0,158,158,158,2018-09-19 16:34:37.505111,2018-09-19 16:34:41.408334,0:00:03.903223,4,left,1,0.2003565856921341,20,f,1,12,2018_Sep_19_1617,MP_PerceptionTuring2,59.958792076494305,
160,resources/videos_generated\model(vcgpdm)-dataset(walking)-mode(ELBO)-parts(2)-dyn(22)-lvm(19)_final(7).mov,resources/videos_natural\training(16).mov,False,False,right,0,159,159,159,2018-09-19 16:34:42.726410,2018-09-19 16:34:46.629633,0:00:03.903223,4,right,1,0.567600093963847,20,f,1,12,2018_Sep_19_1617,MP_PerceptionTuring2,59.958792076494305,
161,resources/videos_generated\model(vcgpdm)-dataset(walking)-mode(ELBO)-parts(2)-dyn(25)-lvm(18)_final(5).mov,resources/videos_natural\training(17).mov,True,False,right,0,160,160,160,2018-09-19 16:34:48.314729,2018-09-19 16:34:52.250954,0:00:03.936225,4,left,0,0.2838096844334359,20,f,1,12,2018_Sep_19_1617,MP_PerceptionTuring2,59.958792076494305,
162,resources/videos_generated\model(dmp)-dataset(walking)-npsi(70)_final(8).mov,resources/videos_natural\training(42).mov,False,False,right,0,161,161,161,2018-09-19 16:34:53.652034,2018-09-19 16:34:57.556258,0:00:03.904224,4,right,1,0.21724712231662124,20,f,1,12,2018_Sep_19_1617,MP_PerceptionTuring2,59.958792076494305,
163,resources/videos_generated\model(vcgpdm)-dataset(walking)-mode(ELBO)-parts(2)-dyn(28)-lvm(19)_final(9).mov,resources/videos_natural\training(44).mov,True,False,right,0,162,162,162,2018-09-19 16:34:58.890334,2018-09-19 16:35:02.793557,0:00:03.903223,4,right,1,0.40050235214039276,20,f,1,12,2018_Sep_19_1617,MP_PerceptionTuring2,59.958792076494305,
164,resources/videos_generated\model(vcgpdm)-dataset(walking)-mode(ELBO)-parts(2)-dyn(22)-lvm(21)_final(1).mov,resources/videos_natural\training(17).mov,True,True,left,0,163,163,163,2018-09-19 16:35:04.311644,2018-09-19 16:35:08.231868,0:00:03.920224,4,left,1,0.2843972677819693,20,f,1,12,2018_Sep_19_1617,MP_PerceptionTuring2,59.958792076494305,
165,resources/videos_generated\model(vcgpdm)-dataset(walking)-mode(ELBO)-parts(1)-dyn(23)-lvm(24)_final(3).mov,resources/videos_natural\training(9).mov,True,True,left,0,164,164,164,2018-09-19 16:35:09.632948,2018-09-19 16:35:13.553173,0:00:03.920225,4,left,1,1.1846129057503276,20,f,1,12,2018_Sep_19_1617,MP_PerceptionTuring2,59.958792076494305,
166,resources/videos_generated\model(tmp)-dataset(walking)-numprim(13)_final(6).mov,resources/videos_natural\training(32).mov,False,False,right,0,165,165,165,2018-09-19 16:35:15.855304,2018-09-19 16:35:19.741527,0:00:03.886223,4,right,1,0.5340915798806236,20,f,1,12,2018_Sep_19_1617,MP_PerceptionTuring2,59.958792076494305,
167,resources/videos_generated\model(vcgpdm)-dataset(walking)-mode(ELBO)-parts(2)-dyn(24)-lvm(21)_final(9).mov,resources/videos_natural\training(26).mov,False,True,left,0,166,166,166,2018-09-19 16:35:21.392621,2018-09-19 16:35:25.279843,0:00:03.887222,4,right,0,0.4673477132128028,20,f,1,12,2018_Sep_19_1617,MP_PerceptionTuring2,59.958792076494305,
168,resources/videos_generated\model(vcgpdm)-dataset(walking)-mode(ELBO)-parts(1)-dyn(23)-lvm(26)_final(1)_hip-corrected.mov,resources/videos_natural\training(44).mov,False,False,right,0,167,167,167,2018-09-19 16:35:26.863934,2018-09-19 16:35:30.784158,0:00:03.920224,4,right,1,0.2838891934043204,20,f,1,12,2018_Sep_19_1617,MP_PerceptionTuring2,59.958792076494305,
169,resources/videos_generated\model(dmp)-dataset(walking)-npsi(70)_final(0).mov,resources/videos_natural\training(40).mov,False,True,left,0,168,168,168,2018-09-19 16:35:32.185238,2018-09-19 16:35:36.105463,0:00:03.920225,4,right,0,0.41723266613917076,20,f,1,12,2018_Sep_19_1617,MP_PerceptionTuring2,59.958792076494305,
170,resources/videos_generated\model(vcgpdm)-dataset(walking)-mode(ELBO)-parts(2)-dyn(22)-lvm(17)_final(3).mov,resources/videos_natural\training(14).mov,True,True,left,0,169,169,169,2018-09-19 16:35:37.640550,2018-09-19 16:35:41.576776,0:00:03.936226,4,left,1,0.3172130900675256,20,f,1,12,2018_Sep_19_1617,MP_PerceptionTuring2,59.958792076494305,
171,resources/videos_generated\model(vcgpdm)-dataset(walking)-mode(ELBO)-parts(1)-dyn(28)-lvm(23)_final(3)_fail.mov,resources/videos_natural\training(11).mov,True,True,left,0,170,170,170,2018-09-19 16:35:43.011858,2018-09-19 16:35:46.898080,0:00:03.886222,4,left,1,0.08363801733503351,20,f,1,12,2018_Sep_19_1617,MP_PerceptionTuring2,59.958792076494305,
172,resources/videos_generated\model(vcgpdm)-dataset(walking)-mode(ELBO)-parts(1)-dyn(24)-lvm(25)_final(6).mov,resources/videos_natural\training(10).mov,True,False,right,0,171,171,171,2018-09-19 16:35:48.099149,2018-09-19 16:35:52.019373,0:00:03.920224,4,left,0,0.500664984128889,20,f,1,12,2018_Sep_19_1617,MP_PerceptionTuring2,59.958792076494305,
173,resources/videos_generated\model(vcgpdm)-dataset(walking)-mode(ELBO)-parts(1)-dyn(27)-lvm(24)_final(7).mov,resources/videos_natural\training(29).mov,True,True,left,0,172,172,172,2018-09-19 16:35:53.637465,2018-09-19 16:35:57.540689,0:00:03.903224,4,right,0,0.4339973135611217,20,f,1,12,2018_Sep_19_1617,MP_PerceptionTuring2,59.958792076494305,
174,resources/videos_generated\model(vcgpdm)-dataset(walking)-mode(ELBO)-parts(1)-dyn(22)-lvm(22)_final(4).mov,resources/videos_natural\training(8).mov,False,False,right,0,173,173,173,2018-09-19 16:35:59.091777,2018-09-19 16:36:02.996001,0:00:03.904224,4,right,1,0.2671124991702527,20,f,1,12,2018_Sep_19_1617,MP_PerceptionTuring2,59.958792076494305,
175,resources/videos_generated\model(vcgpdm)-dataset(walking)-mode(ELBO)-parts(1)-dyn(27)-lvm(22)_final(9).mov,resources/videos_natural\training(38).mov,False,True,left,0,174,174,174,2018-09-19 16:36:04.380080,2018-09-19 16:36:08.283303,0:00:03.903223,4,right,0,0.01701401646823797,20,f,1,12,2018_Sep_19_1617,MP_PerceptionTuring2,59.958792076494305,
176,resources/videos_generated\model(vcgpdm)-dataset(walking)-mode(ELBO)-parts(1)-dyn(23)-lvm(26)_final(7).mov,resources/videos_natural\training(11).mov,False,False,right,0,175,175,175,2018-09-19 16:36:09.417368,2018-09-19 16:36:13.321591,0:00:03.904223,4,right,1,0.46724772465677233,20,f,1,12,2018_Sep_19_1617,MP_PerceptionTuring2,59.958792076494305,
177,resources/videos_generated\model(vcgpdm)-dataset(walking)-mode(ELBO)-parts(1)-dyn(23)-lvm(22)_final(3)_fail.mov,resources/videos_natural\training(1).mov,True,True,left,0,176,176,176,2018-09-19 16:36:14.905682,2018-09-19 16:36:18.808905,0:00:03.903223,4,left,1,0.5839271408694913,20,f,1,12,2018_Sep_19_1617,MP_PerceptionTuring2,59.958792076494305,
178,resources/videos_generated\model(dmp)-dataset(walking)-npsi(80)_final(0).mov,resources/videos_natural\training(19).mov,True,True,left,0,177,177,177,2018-09-19 16:36:20.511002,2018-09-19 16:36:24.431227,0:00:03.920225,4,right,0,0.3837271637585218,20,f,1,12,2018_Sep_19_1617,MP_PerceptionTuring2,59.958792076494305,
179,resources/videos_generated\model(vcgpdm)-dataset(walking)-mode(ELBO)-parts(1)-dyn(23)-lvm(28)_final(2).mov,resources/videos_natural\training(33).mov,False,False,right,0,178,178,178,2018-09-19 16:36:25.932313,2018-09-19 16:36:29.852537,0:00:03.920224,4,right,1,0.05034574355886434,20,f,1,12,2018_Sep_19_1617,MP_PerceptionTuring2,59.958792076494305,
180,resources/videos_generated\model(vcgpdm)-dataset(walking)-mode(ELBO)-parts(2)-dyn(24)-lvm(23)_final(7).mov,resources/videos_natural\training(37).mov,True,False,right,0,179,179,179,2018-09-19 16:36:31.019604,2018-09-19 16:36:34.939828,0:00:03.920224,4,right,1,0.45061047229683027,20,f,1,12,2018_Sep_19_1617,MP_PerceptionTuring2,59.958792076494305,
181,resources/videos_generated\model(vcgpdm)-dataset(walking)-mode(ELBO)-parts(2)-dyn(27)-lvm(20)_final(9).mov,resources/videos_natural\training(1).mov,True,True,left,0,180,180,180,2018-09-19 16:37:08.318737,2018-09-19 16:37:12.271963,0:00:03.953226,5,left,1,0.21702907498547575,20,f,1,12,2018_Sep_19_1617,MP_PerceptionTuring2,59.958792076494305,
182,resources/videos_generated\model(tmp)-dataset(walking)-numprim(12)_final(0).mov,resources/videos_natural\training(30).mov,False,True,left,0,181,181,181,2018-09-19 16:37:13.607039,2018-09-19 16:37:17.526264,0:00:03.919225,5,right,0,0.25050927905795106,20,f,1,12,2018_Sep_19_1617,MP_PerceptionTuring2,59.958792076494305,
183,resources/videos_generated\model(vcgpdm)-dataset(walking)-mode(ELBO)-parts(2)-dyn(22)-lvm(19)_final(1).mov,resources/videos_natural\training(36).mov,True,True,left,0,182,182,182,2018-09-19 16:37:18.894342,2018-09-19 16:37:22.797565,0:00:03.903223,5,left,1,0.46733777459121484,20,f,1,12,2018_Sep_19_1617,MP_PerceptionTuring2,59.958792076494305,
184,resources/videos_generated\model(vcgpdm)-dataset(walking)-mode(ELBO)-parts(2)-dyn(26)-lvm(23)_final(3).mov,resources/videos_natural\training(43).mov,False,True,left,0,183,183,183,2018-09-19 16:37:24.382656,2018-09-19 16:37:28.285879,0:00:03.903223,5,left,1,2.2189839717138966,20,f,1,12,2018_Sep_19_1617,MP_PerceptionTuring2,59.958792076494305,
185,resources/videos_generated\model(vcgpdm)-dataset(walking)-mode(ELBO)-parts(2)-dyn(22)-lvm(23)_final(3).mov,resources/videos_natural\training(10).mov,True,False,right,0,184,184,184,2018-09-19 16:37:31.622070,2018-09-19 16:37:35.525293,0:00:03.903223,5,right,1,0.28398436323550413,20,f,1,12,2018_Sep_19_1617,MP_PerceptionTuring2,59.958792076494305,
186,resources/videos_generated\model(vcgpdm)-dataset(walking)-mode(ELBO)-parts(1)-dyn(23)-lvm(22)_final(9)_fail.mov,resources/videos_natural\training(37).mov,True,True,left,0,185,185,185,2018-09-19 16:37:36.926373,2018-09-19 16:37:40.813596,0:00:03.887223,5,left,1,0.3337340906764439,20,f,1,12,2018_Sep_19_1617,MP_PerceptionTuring2,59.958792076494305,
187,resources/videos_generated\model(vcgpdm)-dataset(walking)-mode(ELBO)-parts(2)-dyn(24)-lvm(19)_final(1).mov,resources/videos_natural\training(11).mov,True,False,right,0,186,186,186,2018-09-19 16:37:42.264679,2018-09-19 16:37:46.167902,0:00:03.903223,5,right,1,0.16699684975901619,20,f,1,12,2018_Sep_19_1617,MP_PerceptionTuring2,59.958792076494305,
188,resources/videos_generated\model(vcgpdm)-dataset(walking)-mode(ELBO)-parts(2)-dyn(23)-lvm(22)_final(3).mov,resources/videos_natural\training(2).mov,False,True,left,0,187,187,187,2018-09-19 16:37:47.451975,2018-09-19 16:37:51.356199,0:00:03.904224,5,left,1,0.4339045530941803,20,f,1,12,2018_Sep_19_1617,MP_PerceptionTuring2,59.958792076494305,
189,resources/videos_generated\model(vcgpdm)-dataset(walking)-mode(ELBO)-parts(2)-dyn(28)-lvm(17)_final(3).mov,resources/videos_natural\training(6).mov,False,False,right,0,188,188,188,2018-09-19 16:37:52.907287,2018-09-19 16:37:56.810510,0:00:03.903223,5,right,1,0.3504963287341525,20,f,1,12,2018_Sep_19_1617,MP_PerceptionTuring2,59.958792076494305,
190,resources/videos_generated\model(vcgpdm)-dataset(walking)-mode(ELBO)-parts(2)-dyn(22)-lvm(19)_final(3).mov,resources/videos_natural\training(27).mov,False,False,right,0,189,189,189,2018-09-19 16:37:58.278594,2018-09-19 16:38:02.214820,0:00:03.936226,5,right,1,0.033660906281511416,20,f,1,12,2018_Sep_19_1617,MP_PerceptionTuring2,59.958792076494305,
191,resources/videos_generated\model(vcgpdm)-dataset(walking)-mode(ELBO)-parts(1)-dyn(27)-lvm(22)_final(5).mov,resources/videos_natural\training(28).mov,False,True,left,0,190,190,190,2018-09-19 16:38:03.365885,2018-09-19 16:38:07.303111,0:00:03.937226,5,right,0,3.903600190338693,20,f,1,12,2018_Sep_19_1617,MP_PerceptionTuring2,59.958792076494305,
192,resources/videos_generated\model(dmp)-dataset(walking)-npsi(80)_final(6).mov,resources/videos_natural\training(40).mov,False,True,left,0,191,191,191,2018-09-19 16:38:12.324398,2018-09-19 16:38:16.227621,0:00:03.903223,5,right,0,0.3838018540045596,20,f,1,12,2018_Sep_19_1617,MP_PerceptionTuring2,59.958792076494305,
193,resources/videos_generated\model(tmp)-dataset(walking)-numprim(14)_final(4).mov,resources/videos_natural\training(31).mov,True,False,right,0,192,192,192,2018-09-19 16:38:17.728707,2018-09-19 16:38:21.631930,0:00:03.903223,5,left,0,0.23394009119510883,20,f,1,12,2018_Sep_19_1617,MP_PerceptionTuring2,59.958792076494305,
194,resources/videos_generated\model(vcgpdm)-dataset(walking)-mode(ELBO)-parts(2)-dyn(28)-lvm(19)_final(7).mov,resources/videos_natural\training(23).mov,False,False,right,0,193,193,193,2018-09-19 16:38:22.983007,2018-09-19 16:38:26.903232,0:00:03.920225,5,left,0,0.23378167558985297,20,f,1,12,2018_Sep_19_1617,MP_PerceptionTuring2,59.958792076494305,
195,resources/videos_generated\model(vcgpdm)-dataset(walking)-mode(ELBO)-parts(2)-dyn(27)-lvm(18)_final(5).mov,resources/videos_natural\training(40).mov,True,False,right,0,194,194,194,2018-09-19 16:38:28.254309,2018-09-19 16:38:32.157532,0:00:03.903223,5,right,1,0.9844550924899522,20,f,1,12,2018_Sep_19_1617,MP_PerceptionTuring2,59.958792076494305,
196,resources/videos_generated\model(vcgpdm)-dataset(walking)-mode(ELBO)-parts(2)-dyn(28)-lvm(21)_final(9).mov,resources/videos_natural\training(41).mov,True,True,left,0,195,195,195,2018-09-19 16:38:34.259652,2018-09-19 16:38:38.179877,0:00:03.920225,5,right,0,0.6506375776261848,20,f,1,12,2018_Sep_19_1617,MP_PerceptionTuring2,59.958792076494305,
197,resources/videos_generated\model(vcgpdm)-dataset(walking)-mode(ELBO)-parts(1)-dyn(22)-lvm(25)_final(2).mov,resources/videos_natural\training(0).mov,False,True,left,0,196,196,196,2018-09-19 16:38:39.947978,2018-09-19 16:38:43.868202,0:00:03.920224,5,left,1,0.48393467012647307,20,f,1,12,2018_Sep_19_1617,MP_PerceptionTuring2,59.958792076494305,
198,resources/videos_generated\model(vcgpdm)-dataset(walking)-mode(ELBO)-parts(1)-dyn(22)-lvm(22)_final(0).mov,resources/videos_natural\training(20).mov,True,True,left,0,197,197,197,2018-09-19 16:38:45.469294,2018-09-19 16:38:49.372517,0:00:03.903223,5,left,1,0.11704142297094222,20,f,1,12,2018_Sep_19_1617,MP_PerceptionTuring2,59.958792076494305,
199,resources/videos_generated\model(tmp)-dataset(walking)-numprim(15)_final(0).mov,resources/videos_natural\training(37).mov,True,False,right,0,198,198,198,2018-09-19 16:38:50.606587,2018-09-19 16:38:54.493810,0:00:03.887223,5,left,0,0.2839563543930126,20,f,1,12,2018_Sep_19_1617,MP_PerceptionTuring2,59.958792076494305,
200,resources/videos_generated\model(vcgpdm)-dataset(walking)-mode(ELBO)-parts(2)-dyn(27)-lvm(18)_final(1).mov,resources/videos_natural\training(41).mov,False,True,left,0,199,199,199,2018-09-19 16:38:55.894890,2018-09-19 16:38:59.816114,0:00:03.921224,5,left,1,0.15041019401360245,20,f,1,12,2018_Sep_19_1617,MP_PerceptionTuring2,59.958792076494305,
201,resources/videos_generated\model(vcgpdm)-dataset(walking)-mode(ELBO)-parts(1)-dyn(28)-lvm(25)_final(3).mov,resources/videos_natural\training(24).mov,True,True,left,0,200,200,200,2018-09-19 16:39:01.083187,2018-09-19 16:39:05.002411,0:00:03.919224,5,left,1,0.267090513736548,20,f,1,12,2018_Sep_19_1617,MP_PerceptionTuring2,59.958792076494305,
202,resources/videos_generated\model(vcgpdm)-dataset(walking)-mode(ELBO)-parts(1)-dyn(23)-lvm(28)_final(0).mov,resources/videos_natural\training(36).mov,True,False,right,0,201,201,201,2018-09-19 16:39:06.387490,2018-09-19 16:39:10.307714,0:00:03.920224,5,right,1,0.2505677061071765,20,f,1,12,2018_Sep_19_1617,MP_PerceptionTuring2,59.958792076494305,
203,resources/videos_generated\model(vcgpdm)-dataset(walking)-mode(ELBO)-parts(2)-dyn(23)-lvm(22)_final(5).mov,resources/videos_natural\training(14).mov,False,False,right,0,202,202,202,2018-09-19 16:39:11.674792,2018-09-19 16:39:15.579016,0:00:03.904224,5,right,1,0.5507472036333638,20,f,1,12,2018_Sep_19_1617,MP_PerceptionTuring2,59.958792076494305,
204,resources/videos_generated\model(dmp)-dataset(walking)-npsi(80)_final(2).mov,resources/videos_natural\training(22).mov,True,False,right,0,203,203,203,2018-09-19 16:39:17.247111,2018-09-19 16:39:21.133333,0:00:03.886222,5,right,1,0.9676660502700543,20,f,1,12,2018_Sep_19_1617,MP_PerceptionTuring2,59.958792076494305,
205,resources/videos_generated\model(tmp)-dataset(walking)-numprim(11)_final(0).mov,resources/videos_natural\training(19).mov,True,False,right,0,204,204,204,2018-09-19 16:39:23.218453,2018-09-19 16:39:27.121676,0:00:03.903223,5,right,1,0.4338657021198742,20,f,1,12,2018_Sep_19_1617,MP_PerceptionTuring2,59.958792076494305,
206,resources/videos_generated\model(dmp)-dataset(walking)-npsi(80)_final(8).mov,resources/videos_natural\training(15).mov,False,True,left,0,205,205,205,2018-09-19 16:39:28.672765,2018-09-19 16:39:32.592989,0:00:03.920224,5,right,0,0.7009257976496883,20,f,1,12,2018_Sep_19_1617,MP_PerceptionTuring2,59.958792076494305,
207,resources/videos_generated\model(vcgpdm)-dataset(walking)-mode(ELBO)-parts(1)-dyn(25)-lvm(25)_final(2).mov,resources/videos_natural\training(32).mov,True,False,right,0,206,206,206,2018-09-19 16:39:34.411093,2018-09-19 16:39:38.298315,0:00:03.887222,5,left,0,0.4172712159452203,20,f,1,12,2018_Sep_19_1617,MP_PerceptionTuring2,59.958792076494305,
208,resources/videos_generated\model(vcgpdm)-dataset(walking)-mode(ELBO)-parts(1)-dyn(27)-lvm(22)_final(1).mov,resources/videos_natural\training(39).mov,False,True,left,0,207,207,207,2018-09-19 16:39:39.832403,2018-09-19 16:39:43.736626,0:00:03.904223,5,right,0,0.2504833784078073,20,f,1,12,2018_Sep_19_1617,MP_PerceptionTuring2,59.958792076494305,
209,resources/videos_generated\model(vcgpdm)-dataset(walking)-mode(ELBO)-parts(1)-dyn(22)-lvm(27)_final(6)_fail.mov,resources/videos_natural\training(33).mov,False,False,right,0,208,208,208,2018-09-19 16:39:45.103705,2018-09-19 16:39:49.040930,0:00:03.937225,5,right,1,0.25054120311506267,20,f,1,12,2018_Sep_19_1617,MP_PerceptionTuring2,59.958792076494305,
210,resources/videos_generated\model(vcgpdm)-dataset(walking)-mode(ELBO)-parts(1)-dyn(28)-lvm(25)_final(9).mov,resources/videos_natural\training(37).mov,True,True,left,0,209,209,209,2018-09-19 16:39:50.409008,2018-09-19 16:39:54.295230,0:00:03.886222,5,right,0,0.46630295327668136,20,f,1,12,2018_Sep_19_1617,MP_PerceptionTuring2,59.958792076494305,
211,resources/videos_generated\model(vcgpdm)-dataset(walking)-mode(ELBO)-parts(1)-dyn(26)-lvm(23)_final(3)_fail.mov,resources/videos_natural\training(2).mov,True,True,left,0,210,210,210,2018-09-19 16:39:55.880321,2018-09-19 16:39:59.766543,0:00:03.886222,5,left,1,0.4506941976505914,20,f,1,12,2018_Sep_19_1617,MP_PerceptionTuring2,59.958792076494305,
212,resources/videos_generated\model(vcgpdm)-dataset(walking)-mode(ELBO)-parts(2)-dyn(22)-lvm(19)_final(9).mov,resources/videos_natural\training(11).mov,False,True,left,0,211,211,211,2018-09-19 16:40:01.334633,2018-09-19 16:40:05.254857,0:00:03.920224,5,left,1,0.5174720965678716,20,f,1,12,2018_Sep_19_1617,MP_PerceptionTuring2,59.958792076494305,
213,resources/videos_generated\model(vcgpdm)-dataset(walking)-mode(ELBO)-parts(2)-dyn(22)-lvm(23)_final(5).mov,resources/videos_natural\training(5).mov,False,True,left,0,212,212,212,2018-09-19 16:40:06.889951,2018-09-19 16:40:10.810175,0:00:03.920224,5,left,1,1.0344758732426271,20,f,1,12,2018_Sep_19_1617,MP_PerceptionTuring2,59.958792076494305,
214,resources/videos_generated\model(dmp)-dataset(walking)-npsi(90)_final(8).mov,resources/videos_natural\training(1).mov,True,False,right,0,213,213,213,2018-09-19 16:40:12.961298,2018-09-19 16:40:16.881522,0:00:03.920224,5,left,0,0.5008098470661935,20,f,1,12,2018_Sep_19_1617,MP_PerceptionTuring2,59.958792076494305,
215,resources/videos_generated\model(vcgpdm)-dataset(walking)-mode(ELBO)-parts(1)-dyn(28)-lvm(27)_final(5).mov,resources/videos_natural\training(40).mov,False,True,left,0,214,214,214,2018-09-19 16:40:18.499615,2018-09-19 16:40:22.369836,0:00:03.870221,5,right,0,0.4006800426468544,20,f,1,12,2018_Sep_19_1617,MP_PerceptionTuring2,59.958792076494305,
216,resources/videos_generated\model(dmp)-dataset(walking)-npsi(90)_final(2).mov,resources/videos_natural\training(7).mov,True,True,left,0,215,215,215,2018-09-19 16:40:23.887923,2018-09-19 16:40:27.791146,0:00:03.903223,5,left,1,0.36735464013145247,20,f,1,12,2018_Sep_19_1617,MP_PerceptionTuring2,59.958792076494305,
217,resources/videos_generated\model(dmp)-dataset(walking)-npsi(100)_final(8).mov,resources/videos_natural\training(34).mov,False,False,right,0,216,216,216,2018-09-19 16:40:29.275231,2018-09-19 16:40:33.179454,0:00:03.904223,5,right,1,0.01690740216508857,20,f,1,12,2018_Sep_19_1617,MP_PerceptionTuring2,59.958792076494305,
218,resources/videos_generated\model(vcgpdm)-dataset(walking)-mode(ELBO)-parts(1)-dyn(26)-lvm(27)_final(9).mov,resources/videos_natural\training(40).mov,True,False,right,0,217,217,217,2018-09-19 16:40:34.313519,2018-09-19 16:40:38.216742,0:00:03.903223,5,left,0,0.33398737493916997,20,f,1,12,2018_Sep_19_1617,MP_PerceptionTuring2,59.958792076494305,
219,resources/videos_generated\model(vcgpdm)-dataset(walking)-mode(ELBO)-parts(1)-dyn(28)-lvm(24)_final(7).mov,resources/videos_natural\training(30).mov,False,False,right,0,218,218,218,2018-09-19 16:40:39.667825,2018-09-19 16:40:43.588050,0:00:03.920225,5,right,1,0.4339334654468985,20,f,1,12,2018_Sep_19_1617,MP_PerceptionTuring2,59.958792076494305,
220,resources/videos_generated\model(vcgpdm)-dataset(walking)-mode(ELBO)-parts(2)-dyn(22)-lvm(17)_final(5).mov,resources/videos_natural\training(9).mov,True,False,right,0,219,219,219,2018-09-19 16:40:45.139138,2018-09-19 16:40:49.042362,0:00:03.903224,5,left,0,0.30051138724957127,20,f,1,12,2018_Sep_19_1617,MP_PerceptionTuring2,59.958792076494305,
221,resources/videos_generated\model(vcgpdm)-dataset(walking)-mode(ELBO)-parts(2)-dyn(26)-lvm(21)_final(5).mov,resources/videos_natural\training(43).mov,True,False,right,0,220,220,220,2018-09-19 16:40:50.460443,2018-09-19 16:40:54.413669,0:00:03.953226,5,right,1,0.35059842548071174,20,f,1,12,2018_Sep_19_1617,MP_PerceptionTuring2,59.958792076494305,
222,resources/videos_generated\model(vcgpdm)-dataset(walking)-mode(ELBO)-parts(2)-dyn(24)-lvm(19)_final(7).mov,resources/videos_natural\training(23).mov,True,False,right,0,221,221,221,2018-09-19 16:40:55.881753,2018-09-19 16:40:59.784976,0:00:03.903223,5,left,0,0.15040417060663458,20,f,1,12,2018_Sep_19_1617,MP_PerceptionTuring2,59.958792076494305,
223,resources/videos_generated\model(vcgpdm)-dataset(walking)-mode(ELBO)-parts(1)-dyn(23)-lvm(22)_final(5)_fail.mov,resources/videos_natural\training(41).mov,True,False,right,0,222,222,222,2018-09-19 16:41:01.053049,2018-09-19 16:41:04.956272,0:00:03.903223,5,right,1,0.5006086652738304,20,f,1,12,2018_Sep_19_1617,MP_PerceptionTuring2,59.958792076494305,
224,resources/videos_generated\model(vcgpdm)-dataset(walking)-mode(ELBO)-parts(1)-dyn(23)-lvm(27)_final(2).mov,resources/videos_natural\training(0).mov,True,True,left,0,223,223,223,2018-09-19 16:41:06.575364,2018-09-19 16:41:10.511590,0:00:03.936226,5,left,1,0.3674157777131768,20,f,1,12,2018_Sep_19_1617,MP_PerceptionTuring2,59.958792076494305,
225,resources/videos_generated\model(vcgpdm)-dataset(walking)-mode(ELBO)-parts(1)-dyn(25)-lvm(23)_final(7).mov,resources/videos_natural\training(46).mov,False,True,left,0,224,224,224,2018-09-19 16:41:11.995674,2018-09-19 16:41:15.932900,0:00:03.937226,5,left,1,0.4506737180672644,20,f,1,12,2018_Sep_19_1617,MP_PerceptionTuring2,59.958792076494305,
226,resources/videos_generated\model(vcgpdm)-dataset(walking)-mode(ELBO)-parts(1)-dyn(25)-lvm(28)_final(6).mov,resources/videos_natural\training(17).mov,False,True,left,0,225,225,225,2018-09-19 16:41:47.826724,2018-09-19 16:41:51.746948,0:00:03.920224,6,left,1,0.28370397364233213,20,f,1,12,2018_Sep_19_1617,MP_PerceptionTuring2,59.958792076494305,
227,resources/videos_generated\model(vcgpdm)-dataset(walking)-mode(ELBO)-parts(2)-dyn(24)-lvm(23)_final(3).mov,resources/videos_natural\training(3).mov,True,True,left,0,226,226,226,2018-09-19 16:41:53.148028,2018-09-19 16:41:57.051251,0:00:03.903223,6,left,1,0.2670441335030773,20,f,1,12,2018_Sep_19_1617,MP_PerceptionTuring2,59.958792076494305,
228,resources/videos_generated\model(vcgpdm)-dataset(walking)-mode(ELBO)-parts(2)-dyn(28)-lvm(19)_final(3).mov,resources/videos_natural\training(24).mov,False,True,left,0,227,227,227,2018-09-19 16:41:58.436331,2018-09-19 16:42:02.339554,0:00:03.903223,6,left,1,0.2669787795384764,20,f,1,12,2018_Sep_19_1617,MP_PerceptionTuring2,59.958792076494305,
229,resources/videos_generated\model(vcgpdm)-dataset(walking)-mode(ELBO)-parts(2)-dyn(27)-lvm(22)_final(7).mov,resources/videos_natural\training(20).mov,False,False,right,0,228,228,228,2018-09-19 16:42:03.723633,2018-09-19 16:42:07.643857,0:00:03.920224,6,right,1,0.3005595745071332,20,f,1,12,2018_Sep_19_1617,MP_PerceptionTuring2,59.958792076494305,
230,resources/videos_generated\model(tmp)-dataset(walking)-numprim(15)_final(8).mov,resources/videos_natural\training(25).mov,False,False,right,0,229,229,229,2018-09-19 16:42:09.061938,2018-09-19 16:42:12.982163,0:00:03.920225,6,right,1,0.28377685686609766,20,f,1,12,2018_Sep_19_1617,MP_PerceptionTuring2,59.958792076494305,
231,resources/videos_generated\model(vcgpdm)-dataset(walking)-mode(ELBO)-parts(1)-dyn(27)-lvm(26)_final(1).mov,resources/videos_natural\training(14).mov,False,False,right,0,230,230,230,2018-09-19 16:42:14.383243,2018-09-19 16:42:18.303467,0:00:03.920224,6,right,1,0.2671643004723592,20,f,1,12,2018_Sep_19_1617,MP_PerceptionTuring2,59.958792076494305,
232,resources/videos_generated\model(vcgpdm)-dataset(walking)-mode(ELBO)-parts(1)-dyn(25)-lvm(28)_final(2).mov,resources/videos_natural\training(1).mov,True,False,right,0,231,231,231,2018-09-19 16:42:19.687546,2018-09-19 16:42:23.590769,0:00:03.903223,6,right,1,0.11700437901708938,20,f,1,12,2018_Sep_19_1617,MP_PerceptionTuring2,59.958792076494305,
233,resources/videos_generated\model(vcgpdm)-dataset(walking)-mode(ELBO)-parts(1)-dyn(25)-lvm(28)_final(4).mov,resources/videos_natural\training(20).mov,True,True,left,0,232,232,232,2018-09-19 16:42:24.825840,2018-09-19 16:42:28.712062,0:00:03.886222,6,left,1,0.4840671850815852,20,f,1,12,2018_Sep_19_1617,MP_PerceptionTuring2,59.958792076494305,
234,resources/videos_generated\model(vcgpdm)-dataset(walking)-mode(ELBO)-parts(1)-dyn(22)-lvm(25)_final(0).mov,resources/videos_natural\training(12).mov,False,True,left,0,233,233,233,2018-09-19 16:42:30.313154,2018-09-19 16:42:34.233378,0:00:03.920224,6,left,1,0.3839702082295844,20,f,1,12,2018_Sep_19_1617,MP_PerceptionTuring2,59.958792076494305,
235,resources/videos_generated\model(vcgpdm)-dataset(walking)-mode(ELBO)-parts(2)-dyn(24)-lvm(21)_final(3).mov,resources/videos_natural\training(4).mov,True,False,right,0,234,234,234,2018-09-19 16:42:35.734464,2018-09-19 16:42:39.621686,0:00:03.887222,6,left,0,0.5507243146876135,20,f,1,12,2018_Sep_19_1617,MP_PerceptionTuring2,59.958792076494305,
236,resources/videos_generated\model(vcgpdm)-dataset(walking)-mode(ELBO)-parts(2)-dyn(25)-lvm(22)_final(5).mov,resources/videos_natural\training(45).mov,False,False,right,0,235,235,235,2018-09-19 16:42:41.289782,2018-09-19 16:42:45.210006,0:00:03.920224,6,right,1,0.7008309289885801,20,f,1,12,2018_Sep_19_1617,MP_PerceptionTuring2,59.958792076494305,
237,resources/videos_generated\model(vcgpdm)-dataset(walking)-mode(ELBO)-parts(1)-dyn(24)-lvm(27)_final(4).mov,resources/videos_natural\training(1).mov,False,True,left,0,236,236,236,2018-09-19 16:42:47.028110,2018-09-19 16:42:50.931333,0:00:03.903223,6,left,1,0.16710587342458894,20,f,1,12,2018_Sep_19_1617,MP_PerceptionTuring2,59.958792076494305,
238,resources/videos_generated\model(vcgpdm)-dataset(walking)-mode(ELBO)-parts(2)-dyn(28)-lvm(23)_final(3).mov,resources/videos_natural\training(8).mov,True,True,left,0,237,237,237,2018-09-19 16:42:52.215407,2018-09-19 16:42:56.152632,0:00:03.937225,6,left,1,0.3175100440312235,20,f,1,12,2018_Sep_19_1617,MP_PerceptionTuring2,59.958792076494305,
239,resources/videos_generated\model(tmp)-dataset(walking)-numprim(14)_final(8).mov,resources/videos_natural\training(21).mov,True,False,right,0,238,238,238,2018-09-19 16:42:57.586714,2018-09-19 16:43:01.506938,0:00:03.920224,6,left,0,0.0003026761987712234,20,f,1,12,2018_Sep_19_1617,MP_PerceptionTuring2,59.958792076494305,
240,resources/videos_generated\model(vcgpdm)-dataset(walking)-mode(ELBO)-parts(1)-dyn(25)-lvm(22)_final(8).mov,resources/videos_natural\training(19).mov,True,False,right,0,239,239,239,2018-09-19 16:43:02.625002,2018-09-19 16:43:06.528225,0:00:03.903223,6,right,1,0.350638481137139,20,f,1,12,2018_Sep_19_1617,MP_PerceptionTuring2,59.958792076494305,
241,resources/videos_generated\model(dmp)-dataset(walking)-npsi(90)_final(6).mov,resources/videos_natural\training(18).mov,False,False,right,0,240,240,240,2018-09-19 16:43:07.996309,2018-09-19 16:43:11.932534,0:00:03.936225,6,right,1,0.3338982285149541,20,f,1,12,2018_Sep_19_1617,MP_PerceptionTuring2,59.958792076494305,
242,resources/videos_generated\model(vcgpdm)-dataset(walking)-mode(ELBO)-parts(1)-dyn(26)-lvm(25)_final(3).mov,resources/videos_natural\training(46).mov,True,True,left,0,241,241,241,2018-09-19 16:43:13.383617,2018-09-19 16:43:17.287841,0:00:03.904224,6,left,1,0.48400996271448093,20,f,1,12,2018_Sep_19_1617,MP_PerceptionTuring2,59.958792076494305,
243,resources/videos_generated\model(vcgpdm)-dataset(walking)-mode(ELBO)-parts(1)-dyn(23)-lvm(24)_final(5).mov,resources/videos_natural\training(3).mov,False,True,left,0,242,242,242,2018-09-19 16:43:18.888932,2018-09-19 16:43:22.775155,0:00:03.886223,6,left,1,0.5173395816145785,20,f,1,12,2018_Sep_19_1617,MP_PerceptionTuring2,59.958792076494305,
244,resources/videos_generated\model(vcgpdm)-dataset(walking)-mode(ELBO)-parts(1)-dyn(22)-lvm(27)_final(4)_fail.mov,resources/videos_natural\training(15).mov,False,True,left,0,243,243,243,2018-09-19 16:43:24.410248,2018-09-19 16:43:28.347473,0:00:03.937225,6,left,1,0.7341909660935926,20,f,1,12,2018_Sep_19_1617,MP_PerceptionTuring2,59.958792076494305,
245,resources/videos_generated\model(vcgpdm)-dataset(walking)-mode(ELBO)-parts(2)-dyn(26)-lvm(17)_final(7).mov,resources/videos_natural\training(37).mov,False,True,left,0,244,244,244,2018-09-19 16:43:30.198579,2018-09-19 16:43:34.134804,0:00:03.936225,6,left,1,0.21712876236961165,20,f,1,12,2018_Sep_19_1617,MP_PerceptionTuring2,59.958792076494305,
246,resources/videos_generated\model(vcgpdm)-dataset(walking)-mode(ELBO)-parts(1)-dyn(23)-lvm(26)_final(9).mov,resources/videos_natural\training(19).mov,False,True,left,0,245,245,245,2018-09-19 16:43:35.469881,2018-09-19 16:43:39.373104,0:00:03.903223,6,left,1,0.38434938169666566,20,f,1,12,2018_Sep_19_1617,MP_PerceptionTuring2,59.958792076494305,
247,resources/videos_generated\model(vcgpdm)-dataset(walking)-mode(ELBO)-parts(2)-dyn(23)-lvm(20)_final(9).mov,resources/videos_natural\training(21).mov,True,False,right,0,246,246,246,2018-09-19 16:43:40.874190,2018-09-19 16:43:44.794414,0:00:03.920224,6,right,1,0.28375035387580283,20,f,1,12,2018_Sep_19_1617,MP_PerceptionTuring2,59.958792076494305,
248,resources/videos_generated\model(vcgpdm)-dataset(walking)-mode(ELBO)-parts(2)-dyn(26)-lvm(17)_final(3).mov,resources/videos_natural\training(5).mov,True,False,right,0,247,247,247,2018-09-19 16:43:46.195494,2018-09-19 16:43:50.098717,0:00:03.903223,6,right,1,0.283775953355871,20,f,1,12,2018_Sep_19_1617,MP_PerceptionTuring2,59.958792076494305,
249,resources/videos_generated\model(vcgpdm)-dataset(walking)-mode(ELBO)-parts(1)-dyn(24)-lvm(23)_final(8).mov,resources/videos_natural\training(13).mov,False,True,left,0,248,248,248,2018-09-19 16:43:51.500798,2018-09-19 16:43:55.387020,0:00:03.886222,6,left,1,0.5340677874228277,20,f,1,12,2018_Sep_19_1617,MP_PerceptionTuring2,59.958792076494305,
250,resources/videos_generated\model(vcgpdm)-dataset(walking)-mode(ELBO)-parts(1)-dyn(22)-lvm(23)_final(4)_fail.mov,resources/videos_natural\training(24).mov,False,False,right,0,249,249,249,2018-09-19 16:43:57.038114,2018-09-19 16:44:00.925337,0:00:03.887223,6,right,1,0.13365277468255954,20,f,1,12,2018_Sep_19_1617,MP_PerceptionTuring2,59.958792076494305,
251,resources/videos_generated\model(dmp)-dataset(walking)-npsi(50)_final(2).mov,resources/videos_natural\training(8).mov,True,True,left,0,250,250,250,2018-09-19 16:44:02.176408,2018-09-19 16:44:06.112633,0:00:03.936225,6,left,1,0.2338560646676342,20,f,1,12,2018_Sep_19_1617,MP_PerceptionTuring2,59.958792076494305,
252,resources/videos_generated\model(vcgpdm)-dataset(walking)-mode(ELBO)-parts(1)-dyn(26)-lvm(25)_final(5).mov,resources/videos_natural\training(17).mov,True,False,right,0,251,251,251,2018-09-19 16:44:07.463711,2018-09-19 16:44:11.383935,0:00:03.920224,6,right,1,0.48398436323623173,20,f,1,12,2018_Sep_19_1617,MP_PerceptionTuring2,59.958792076494305,
253,resources/videos_generated\model(vcgpdm)-dataset(walking)-mode(ELBO)-parts(1)-dyn(28)-lvm(27)_final(7).mov,resources/videos_natural\training(14).mov,True,True,left,0,252,252,252,2018-09-19 16:44:12.985026,2018-09-19 16:44:16.855248,0:00:03.870222,6,left,1,0.4340753166798095,20,f,1,12,2018_Sep_19_1617,MP_PerceptionTuring2,59.958792076494305,
254,resources/videos_generated\model(vcgpdm)-dataset(walking)-mode(ELBO)-parts(1)-dyn(26)-lvm(23)_final(1).mov,resources/videos_natural\training(46).mov,True,True,left,0,253,253,253,2018-09-19 16:44:18.407337,2018-09-19 16:44:22.293559,0:00:03.886222,6,left,1,0.35048428191839776,20,f,1,12,2018_Sep_19_1617,MP_PerceptionTuring2,59.958792076494305,
255,resources/videos_generated\model(vcgpdm)-dataset(walking)-mode(ELBO)-parts(2)-dyn(25)-lvm(20)_final(1).mov,resources/videos_natural\training(18).mov,False,True,left,0,254,254,254,2018-09-19 16:44:23.761643,2018-09-19 16:44:27.764872,0:00:04.003229,6,right,0,0.26711159566184506,20,f,1,12,2018_Sep_19_1617,MP_PerceptionTuring2,59.958792076494305,
256,resources/videos_generated\model(vcgpdm)-dataset(walking)-mode(ELBO)-parts(1)-dyn(27)-lvm(26)_final(7).mov,resources/videos_natural\training(12).mov,True,True,left,0,255,255,255,2018-09-19 16:44:29.149951,2018-09-19 16:44:33.053174,0:00:03.903223,6,left,1,0.450774911305416,20,f,1,12,2018_Sep_19_1617,MP_PerceptionTuring2,59.958792076494305,
257,resources/videos_generated\model(vcgpdm)-dataset(walking)-mode(ELBO)-parts(2)-dyn(24)-lvm(23)_final(9).mov,resources/videos_natural\training(43).mov,False,True,left,0,256,256,256,2018-09-19 16:44:34.621264,2018-09-19 16:44:38.557489,0:00:03.936225,6,left,1,0.2505207235317357,20,f,1,12,2018_Sep_19_1617,MP_PerceptionTuring2,59.958792076494305,
258,resources/videos_generated\model(vcgpdm)-dataset(walking)-mode(ELBO)-parts(2)-dyn(22)-lvm(17)_final(9).mov,resources/videos_natural\training(36).mov,True,False,right,0,257,257,257,2018-09-19 16:44:39.925567,2018-09-19 16:44:43.811790,0:00:03.886223,6,right,1,0.80093182105702,20,f,1,12,2018_Sep_19_1617,MP_PerceptionTuring2,59.958792076494305,
259,resources/videos_generated\model(dmp)-dataset(walking)-npsi(90)_final(0).mov,resources/videos_natural\training(38).mov,False,True,left,0,258,258,258,2018-09-19 16:44:45.729899,2018-09-19 16:44:49.684126,0:00:03.954227,6,right,0,0.23390786596792168,20,f,1,12,2018_Sep_19_1617,MP_PerceptionTuring2,59.958792076494305,
260,resources/videos_generated\model(dmp)-dataset(walking)-npsi(100)_final(6).mov,resources/videos_natural\training(8).mov,False,True,left,0,259,259,259,2018-09-19 16:44:51.035203,2018-09-19 16:44:54.938426,0:00:03.903223,6,left,1,0.4005448171592434,20,f,1,12,2018_Sep_19_1617,MP_PerceptionTuring2,59.958792076494305,
261,resources/videos_generated\model(dmp)-dataset(walking)-npsi(100)_final(2).mov,resources/videos_natural\training(6).mov,True,True,left,0,260,260,260,2018-09-19 16:44:56.456513,2018-09-19 16:45:00.376737,0:00:03.920224,6,left,1,0.43393527246917074,20,f,1,12,2018_Sep_19_1617,MP_PerceptionTuring2,59.958792076494305,
262,resources/videos_generated\model(vcgpdm)-dataset(walking)-mode(ELBO)-parts(1)-dyn(25)-lvm(22)_final(4).mov,resources/videos_natural\training(34).mov,True,False,right,0,261,261,261,2018-09-19 16:45:01.927826,2018-09-19 16:45:05.848050,0:00:03.920224,6,right,1,0.4172570609389368,20,f,1,12,2018_Sep_19_1617,MP_PerceptionTuring2,59.958792076494305,
263,resources/videos_generated\model(vcgpdm)-dataset(walking)-mode(ELBO)-parts(2)-dyn(25)-lvm(18)_final(1).mov,resources/videos_natural\training(38).mov,True,False,right,0,262,262,262,2018-09-19 16:45:07.382138,2018-09-19 16:45:11.286361,0:00:03.904223,6,left,0,1.0844436480165314,20,f,1,12,2018_Sep_19_1617,MP_PerceptionTuring2,59.958792076494305,
264,resources/videos_generated\model(vcgpdm)-dataset(walking)-mode(ELBO)-parts(2)-dyn(25)-lvm(20)_final(3).mov,resources/videos_natural\training(2).mov,False,False,right,0,263,263,263,2018-09-19 16:45:13.487487,2018-09-19 16:45:17.374709,0:00:03.887222,6,right,1,0.3838551611552248,20,f,1,12,2018_Sep_19_1617,MP_PerceptionTuring2,59.958792076494305,
265,resources/videos_generated\model(vcgpdm)-dataset(walking)-mode(ELBO)-parts(2)-dyn(28)-lvm(21)_final(1).mov,resources/videos_natural\training(9).mov,True,False,right,0,264,264,264,2018-09-19 16:45:18.875795,2018-09-19 16:45:22.779018,0:00:03.903223,6,right,1,0.3005634897217533,20,f,1,12,2018_Sep_19_1617,MP_PerceptionTuring2,59.958792076494305,
266,resources/videos_generated\model(vcgpdm)-dataset(walking)-mode(ELBO)-parts(2)-dyn(23)-lvm(22)_final(9).mov,resources/videos_natural\training(5).mov,False,True,left,0,265,265,265,2018-09-19 16:45:24.197100,2018-09-19 16:45:28.100323,0:00:03.903223,6,left,1,0.3172377860355482,20,f,1,12,2018_Sep_19_1617,MP_PerceptionTuring2,59.958792076494305,
267,resources/videos_generated\model(vcgpdm)-dataset(walking)-mode(ELBO)-parts(2)-dyn(24)-lvm(17)_final(5).mov,resources/videos_natural\training(20).mov,True,True,left,0,266,266,266,2018-09-19 16:45:29.535405,2018-09-19 16:45:33.454629,0:00:03.919224,6,left,1,0.31726248200538976,20,f,1,12,2018_Sep_19_1617,MP_PerceptionTuring2,59.958792076494305,
268,resources/videos_generated\model(vcgpdm)-dataset(walking)-mode(ELBO)-parts(1)-dyn(22)-lvm(28)_final(7).mov,resources/videos_natural\training(38).mov,True,False,right,0,267,267,267,2018-09-19 16:45:34.889711,2018-09-19 16:45:38.825936,0:00:03.936225,6,right,1,0.1005240364047495,20,f,1,12,2018_Sep_19_1617,MP_PerceptionTuring2,59.958792076494305,
269,resources/videos_generated\model(vcgpdm)-dataset(walking)-mode(ELBO)-parts(1)-dyn(27)-lvm(24)_final(5).mov,resources/videos_natural\training(23).mov,True,True,left,0,268,268,268,2018-09-19 16:45:40.044006,2018-09-19 16:45:43.947229,0:00:03.903223,6,left,1,0.48396147428866243,20,f,1,12,2018_Sep_19_1617,MP_PerceptionTuring2,59.958792076494305,
270,resources/videos_generated\model(vcgpdm)-dataset(walking)-mode(ELBO)-parts(1)-dyn(27)-lvm(22)_final(7).mov,resources/videos_natural\training(45).mov,True,False,right,0,269,269,269,2018-09-19 16:45:45.548321,2018-09-19 16:45:49.452544,0:00:03.904223,6,left,0,0.28390425192264956,20,f,1,12,2018_Sep_19_1617,MP_PerceptionTuring2,59.958792076494305,
271,resources/videos_generated\model(vcgpdm)-dataset(walking)-mode(ELBO)-parts(2)-dyn(26)-lvm(21)_final(7).mov,resources/videos_natural\training(27).mov,False,False,right,0,270,270,270,2018-09-19 16:46:21.246363,2018-09-19 16:46:25.199589,0:00:03.953226,7,right,1,0.3338988308569242,20,f,1,12,2018_Sep_19_1617,MP_PerceptionTuring2,59.958792076494305,
272,resources/videos_generated\model(vcgpdm)-dataset(walking)-mode(ELBO)-parts(2)-dyn(26)-lvm(23)_final(5).mov,resources/videos_natural\training(39).mov,False,False,right,0,271,271,271,2018-09-19 16:46:26.650672,2018-09-19 16:46:30.537894,0:00:03.887222,7,right,1,0.31725826561887516,20,f,1,12,2018_Sep_19_1617,MP_PerceptionTuring2,59.958792076494305,
273,resources/videos_generated\model(vcgpdm)-dataset(walking)-mode(ELBO)-parts(2)-dyn(27)-lvm(20)_final(5).mov,resources/videos_natural\training(0).mov,False,False,right,0,272,272,272,2018-09-19 16:46:31.971976,2018-09-19 16:46:35.859198,0:00:03.887222,7,right,1,0.25047675266068836,20,f,1,12,2018_Sep_19_1617,MP_PerceptionTuring2,59.958792076494305,
274,resources/videos_generated\model(vcgpdm)-dataset(walking)-mode(ELBO)-parts(2)-dyn(26)-lvm(19)_final(5).mov,resources/videos_natural\training(29).mov,True,False,right,0,273,273,273,2018-09-19 16:46:37.226277,2018-09-19 16:46:41.146501,0:00:03.920224,7,left,0,0.2838316698689596,20,f,1,12,2018_Sep_19_1617,MP_PerceptionTuring2,59.958792076494305,
275,resources/videos_generated\model(vcgpdm)-dataset(walking)-mode(ELBO)-parts(2)-dyn(22)-lvm(21)_final(9).mov,resources/videos_natural\training(48).mov,False,True,left,0,274,274,274,2018-09-19 16:46:42.547581,2018-09-19 16:46:46.417802,0:00:03.870221,7,right,0,0.2838199242269184,20,f,1,12,2018_Sep_19_1617,MP_PerceptionTuring2,59.958792076494305,
276,resources/videos_generated\model(vcgpdm)-dataset(walking)-mode(ELBO)-parts(1)-dyn(22)-lvm(27)_final(8)_fail.mov,resources/videos_natural\training(15).mov,True,True,left,0,275,275,275,2018-09-19 16:46:47.818882,2018-09-19 16:46:51.739107,0:00:03.920225,7,left,1,0.3171624934493593,20,f,1,12,2018_Sep_19_1617,MP_PerceptionTuring2,59.958792076494305,
277,resources/videos_generated\model(vcgpdm)-dataset(walking)-mode(ELBO)-parts(1)-dyn(25)-lvm(28)_final(8).mov,resources/videos_natural\training(7).mov,True,True,left,0,276,276,276,2018-09-19 16:46:53.174189,2018-09-19 16:46:57.110414,0:00:03.936225,7,left,1,0.3505975219704851,20,f,1,12,2018_Sep_19_1617,MP_PerceptionTuring2,59.958792076494305,
278,resources/videos_generated\model(vcgpdm)-dataset(walking)-mode(ELBO)-parts(1)-dyn(24)-lvm(25)_final(0).mov,resources/videos_natural\training(38).mov,True,True,left,0,277,277,277,2018-09-19 16:46:58.578498,2018-09-19 16:47:02.481721,0:00:03.903223,7,right,0,0.7509158590291918,20,f,1,12,2018_Sep_19_1617,MP_PerceptionTuring2,59.958792076494305,
279,resources/videos_generated\model(vcgpdm)-dataset(walking)-mode(ELBO)-parts(1)-dyn(25)-lvm(23)_final(0).mov,resources/videos_natural\training(35).mov,False,True,left,0,278,278,278,2018-09-19 16:47:04.349828,2018-09-19 16:47:08.254051,0:00:03.904223,7,left,1,0.4339120823515259,20,f,1,12,2018_Sep_19_1617,MP_PerceptionTuring2,59.958792076494305,
280,resources/videos_generated\model(vcgpdm)-dataset(walking)-mode(ELBO)-parts(2)-dyn(27)-lvm(22)_final(9).mov,resources/videos_natural\training(7).mov,False,False,right,0,279,279,279,2018-09-19 16:47:09.805140,2018-09-19 16:47:13.708363,0:00:03.903223,7,right,1,0.35071889362188813,20,f,1,12,2018_Sep_19_1617,MP_PerceptionTuring2,59.958792076494305,
281,resources/videos_generated\model(vcgpdm)-dataset(walking)-mode(ELBO)-parts(1)-dyn(23)-lvm(28)_final(4)_hip-corrected.mov,resources/videos_natural\training(36).mov,False,False,right,0,280,280,280,2018-09-19 16:47:15.176447,2018-09-19 16:47:19.062669,0:00:03.886222,7,left,0,1.6515760244310513,20,f,1,12,2018_Sep_19_1617,MP_PerceptionTuring2,59.958792076494305,
282,resources/videos_generated\model(vcgpdm)-dataset(walking)-mode(ELBO)-parts(2)-dyn(23)-lvm(22)_final(7).mov,resources/videos_natural\training(21).mov,True,False,right,0,281,281,281,2018-09-19 16:47:21.831828,2018-09-19 16:47:25.769053,0:00:03.937225,7,right,1,0.23380245634507446,20,f,1,12,2018_Sep_19_1617,MP_PerceptionTuring2,59.958792076494305,
283,resources/videos_generated\model(vcgpdm)-dataset(walking)-mode(ELBO)-parts(1)-dyn(26)-lvm(22)_final(7).mov,resources/videos_natural\training(31).mov,True,True,left,0,282,282,282,2018-09-19 16:47:27.120130,2018-09-19 16:47:31.040355,0:00:03.920225,7,left,1,1.2512245586349309,20,f,1,12,2018_Sep_19_1617,MP_PerceptionTuring2,59.958792076494305,
284,resources/videos_generated\model(dmp)-dataset(walking)-npsi(80)_final(4).mov,resources/videos_natural\training(3).mov,True,False,right,0,283,283,283,2018-09-19 16:47:33.408490,2018-09-19 16:47:37.295712,0:00:03.887222,7,left,0,0.3838997343682422,20,f,1,12,2018_Sep_19_1617,MP_PerceptionTuring2,59.958792076494305,
285,resources/videos_generated\model(vcgpdm)-dataset(walking)-mode(ELBO)-parts(2)-dyn(24)-lvm(17)_final(3).mov,resources/videos_natural\training(16).mov,True,False,right,0,284,284,284,2018-09-19 16:47:38.796798,2018-09-19 16:47:42.717022,0:00:03.920224,7,right,1,0.10028159427383798,20,f,1,12,2018_Sep_19_1617,MP_PerceptionTuring2,59.958792076494305,
286,resources/videos_generated\model(dmp)-dataset(walking)-npsi(60)_final(2).mov,resources/videos_natural\training(12).mov,True,False,right,0,285,285,285,2018-09-19 16:47:43.934092,2018-09-19 16:47:47.821314,0:00:03.887222,7,left,0,0.2838672079706157,20,f,1,12,2018_Sep_19_1617,MP_PerceptionTuring2,59.958792076494305,
287,resources/videos_generated\model(vcgpdm)-dataset(walking)-mode(ELBO)-parts(2)-dyn(23)-lvm(20)_final(1).mov,resources/videos_natural\training(46).mov,False,True,left,0,286,286,286,2018-09-19 16:47:49.222395,2018-09-19 16:47:53.125618,0:00:03.903223,7,left,1,0.2672031514466653,20,f,1,12,2018_Sep_19_1617,MP_PerceptionTuring2,59.958792076494305,
288,resources/videos_generated\model(tmp)-dataset(walking)-numprim(13)_final(0).mov,resources/videos_natural\training(25).mov,False,False,right,0,287,287,287,2018-09-19 16:47:54.510697,2018-09-19 16:47:58.413920,0:00:03.903223,7,right,1,0.3671971280382422,20,f,1,12,2018_Sep_19_1617,MP_PerceptionTuring2,59.958792076494305,
289,resources/videos_generated\model(vcgpdm)-dataset(walking)-mode(ELBO)-parts(2)-dyn(24)-lvm(23)_final(1).mov,resources/videos_natural\training(19).mov,False,False,right,0,288,288,288,2018-09-19 16:47:59.898005,2018-09-19 16:48:03.801228,0:00:03.903223,7,right,1,0.46750462296404294,20,f,1,12,2018_Sep_19_1617,MP_PerceptionTuring2,59.958792076494305,
290,resources/videos_generated\model(vcgpdm)-dataset(walking)-mode(ELBO)-parts(2)-dyn(22)-lvm(17)_final(1).mov,resources/videos_natural\training(22).mov,False,True,left,0,289,289,289,2018-09-19 16:48:05.386319,2018-09-19 16:48:09.306543,0:00:03.920224,7,left,1,0.31723477433297376,20,f,1,12,2018_Sep_19_1617,MP_PerceptionTuring2,59.958792076494305,
