n_trial,mov_file_generated,mov_file_natural,mirrored,switch_stim_pos,correct_answer,trials.thisRepN,trials.thisTrialN,trials.thisN,trials.thisIndex,stimulus_onset,stimulus_off,stimulus_length,block,response.keys,response.corr,response.rt,age,gender,condition,participant,date,expName,frameRate,
1,resources/videos_generated\model(vcgpdm)-dataset(walking)-mode(ELBO)-parts(1)-dyn(28)-lvm(25)_final(6).mov,resources/videos_natural\training(29).mov,False,True,left,0,0,0,0,2018-09-21 10:11:32.031342,2018-09-21 10:11:36.501598,0:00:04.470256,1,left,1,0.8175292661403546,20,f,2,13,2018_Sep_21_1010,MP_PerceptionTuring2,59.34068094369803,
2,resources/videos_generated\model(vcgpdm)-dataset(walking)-mode(ELBO)-parts(1)-dyn(25)-lvm(28)_final(1).mov,resources/videos_natural\training(5).mov,True,False,right,0,1,1,1,2018-09-21 10:11:38.436709,2018-09-21 10:11:42.339932,0:00:03.903223,1,right,1,0.5506952496543818,20,f,2,13,2018_Sep_21_1010,MP_PerceptionTuring2,59.34068094369803,
3,resources/videos_generated\model(vcgpdm)-dataset(walking)-mode(ELBO)-parts(2)-dyn(24)-lvm(19)_final(2).mov,resources/videos_natural\training(2).mov,False,True,left,0,2,2,2,2018-09-21 10:11:44.008027,2018-09-21 10:11:47.928252,0:00:03.920225,1,right,0,0.467343294010675,20,f,2,13,2018_Sep_21_1010,MP_PerceptionTuring2,59.34068094369803,
4,resources/videos_generated\model(vcgpdm)-dataset(walking)-mode(ELBO)-parts(2)-dyn(24)-lvm(23)_final(6).mov,resources/videos_natural\training(12).mov,True,False,right,0,3,3,3,2018-09-21 10:11:49.512342,2018-09-21 10:11:53.432566,0:00:03.920224,1,right,1,0.5006586575673282,20,f,2,13,2018_Sep_21_1010,MP_PerceptionTuring2,59.34068094369803,
5,resources/videos_generated\model(vcgpdm)-dataset(walking)-mode(ELBO)-parts(1)-dyn(23)-lvm(28)_final(3)_hip-corrected.mov,resources/videos_natural\training(4).mov,True,True,left,0,4,4,4,2018-09-21 10:11:55.050659,2018-09-21 10:11:58.953882,0:00:03.903223,1,left,1,1.1678649194824402,20,f,2,13,2018_Sep_21_1010,MP_PerceptionTuring2,59.34068094369803,
6,resources/videos_generated\model(vcgpdm)-dataset(walking)-mode(ELBO)-parts(1)-dyn(28)-lvm(27)_final(8).mov,resources/videos_natural\training(42).mov,True,True,left,0,5,5,5,2018-09-21 10:12:01.240013,2018-09-21 10:12:05.176238,0:00:03.936225,1,right,0,0.5006625727701248,20,f,2,13,2018_Sep_21_1010,MP_PerceptionTuring2,59.34068094369803,
7,resources/videos_generated\model(vcgpdm)-dataset(walking)-mode(ELBO)-parts(1)-dyn(28)-lvm(23)_final(6)_fail.mov,resources/videos_natural\training(27).mov,True,True,left,0,6,6,6,2018-09-21 10:12:06.794331,2018-09-21 10:12:10.697554,0:00:03.903223,1,left,1,0.7676598230930267,20,f,2,13,2018_Sep_21_1010,MP_PerceptionTuring2,59.34068094369803,
8,resources/videos_generated\model(vcgpdm)-dataset(walking)-mode(ELBO)-parts(2)-dyn(25)-lvm(22)_final(4).mov,resources/videos_natural\training(37).mov,False,True,left,0,7,7,7,2018-09-21 10:12:12.582662,2018-09-21 10:12:16.502886,0:00:03.920224,1,right,0,0.400591496781999,20,f,2,13,2018_Sep_21_1010,MP_PerceptionTuring2,59.34068094369803,
9,resources/videos_generated\model(vcgpdm)-dataset(walking)-mode(ELBO)-parts(1)-dyn(25)-lvm(25)_final(0).mov,resources/videos_natural\training(6).mov,False,True,left,0,8,8,8,2018-09-21 10:12:18.020973,2018-09-21 10:12:21.924196,0:00:03.903223,1,right,0,1.418099379892169,20,f,2,13,2018_Sep_21_1010,MP_PerceptionTuring2,59.34068094369803,
10,resources/videos_generated\model(vcgpdm)-dataset(walking)-mode(ELBO)-parts(1)-dyn(26)-lvm(25)_final(4).mov,resources/videos_natural\training(42).mov,False,False,right,0,9,9,9,2018-09-21 10:12:24.459341,2018-09-21 10:12:28.362564,0:00:03.903223,1,right,1,0.5508157174308508,20,f,2,13,2018_Sep_21_1010,MP_PerceptionTuring2,59.34068094369803,
11,resources/videos_generated\model(vcgpdm)-dataset(walking)-mode(ELBO)-parts(2)-dyn(23)-lvm(18)_final(2).mov,resources/videos_natural\training(3).mov,False,True,left,0,10,10,10,2018-09-21 10:12:30.030660,2018-09-21 10:12:33.967885,0:00:03.937225,1,right,0,0.6506880215878255,20,f,2,13,2018_Sep_21_1010,MP_PerceptionTuring2,59.34068094369803,
12,resources/videos_generated\model(vcgpdm)-dataset(walking)-mode(ELBO)-parts(1)-dyn(27)-lvm(24)_final(2).mov,resources/videos_natural\training(47).mov,True,False,right,0,11,11,11,2018-09-21 10:12:35.735986,2018-09-21 10:12:39.673211,0:00:03.937225,1,left,0,1.0679112995762807,20,f,2,13,2018_Sep_21_1010,MP_PerceptionTuring2,59.34068094369803,
13,resources/videos_generated\model(vcgpdm)-dataset(walking)-mode(ELBO)-parts(2)-dyn(26)-lvm(21)_final(8).mov,resources/videos_natural\training(30).mov,False,False,right,0,12,12,12,2018-09-21 10:12:41.858336,2018-09-21 10:12:45.777560,0:00:03.919224,1,left,0,0.40034544134880434,20,f,2,13,2018_Sep_21_1010,MP_PerceptionTuring2,59.34068094369803,
14,resources/videos_generated\model(vcgpdm)-dataset(walking)-mode(ELBO)-parts(2)-dyn(25)-lvm(22)_final(6).mov,resources/videos_natural\training(28).mov,True,False,right,0,13,13,13,2018-09-21 10:12:47.295647,2018-09-21 10:12:51.199871,0:00:03.904224,1,left,0,0.483880206843196,20,f,2,13,2018_Sep_21_1010,MP_PerceptionTuring2,59.34068094369803,
15,resources/videos_generated\model(vcgpdm)-dataset(walking)-mode(ELBO)-parts(1)-dyn(27)-lvm(22)_final(8).mov,resources/videos_natural\training(2).mov,True,False,right,0,14,14,14,2018-09-21 10:12:52.800962,2018-09-21 10:12:56.721186,0:00:03.920224,1,left,0,0.2671354870964251,20,f,2,13,2018_Sep_21_1010,MP_PerceptionTuring2,59.34068094369803,
16,resources/videos_generated\model(dmp)-dataset(walking)-npsi(70)_final(9).mov,resources/videos_natural\training(17).mov,True,False,right,0,15,15,15,2018-09-21 10:12:58.105265,2018-09-21 10:13:02.025490,0:00:03.920225,1,left,0,0.7008878475119218,20,f,2,13,2018_Sep_21_1010,MP_PerceptionTuring2,59.34068094369803,
17,resources/videos_generated\model(vcgpdm)-dataset(walking)-mode(ELBO)-parts(2)-dyn(22)-lvm(17)_final(4).mov,resources/videos_natural\training(33).mov,False,True,left,0,16,16,16,2018-09-21 10:13:03.843594,2018-09-21 10:13:07.796820,0:00:03.953226,1,right,0,0.5007845463936746,20,f,2,13,2018_Sep_21_1010,MP_PerceptionTuring2,59.34068094369803,
18,resources/videos_generated\model(vcgpdm)-dataset(walking)-mode(ELBO)-parts(1)-dyn(22)-lvm(25)_final(3).mov,resources/videos_natural\training(11).mov,True,True,left,0,17,17,17,2018-09-21 10:13:09.414912,2018-09-21 10:13:13.302135,0:00:03.887223,1,left,1,0.3841340926818475,20,f,2,13,2018_Sep_21_1010,MP_PerceptionTuring2,59.34068094369803,
19,resources/videos_generated\model(vcgpdm)-dataset(walking)-mode(ELBO)-parts(2)-dyn(28)-lvm(23)_final(2).mov,resources/videos_natural\training(26).mov,True,True,left,0,18,18,18,2018-09-21 10:13:14.803221,2018-09-21 10:13:18.689443,0:00:03.886222,1,right,0,0.48405940266059133,20,f,2,13,2018_Sep_21_1010,MP_PerceptionTuring2,59.34068094369803,
20,resources/videos_generated\model(dmp)-dataset(walking)-npsi(90)_final(1).mov,resources/videos_natural\training(24).mov,False,True,left,0,19,19,19,2018-09-21 10:13:20.291534,2018-09-21 10:13:24.244761,0:00:03.953227,1,right,0,0.3004430202475987,20,f,2,13,2018_Sep_21_1010,MP_PerceptionTuring2,59.34068094369803,
21,resources/videos_generated\model(vcgpdm)-dataset(walking)-mode(ELBO)-parts(2)-dyn(24)-lvm(17)_final(6).mov,resources/videos_natural\training(15).mov,False,True,left,0,20,20,20,2018-09-21 10:13:25.662842,2018-09-21 10:13:29.599067,0:00:03.936225,1,right,0,0.2835715081662329,20,f,2,13,2018_Sep_21_1010,MP_PerceptionTuring2,59.34068094369803,
22,resources/videos_generated\model(dmp)-dataset(walking)-npsi(90)_final(9).mov,resources/videos_natural\training(24).mov,False,False,right,0,21,21,21,2018-09-21 10:13:31.000147,2018-09-21 10:13:34.920371,0:00:03.920224,1,right,1,0.2337779598178713,20,f,2,13,2018_Sep_21_1010,MP_PerceptionTuring2,59.34068094369803,
23,resources/videos_generated\model(vcgpdm)-dataset(walking)-mode(ELBO)-parts(1)-dyn(24)-lvm(25)_final(5).mov,resources/videos_natural\training(18).mov,True,True,left,0,22,22,22,2018-09-21 10:13:36.271448,2018-09-21 10:13:40.174672,0:00:03.903224,1,left,1,0.28365041455981554,20,f,2,13,2018_Sep_21_1010,MP_PerceptionTuring2,59.34068094369803,
24,resources/videos_generated\model(dmp)-dataset(walking)-npsi(50)_final(9).mov,resources/videos_natural\training(23).mov,True,False,right,0,23,23,23,2018-09-21 10:13:41.576752,2018-09-21 10:13:45.495976,0:00:03.919224,1,right,1,0.3506338110884144,20,f,2,13,2018_Sep_21_1010,MP_PerceptionTuring2,59.34068094369803,
25,resources/videos_generated\model(dmp)-dataset(walking)-npsi(100)_final(9).mov,resources/videos_natural\training(9).mov,True,False,right,0,24,24,24,2018-09-21 10:13:46.964060,2018-09-21 10:13:50.867283,0:00:03.903223,1,right,1,0.3005077716774167,20,f,2,13,2018_Sep_21_1010,MP_PerceptionTuring2,59.34068094369803,
26,resources/videos_generated\model(vcgpdm)-dataset(walking)-mode(ELBO)-parts(1)-dyn(24)-lvm(25)_final(3).mov,resources/videos_natural\training(22).mov,False,False,right,0,25,25,25,2018-09-21 10:13:52.285364,2018-09-21 10:13:56.205589,0:00:03.920225,1,right,1,0.250444375510142,20,f,2,13,2018_Sep_21_1010,MP_PerceptionTuring2,59.34068094369803,
27,resources/videos_generated\model(tmp)-dataset(walking)-numprim(11)_final(3).mov,resources/videos_natural\training(32).mov,False,True,left,0,26,26,26,2018-09-21 10:13:57.573667,2018-09-21 10:14:01.476890,0:00:03.903223,1,right,0,0.25046515620158516,20,f,2,13,2018_Sep_21_1010,MP_PerceptionTuring2,59.34068094369803,
28,resources/videos_generated\model(vcgpdm)-dataset(walking)-mode(ELBO)-parts(2)-dyn(22)-lvm(23)_final(0).mov,resources/videos_natural\training(16).mov,False,False,right,0,27,27,27,2018-09-21 10:14:02.844968,2018-09-21 10:14:06.781194,0:00:03.936226,1,right,1,0.33395173458541194,20,f,2,13,2018_Sep_21_1010,MP_PerceptionTuring2,59.34068094369803,
29,resources/videos_generated\model(vcgpdm)-dataset(walking)-mode(ELBO)-parts(2)-dyn(27)-lvm(18)_final(4).mov,resources/videos_natural\training(10).mov,True,False,right,0,28,28,28,2018-09-21 10:14:08.232277,2018-09-21 10:14:12.169502,0:00:03.937225,1,left,0,0.30051981845508635,20,f,2,13,2018_Sep_21_1010,MP_PerceptionTuring2,59.34068094369803,
30,resources/videos_generated\model(vcgpdm)-dataset(walking)-mode(ELBO)-parts(2)-dyn(22)-lvm(19)_final(6).mov,resources/videos_natural\training(40).mov,True,True,left,0,29,29,29,2018-09-21 10:14:13.587583,2018-09-21 10:14:17.523808,0:00:03.936225,1,left,1,0.33382162938687543,20,f,2,13,2018_Sep_21_1010,MP_PerceptionTuring2,59.34068094369803,
31,resources/videos_generated\model(vcgpdm)-dataset(walking)-mode(ELBO)-parts(1)-dyn(23)-lvm(26)_final(2).mov,resources/videos_natural\training(3).mov,True,True,left,0,30,30,30,2018-09-21 10:14:18.974891,2018-09-21 10:14:22.879114,0:00:03.904223,1,right,0,0.26712163330216754,20,f,2,13,2018_Sep_21_1010,MP_PerceptionTuring2,59.34068094369803,
32,resources/videos_generated\model(vcgpdm)-dataset(walking)-mode(ELBO)-parts(2)-dyn(26)-lvm(23)_final(8).mov,resources/videos_natural\training(31).mov,True,True,left,0,31,31,31,2018-09-21 10:14:24.263193,2018-09-21 10:14:28.216420,0:00:03.953227,1,left,1,0.5173344095121593,20,f,2,13,2018_Sep_21_1010,MP_PerceptionTuring2,59.34068094369803,
33,resources/videos_generated\model(vcgpdm)-dataset(walking)-mode(ELBO)-parts(2)-dyn(23)-lvm(22)_final(0).mov,resources/videos_natural\training(47).mov,False,False,right,0,32,32,32,2018-09-21 10:14:29.851513,2018-09-21 10:14:34.371772,0:00:04.520259,1,right,1,0.3672764343948529,20,f,2,13,2018_Sep_21_1010,MP_PerceptionTuring2,59.34068094369803,
34,resources/videos_generated\model(vcgpdm)-dataset(walking)-mode(ELBO)-parts(2)-dyn(26)-lvm(19)_final(6).mov,resources/videos_natural\training(23).mov,False,True,left,0,33,33,33,2018-09-21 10:14:35.856857,2018-09-21 10:14:39.793082,0:00:03.936225,1,right,0,0.30044693545039536,20,f,2,13,2018_Sep_21_1010,MP_PerceptionTuring2,59.34068094369803,
35,resources/videos_generated\model(vcgpdm)-dataset(walking)-mode(ELBO)-parts(1)-dyn(22)-lvm(28)_final(2).mov,resources/videos_natural\training(43).mov,False,True,left,0,34,34,34,2018-09-21 10:14:41.211163,2018-09-21 10:14:45.131387,0:00:03.920224,1,right,0,0.26704875029747654,20,f,2,13,2018_Sep_21_1010,MP_PerceptionTuring2,59.34068094369803,
36,resources/videos_generated\model(vcgpdm)-dataset(walking)-mode(ELBO)-parts(2)-dyn(26)-lvm(23)_final(0).mov,resources/videos_natural\training(37).mov,True,False,right,0,35,35,35,2018-09-21 10:14:46.515466,2018-09-21 10:14:50.469692,0:00:03.954226,1,left,0,0.5674435834345104,20,f,2,13,2018_Sep_21_1010,MP_PerceptionTuring2,59.34068094369803,
37,resources/videos_generated\model(vcgpdm)-dataset(walking)-mode(ELBO)-parts(2)-dyn(25)-lvm(22)_final(8).mov,resources/videos_natural\training(1).mov,False,True,left,0,36,36,36,2018-09-21 10:14:52.153789,2018-09-21 10:14:56.024010,0:00:03.870221,1,right,0,0.28391785302324024,20,f,2,13,2018_Sep_21_1010,MP_PerceptionTuring2,59.34068094369803,
38,resources/videos_generated\model(vcgpdm)-dataset(walking)-mode(ELBO)-parts(2)-dyn(25)-lvm(22)_final(0).mov,resources/videos_natural\training(48).mov,False,False,right,0,37,37,37,2018-09-21 10:14:57.425090,2018-09-21 10:15:01.345314,0:00:03.920224,1,right,1,0.30043549101162625,20,f,2,13,2018_Sep_21_1010,MP_PerceptionTuring2,59.34068094369803,
39,resources/videos_generated\model(vcgpdm)-dataset(walking)-mode(ELBO)-parts(1)-dyn(25)-lvm(24)_final(2).mov,resources/videos_natural\training(38).mov,False,False,right,0,38,38,38,2018-09-21 10:15:02.763396,2018-09-21 10:15:06.683620,0:00:03.920224,1,right,1,0.2838811103514445,20,f,2,13,2018_Sep_21_1010,MP_PerceptionTuring2,59.34068094369803,
40,resources/videos_generated\model(vcgpdm)-dataset(walking)-mode(ELBO)-parts(2)-dyn(23)-lvm(18)_final(0).mov,resources/videos_natural\training(6).mov,True,True,left,0,39,39,39,2018-09-21 10:15:08.084700,2018-09-21 10:15:12.020925,0:00:03.936225,1,left,1,0.5007764148188016,20,f,2,13,2018_Sep_21_1010,MP_PerceptionTuring2,59.34068094369803,
41,resources/videos_generated\model(vcgpdm)-dataset(walking)-mode(ELBO)-parts(1)-dyn(22)-lvm(27)_final(5)_fail.mov,resources/videos_natural\training(21).mov,True,False,right,0,40,40,40,2018-09-21 10:15:13.639018,2018-09-21 10:15:17.559242,0:00:03.920224,1,right,1,0.2836986016703804,20,f,2,13,2018_Sep_21_1010,MP_PerceptionTuring2,59.34068094369803,
42,resources/videos_generated\model(vcgpdm)-dataset(walking)-mode(ELBO)-parts(1)-dyn(22)-lvm(25)_final(7).mov,resources/videos_natural\training(15).mov,False,False,right,0,41,41,41,2018-09-21 10:15:18.960322,2018-09-21 10:15:22.863545,0:00:03.903223,1,right,1,0.5173070030930376,20,f,2,13,2018_Sep_21_1010,MP_PerceptionTuring2,59.34068094369803,
43,resources/videos_generated\model(vcgpdm)-dataset(walking)-mode(ELBO)-parts(1)-dyn(26)-lvm(27)_final(4).mov,resources/videos_natural\training(29).mov,False,True,left,0,42,42,42,2018-09-21 10:15:24.498639,2018-09-21 10:15:28.401862,0:00:03.903223,1,left,1,0.2504922614513134,20,f,2,13,2018_Sep_21_1010,MP_PerceptionTuring2,59.34068094369803,
44,resources/videos_generated\model(tmp)-dataset(walking)-numprim(15)_final(7).mov,resources/videos_natural\training(0).mov,False,False,right,0,43,43,43,2018-09-21 10:15:29.769940,2018-09-21 10:15:33.706165,0:00:03.936225,1,left,0,0.35038504513022417,20,f,2,13,2018_Sep_21_1010,MP_PerceptionTuring2,59.34068094369803,
45,resources/videos_generated\model(vcgpdm)-dataset(walking)-mode(ELBO)-parts(2)-dyn(22)-lvm(23)_final(6).mov,resources/videos_natural\training(39).mov,False,True,left,0,44,44,44,2018-09-21 10:15:35.174249,2018-09-21 10:15:39.094474,0:00:03.920225,1,left,1,0.33379091010385764,20,f,2,13,2018_Sep_21_1010,MP_PerceptionTuring2,59.34068094369803,
46,resources/videos_generated\model(vcgpdm)-dataset(walking)-mode(ELBO)-parts(1)-dyn(27)-lvm(22)_final(0).mov,resources/videos_natural\training(9).mov,False,True,left,0,45,45,45,2018-09-21 10:16:12.940409,2018-09-21 10:16:16.877635,0:00:03.937226,2,right,0,0.3005363827742258,20,f,2,13,2018_Sep_21_1010,MP_PerceptionTuring2,59.34068094369803,
47,resources/videos_generated\model(vcgpdm)-dataset(walking)-mode(ELBO)-parts(2)-dyn(24)-lvm(21)_final(0).mov,resources/videos_natural\training(30).mov,True,True,left,0,46,46,46,2018-09-21 10:16:18.294716,2018-09-21 10:16:22.214940,0:00:03.920224,2,left,1,0.5506723607769572,20,f,2,13,2018_Sep_21_1010,MP_PerceptionTuring2,59.34068094369803,
48,resources/videos_generated\model(vcgpdm)-dataset(walking)-mode(ELBO)-parts(2)-dyn(23)-lvm(22)_final(4).mov,resources/videos_natural\training(45).mov,False,True,left,0,47,47,47,2018-09-21 10:16:23.883035,2018-09-21 10:16:27.820260,0:00:03.937225,2,left,1,0.3338288574534545,20,f,2,13,2018_Sep_21_1010,MP_PerceptionTuring2,59.34068094369803,
49,resources/videos_generated\model(vcgpdm)-dataset(walking)-mode(ELBO)-parts(2)-dyn(24)-lvm(21)_final(4).mov,resources/videos_natural\training(38).mov,False,True,left,0,48,48,48,2018-09-21 10:16:29.271343,2018-09-21 10:16:33.174567,0:00:03.903224,2,left,1,0.40069750842519625,20,f,2,13,2018_Sep_21_1010,MP_PerceptionTuring2,59.34068094369803,
50,resources/videos_generated\model(dmp)-dataset(walking)-npsi(80)_final(5).mov,resources/videos_natural\training(43).mov,False,False,right,0,49,49,49,2018-09-21 10:16:34.692654,2018-09-21 10:16:38.596877,0:00:03.904223,2,right,1,0.3007137715750332,20,f,2,13,2018_Sep_21_1010,MP_PerceptionTuring2,59.34068094369803,
51,resources/videos_generated\model(tmp)-dataset(walking)-numprim(14)_final(3).mov,resources/videos_natural\training(0).mov,False,False,right,0,50,50,50,2018-09-21 10:16:40.013958,2018-09-21 10:16:43.917181,0:00:03.903223,2,left,0,0.30068666632530494,20,f,2,13,2018_Sep_21_1010,MP_PerceptionTuring2,59.34068094369803,
52,resources/videos_generated\model(vcgpdm)-dataset(walking)-mode(ELBO)-parts(2)-dyn(22)-lvm(21)_final(4).mov,resources/videos_natural\training(15).mov,False,True,left,0,51,51,51,2018-09-21 10:16:45.335262,2018-09-21 10:16:49.238486,0:00:03.903224,2,left,1,0.30033279223221143,20,f,2,13,2018_Sep_21_1010,MP_PerceptionTuring2,59.34068094369803,
53,resources/videos_generated\model(vcgpdm)-dataset(walking)-mode(ELBO)-parts(1)-dyn(23)-lvm(22)_final(6)_fail.mov,resources/videos_natural\training(48).mov,True,False,right,0,52,52,52,2018-09-21 10:16:50.656567,2018-09-21 10:16:54.576791,0:00:03.920224,2,right,1,0.53398486322385,20,f,2,13,2018_Sep_21_1010,MP_PerceptionTuring2,59.34068094369803,
54,resources/videos_generated\model(tmp)-dataset(walking)-numprim(12)_final(9).mov,resources/videos_natural\training(33).mov,False,True,left,0,53,53,53,2018-09-21 10:16:56.227885,2018-09-21 10:17:00.165111,0:00:03.937226,2,right,0,0.3672339695035589,20,f,2,13,2018_Sep_21_1010,MP_PerceptionTuring2,59.34068094369803,
55,resources/videos_generated\model(vcgpdm)-dataset(walking)-mode(ELBO)-parts(2)-dyn(28)-lvm(19)_final(8).mov,resources/videos_natural\training(13).mov,False,False,right,0,54,54,54,2018-09-21 10:17:01.649195,2018-09-21 10:17:05.552419,0:00:03.903224,2,right,1,0.36727703673363976,20,f,2,13,2018_Sep_21_1010,MP_PerceptionTuring2,59.34068094369803,
56,resources/videos_generated\model(vcgpdm)-dataset(walking)-mode(ELBO)-parts(1)-dyn(26)-lvm(23)_final(0).mov,resources/videos_natural\training(23).mov,False,False,right,0,55,55,55,2018-09-21 10:17:07.037504,2018-09-21 10:17:10.957728,0:00:03.920224,2,right,1,0.2837109496173298,20,f,2,13,2018_Sep_21_1010,MP_PerceptionTuring2,59.34068094369803,
57,resources/videos_generated\model(vcgpdm)-dataset(walking)-mode(ELBO)-parts(2)-dyn(22)-lvm(21)_final(2).mov,resources/videos_natural\training(14).mov,True,True,left,0,56,56,56,2018-09-21 10:17:12.358808,2018-09-21 10:17:16.262031,0:00:03.903223,2,left,1,0.2838543062712233,20,f,2,13,2018_Sep_21_1010,MP_PerceptionTuring2,59.34068094369803,
58,resources/videos_generated\model(vcgpdm)-dataset(walking)-mode(ELBO)-parts(1)-dyn(25)-lvm(24)_final(0).mov,resources/videos_natural\training(22).mov,True,False,right,0,57,57,57,2018-09-21 10:17:17.663111,2018-09-21 10:17:21.583336,0:00:03.920225,2,left,0,0.31711033944804967,20,f,2,13,2018_Sep_21_1010,MP_PerceptionTuring2,59.34068094369803,
59,resources/videos_generated\model(vcgpdm)-dataset(walking)-mode(ELBO)-parts(2)-dyn(28)-lvm(17)_final(2).mov,resources/videos_natural\training(48).mov,False,False,right,0,58,58,58,2018-09-21 10:17:23.017418,2018-09-21 10:17:26.937642,0:00:03.920224,2,right,1,0.2839305021398104,20,f,2,13,2018_Sep_21_1010,MP_PerceptionTuring2,59.34068094369803,
60,resources/videos_generated\model(vcgpdm)-dataset(walking)-mode(ELBO)-parts(2)-dyn(24)-lvm(23)_final(0).mov,resources/videos_natural\training(25).mov,True,True,left,0,59,59,59,2018-09-21 10:17:28.338722,2018-09-21 10:17:32.241945,0:00:03.903223,2,left,1,0.7843476218155274,20,f,2,13,2018_Sep_21_1010,MP_PerceptionTuring2,59.34068094369803,
61,resources/videos_generated\model(vcgpdm)-dataset(walking)-mode(ELBO)-parts(1)-dyn(22)-lvm(25)_final(9).mov,resources/videos_natural\training(16).mov,False,True,left,0,60,60,60,2018-09-21 10:17:34.144054,2018-09-21 10:17:38.081279,0:00:03.937225,2,left,1,0.5676775920901491,20,f,2,13,2018_Sep_21_1010,MP_PerceptionTuring2,59.34068094369803,
62,resources/videos_generated\model(vcgpdm)-dataset(walking)-mode(ELBO)-parts(1)-dyn(22)-lvm(23)_final(1).mov,resources/videos_natural\training(12).mov,False,False,right,0,61,61,61,2018-09-21 10:17:39.765376,2018-09-21 10:17:43.668599,0:00:03.903223,2,right,1,0.4672966127473046,20,f,2,13,2018_Sep_21_1010,MP_PerceptionTuring2,59.34068094369803,
63,resources/videos_generated\model(vcgpdm)-dataset(walking)-mode(ELBO)-parts(2)-dyn(27)-lvm(22)_final(2).mov,resources/videos_natural\training(25).mov,True,False,right,0,62,62,62,2018-09-21 10:17:45.253689,2018-09-21 10:17:49.156913,0:00:03.903224,2,right,1,0.5506937438071873,20,f,2,13,2018_Sep_21_1010,MP_PerceptionTuring2,59.34068094369803,
64,resources/videos_generated\model(vcgpdm)-dataset(walking)-mode(ELBO)-parts(1)-dyn(24)-lvm(23)_final(7).mov,resources/videos_natural\training(41).mov,True,True,left,0,63,63,63,2018-09-21 10:17:50.825008,2018-09-21 10:17:54.728231,0:00:03.903223,2,right,0,0.3004716313445215,20,f,2,13,2018_Sep_21_1010,MP_PerceptionTuring2,59.34068094369803,
65,resources/videos_generated\model(vcgpdm)-dataset(walking)-mode(ELBO)-parts(1)-dyn(23)-lvm(26)_final(6)_hip-corrected.mov,resources/videos_natural\training(27).mov,True,False,right,0,64,64,64,2018-09-21 10:17:56.146312,2018-09-21 10:18:00.066537,0:00:03.920225,2,right,1,0.31728742707935,20,f,2,13,2018_Sep_21_1010,MP_PerceptionTuring2,59.34068094369803,
66,resources/videos_generated\model(vcgpdm)-dataset(walking)-mode(ELBO)-parts(2)-dyn(28)-lvm(23)_final(6).mov,resources/videos_natural\training(24).mov,True,False,right,0,65,65,65,2018-09-21 10:18:01.500619,2018-09-21 10:18:05.437844,0:00:03.937225,2,left,0,0.5172576113046716,20,f,2,13,2018_Sep_21_1010,MP_PerceptionTuring2,59.34068094369803,
67,resources/videos_generated\model(vcgpdm)-dataset(walking)-mode(ELBO)-parts(2)-dyn(28)-lvm(19)_final(0).mov,resources/videos_natural\training(29).mov,False,True,left,0,66,66,66,2018-09-21 10:18:07.072937,2018-09-21 10:18:10.976161,0:00:03.903224,2,right,0,0.2838561132879249,20,f,2,13,2018_Sep_21_1010,MP_PerceptionTuring2,59.34068094369803,
68,resources/videos_generated\model(vcgpdm)-dataset(walking)-mode(ELBO)-parts(2)-dyn(25)-lvm(22)_final(2).mov,resources/videos_natural\training(30).mov,False,False,right,0,67,67,67,2018-09-21 10:18:12.377241,2018-09-21 10:18:16.297465,0:00:03.920224,2,right,1,0.3172085206857673,20,f,2,13,2018_Sep_21_1010,MP_PerceptionTuring2,59.34068094369803,
69,resources/videos_generated\model(vcgpdm)-dataset(walking)-mode(ELBO)-parts(2)-dyn(22)-lvm(23)_final(8).mov,resources/videos_natural\training(34).mov,True,True,left,0,68,68,68,2018-09-21 10:18:17.731547,2018-09-21 10:18:21.668772,0:00:03.937225,2,right,0,0.31715732188081347,20,f,2,13,2018_Sep_21_1010,MP_PerceptionTuring2,59.34068094369803,
70,resources/videos_generated\model(dmp)-dataset(walking)-npsi(50)_final(3).mov,resources/videos_natural\training(11).mov,False,False,right,0,69,69,69,2018-09-21 10:18:23.102854,2018-09-21 10:18:27.040079,0:00:03.937225,2,right,1,0.41729104111266224,20,f,2,13,2018_Sep_21_1010,MP_PerceptionTuring2,59.34068094369803,
71,resources/videos_generated\model(tmp)-dataset(walking)-numprim(13)_final(1).mov,resources/videos_natural\training(33).mov,False,False,right,0,70,70,70,2018-09-21 10:18:28.574167,2018-09-21 10:18:32.477390,0:00:03.903223,2,right,1,0.30054692370470093,20,f,2,13,2018_Sep_21_1010,MP_PerceptionTuring2,59.34068094369803,
72,resources/videos_generated\model(vcgpdm)-dataset(walking)-mode(ELBO)-parts(1)-dyn(26)-lvm(22)_final(2).mov,resources/videos_natural\training(41).mov,False,False,right,0,71,71,71,2018-09-21 10:18:33.895472,2018-09-21 10:18:37.849698,0:00:03.954226,2,right,1,0.267271916853133,20,f,2,13,2018_Sep_21_1010,MP_PerceptionTuring2,59.34068094369803,
73,resources/videos_generated\model(vcgpdm)-dataset(walking)-mode(ELBO)-parts(1)-dyn(26)-lvm(23)_final(8).mov,resources/videos_natural\training(27).mov,False,False,right,0,72,72,72,2018-09-21 10:18:39.233777,2018-09-21 10:18:43.187003,0:00:03.953226,2,right,1,0.30071949379441776,20,f,2,13,2018_Sep_21_1010,MP_PerceptionTuring2,59.34068094369803,
74,resources/videos_generated\model(vcgpdm)-dataset(walking)-mode(ELBO)-parts(1)-dyn(27)-lvm(22)_final(2).mov,resources/videos_natural\training(13).mov,False,False,right,0,73,73,73,2018-09-21 10:18:44.605084,2018-09-21 10:18:48.525308,0:00:03.920224,2,left,0,0.2838181659383281,20,f,2,13,2018_Sep_21_1010,MP_PerceptionTuring2,59.34068094369803,
75,resources/videos_generated\model(vcgpdm)-dataset(walking)-mode(ELBO)-parts(1)-dyn(26)-lvm(23)_final(6)_fail.mov,resources/videos_natural\training(23).mov,False,False,right,0,74,74,74,2018-09-21 10:18:49.926389,2018-09-21 10:18:53.829612,0:00:03.903223,2,right,1,0.3338905971888835,20,f,2,13,2018_Sep_21_1010,MP_PerceptionTuring2,59.34068094369803,
76,resources/videos_generated\model(vcgpdm)-dataset(walking)-mode(ELBO)-parts(1)-dyn(23)-lvm(24)_final(4).mov,resources/videos_natural\training(42).mov,False,False,right,0,75,75,75,2018-09-21 10:18:55.280695,2018-09-21 10:18:59.200919,0:00:03.920224,2,right,1,0.30040145886471237,20,f,2,13,2018_Sep_21_1010,MP_PerceptionTuring2,59.34068094369803,
77,resources/videos_generated\model(vcgpdm)-dataset(walking)-mode(ELBO)-parts(1)-dyn(23)-lvm(27)_final(0).mov,resources/videos_natural\training(17).mov,True,False,right,0,76,76,76,2018-09-21 10:19:00.619000,2018-09-21 10:19:04.539224,0:00:03.920224,2,left,0,0.45066965025193895,20,f,2,13,2018_Sep_21_1010,MP_PerceptionTuring2,59.34068094369803,
78,resources/videos_generated\model(vcgpdm)-dataset(walking)-mode(ELBO)-parts(1)-dyn(22)-lvm(27)_final(9)_hip-corrected.mov,resources/videos_natural\training(12).mov,False,True,left,0,77,77,77,2018-09-21 10:19:06.107314,2018-09-21 10:19:10.043539,0:00:03.936225,2,left,1,0.36716500170166455,20,f,2,13,2018_Sep_21_1010,MP_PerceptionTuring2,59.34068094369803,
79,resources/videos_generated\model(vcgpdm)-dataset(walking)-mode(ELBO)-parts(2)-dyn(24)-lvm(19)_final(8).mov,resources/videos_natural\training(29).mov,True,False,right,0,78,78,78,2018-09-21 10:19:11.528624,2018-09-21 10:19:15.431847,0:00:03.903223,2,left,0,0.40054692370472367,20,f,2,13,2018_Sep_21_1010,MP_PerceptionTuring2,59.34068094369803,
80,resources/videos_generated\model(vcgpdm)-dataset(walking)-mode(ELBO)-parts(2)-dyn(23)-lvm(22)_final(8).mov,resources/videos_natural\training(2).mov,True,False,right,0,79,79,79,2018-09-21 10:19:16.949934,2018-09-21 10:19:20.870158,0:00:03.920224,2,right,1,0.3171582253892211,20,f,2,13,2018_Sep_21_1010,MP_PerceptionTuring2,59.34068094369803,
81,resources/videos_generated\model(vcgpdm)-dataset(walking)-mode(ELBO)-parts(2)-dyn(23)-lvm(22)_final(2).mov,resources/videos_natural\training(25).mov,True,False,right,0,80,80,80,2018-09-21 10:19:22.304240,2018-09-21 10:19:26.224465,0:00:03.920225,2,right,1,0.3171546113559316,20,f,2,13,2018_Sep_21_1010,MP_PerceptionTuring2,59.34068094369803,
82,resources/videos_generated\model(vcgpdm)-dataset(walking)-mode(ELBO)-parts(1)-dyn(24)-lvm(23)_final(3)_fail.mov,resources/videos_natural\training(30).mov,True,False,right,0,81,81,81,2018-09-21 10:19:27.658547,2018-09-21 10:19:31.578771,0:00:03.920224,2,right,1,0.7341526146025217,20,f,2,13,2018_Sep_21_1010,MP_PerceptionTuring2,59.34068094369803,
83,resources/videos_generated\model(vcgpdm)-dataset(walking)-mode(ELBO)-parts(2)-dyn(28)-lvm(17)_final(0).mov,resources/videos_natural\training(32).mov,False,False,right,0,82,82,82,2018-09-21 10:19:33.430877,2018-09-21 10:19:37.334100,0:00:03.903223,2,right,1,0.2837970840774915,20,f,2,13,2018_Sep_21_1010,MP_PerceptionTuring2,59.34068094369803,
84,resources/videos_generated\model(vcgpdm)-dataset(walking)-mode(ELBO)-parts(1)-dyn(25)-lvm(26)_final(9).mov,resources/videos_natural\training(4).mov,False,True,left,0,83,83,83,2018-09-21 10:19:38.735180,2018-09-21 10:19:42.638403,0:00:03.903223,2,right,0,0.28390972144836724,20,f,2,13,2018_Sep_21_1010,MP_PerceptionTuring2,59.34068094369803,
85,resources/videos_generated\model(vcgpdm)-dataset(walking)-mode(ELBO)-parts(1)-dyn(22)-lvm(23)_final(7).mov,resources/videos_natural\training(45).mov,False,False,right,0,84,84,84,2018-09-21 10:19:44.039484,2018-09-21 10:19:47.959708,0:00:03.920224,2,left,0,0.3171693686585968,20,f,2,13,2018_Sep_21_1010,MP_PerceptionTuring2,59.34068094369803,
86,resources/videos_generated\model(vcgpdm)-dataset(walking)-mode(ELBO)-parts(1)-dyn(23)-lvm(24)_final(8).mov,resources/videos_natural\training(11).mov,True,True,left,0,85,85,85,2018-09-21 10:19:49.394790,2018-09-21 10:19:53.281012,0:00:03.886222,2,left,1,0.5172928481292729,20,f,2,13,2018_Sep_21_1010,MP_PerceptionTuring2,59.34068094369803,
87,resources/videos_generated\model(vcgpdm)-dataset(walking)-mode(ELBO)-parts(1)-dyn(28)-lvm(25)_final(0).mov,resources/videos_natural\training(7).mov,True,True,left,0,86,86,86,2018-09-21 10:19:54.916106,2018-09-21 10:19:58.852331,0:00:03.936225,2,right,0,0.43390686033853854,20,f,2,13,2018_Sep_21_1010,MP_PerceptionTuring2,59.34068094369803,
88,resources/videos_generated\model(vcgpdm)-dataset(walking)-mode(ELBO)-parts(2)-dyn(26)-lvm(23)_final(6).mov,resources/videos_natural\training(25).mov,True,False,right,0,87,87,87,2018-09-21 10:20:00.403420,2018-09-21 10:20:04.307643,0:00:03.904223,2,left,0,0.333821328217482,20,f,2,13,2018_Sep_21_1010,MP_PerceptionTuring2,59.34068094369803,
89,resources/videos_generated\model(tmp)-dataset(walking)-numprim(14)_final(9).mov,resources/videos_natural\training(24).mov,False,False,right,0,88,88,88,2018-09-21 10:20:05.758726,2018-09-21 10:20:09.661949,0:00:03.903223,2,right,1,0.2671674110570166,20,f,2,13,2018_Sep_21_1010,MP_PerceptionTuring2,59.34068094369803,
90,resources/videos_generated\model(vcgpdm)-dataset(walking)-mode(ELBO)-parts(1)-dyn(28)-lvm(27)_final(0).mov,resources/videos_natural\training(26).mov,True,True,left,0,89,89,89,2018-09-21 10:20:11.046028,2018-09-21 10:20:14.950252,0:00:03.904224,2,left,1,0.3840202506332844,20,f,2,13,2018_Sep_21_1010,MP_PerceptionTuring2,59.34068094369803,
91,resources/videos_generated\model(vcgpdm)-dataset(walking)-mode(ELBO)-parts(1)-dyn(25)-lvm(26)_final(3)_fail.mov,resources/videos_natural\training(44).mov,False,True,left,0,90,90,90,2018-09-21 10:20:48.379164,2018-09-21 10:20:52.298388,0:00:03.919224,3,left,1,0.33384331358661257,20,f,2,13,2018_Sep_21_1010,MP_PerceptionTuring2,59.34068094369803,
92,resources/videos_generated\model(vcgpdm)-dataset(walking)-mode(ELBO)-parts(2)-dyn(22)-lvm(17)_final(2).mov,resources/videos_natural\training(40).mov,True,False,right,0,91,91,91,2018-09-21 10:20:53.750471,2018-09-21 10:20:57.669695,0:00:03.919224,3,left,0,0.2504314252241784,20,f,2,13,2018_Sep_21_1010,MP_PerceptionTuring2,59.34068094369803,
93,resources/videos_generated\model(vcgpdm)-dataset(walking)-mode(ELBO)-parts(2)-dyn(22)-lvm(17)_final(0).mov,resources/videos_natural\training(6).mov,False,False,right,0,92,92,92,2018-09-21 10:20:59.037773,2018-09-21 10:21:02.957997,0:00:03.920224,3,right,1,0.2838347302576949,20,f,2,13,2018_Sep_21_1010,MP_PerceptionTuring2,59.34068094369803,
94,resources/videos_generated\model(vcgpdm)-dataset(walking)-mode(ELBO)-parts(1)-dyn(28)-lvm(27)_final(2).mov,resources/videos_natural\training(35).mov,True,True,left,0,93,93,93,2018-09-21 10:21:04.359078,2018-09-21 10:21:08.262301,0:00:03.903223,3,left,1,0.31724285400196095,20,f,2,13,2018_Sep_21_1010,MP_PerceptionTuring2,59.34068094369803,
95,resources/videos_generated\model(vcgpdm)-dataset(walking)-mode(ELBO)-parts(1)-dyn(22)-lvm(27)_final(3)_fail.mov,resources/videos_natural\training(46).mov,True,False,right,0,94,94,94,2018-09-21 10:21:09.697383,2018-09-21 10:21:13.617607,0:00:03.920224,3,right,1,0.4672863729863366,20,f,2,13,2018_Sep_21_1010,MP_PerceptionTuring2,59.34068094369803,
96,resources/videos_generated\model(vcgpdm)-dataset(walking)-mode(ELBO)-parts(1)-dyn(28)-lvm(23)_final(0).mov,resources/videos_natural\training(20).mov,True,True,left,0,95,95,95,2018-09-21 10:21:15.201698,2018-09-21 10:21:19.121922,0:00:03.920224,3,left,1,0.5006252277594285,20,f,2,13,2018_Sep_21_1010,MP_PerceptionTuring2,59.34068094369803,
97,resources/videos_generated\model(vcgpdm)-dataset(walking)-mode(ELBO)-parts(2)-dyn(27)-lvm(20)_final(0).mov,resources/videos_natural\training(1).mov,True,False,right,0,96,96,96,2018-09-21 10:21:20.740015,2018-09-21 10:21:24.660239,0:00:03.920224,3,left,0,0.284021455310949,20,f,2,13,2018_Sep_21_1010,MP_PerceptionTuring2,59.34068094369803,
98,resources/videos_generated\model(vcgpdm)-dataset(walking)-mode(ELBO)-parts(2)-dyn(25)-lvm(18)_final(0).mov,resources/videos_natural\training(5).mov,False,False,right,0,97,97,97,2018-09-21 10:21:26.061319,2018-09-21 10:21:29.981543,0:00:03.920224,3,right,1,0.40052403482718546,20,f,2,13,2018_Sep_21_1010,MP_PerceptionTuring2,59.34068094369803,
99,resources/videos_generated\model(vcgpdm)-dataset(walking)-mode(ELBO)-parts(2)-dyn(22)-lvm(21)_final(6).mov,resources/videos_natural\training(48).mov,False,False,right,0,98,98,98,2018-09-21 10:21:31.499630,2018-09-21 10:21:35.419854,0:00:03.920224,3,right,1,0.26706170058355383,20,f,2,13,2018_Sep_21_1010,MP_PerceptionTuring2,59.34068094369803,
100,resources/videos_generated\model(dmp)-dataset(walking)-npsi(60)_final(7).mov,resources/videos_natural\training(1).mov,True,False,right,0,99,99,99,2018-09-21 10:21:36.803933,2018-09-21 10:21:40.724158,0:00:03.920225,3,left,0,0.35057929941945076,20,f,2,13,2018_Sep_21_1010,MP_PerceptionTuring2,59.34068094369803,
101,resources/videos_generated\model(vcgpdm)-dataset(walking)-mode(ELBO)-parts(1)-dyn(24)-lvm(27)_final(3).mov,resources/videos_natural\training(2).mov,False,False,right,0,100,100,100,2018-09-21 10:21:42.192242,2018-09-21 10:21:46.128467,0:00:03.936225,3,left,0,0.300481268766589,20,f,2,13,2018_Sep_21_1010,MP_PerceptionTuring2,59.34068094369803,
102,resources/videos_generated\model(vcgpdm)-dataset(walking)-mode(ELBO)-parts(1)-dyn(27)-lvm(24)_final(4).mov,resources/videos_natural\training(23).mov,True,False,right,0,101,101,101,2018-09-21 10:21:47.546548,2018-09-21 10:21:51.449771,0:00:03.903223,3,right,1,0.31730911127897343,20,f,2,13,2018_Sep_21_1010,MP_PerceptionTuring2,59.34068094369803,
103,resources/videos_generated\model(vcgpdm)-dataset(walking)-mode(ELBO)-parts(2)-dyn(28)-lvm(21)_final(4).mov,resources/videos_natural\training(13).mov,False,False,right,0,102,102,102,2018-09-21 10:21:52.884853,2018-09-21 10:21:56.821078,0:00:03.936225,3,right,1,0.2671439198406915,20,f,2,13,2018_Sep_21_1010,MP_PerceptionTuring2,59.34068094369803,
104,resources/videos_generated\model(vcgpdm)-dataset(walking)-mode(ELBO)-parts(2)-dyn(26)-lvm(21)_final(6).mov,resources/videos_natural\training(46).mov,False,True,left,0,103,103,103,2018-09-21 10:21:58.205157,2018-09-21 10:22:02.126382,0:00:03.921225,3,left,1,0.2837618472528902,20,f,2,13,2018_Sep_21_1010,MP_PerceptionTuring2,59.34068094369803,
105,resources/videos_generated\model(vcgpdm)-dataset(walking)-mode(ELBO)-parts(1)-dyn(28)-lvm(23)_final(4)_fail.mov,resources/videos_natural\training(9).mov,False,False,right,0,104,104,104,2018-09-21 10:22:03.526462,2018-09-21 10:22:07.431685,0:00:03.905223,3,right,1,0.28382870686868955,20,f,2,13,2018_Sep_21_1010,MP_PerceptionTuring2,59.34068094369803,
106,resources/videos_generated\model(vcgpdm)-dataset(walking)-mode(ELBO)-parts(2)-dyn(26)-lvm(21)_final(4).mov,resources/videos_natural\training(42).mov,True,True,left,0,105,105,105,2018-09-21 10:22:08.831765,2018-09-21 10:22:12.734988,0:00:03.903223,3,left,1,0.3338324714866303,20,f,2,13,2018_Sep_21_1010,MP_PerceptionTuring2,59.34068094369803,
107,resources/videos_generated\model(vcgpdm)-dataset(walking)-mode(ELBO)-parts(2)-dyn(28)-lvm(17)_final(8).mov,resources/videos_natural\training(25).mov,False,True,left,0,106,106,106,2018-09-21 10:22:14.186071,2018-09-21 10:22:18.106296,0:00:03.920225,3,left,1,0.3671803613428892,20,f,2,13,2018_Sep_21_1010,MP_PerceptionTuring2,59.34068094369803,
108,resources/videos_generated\model(vcgpdm)-dataset(walking)-mode(ELBO)-parts(1)-dyn(28)-lvm(25)_final(8).mov,resources/videos_natural\training(43).mov,False,True,left,0,107,107,107,2018-09-21 10:22:19.591381,2018-09-21 10:22:23.510605,0:00:03.919224,3,right,0,0.33406587780359587,20,f,2,13,2018_Sep_21_1010,MP_PerceptionTuring2,59.34068094369803,
109,resources/videos_generated\model(tmp)-dataset(walking)-numprim(11)_final(9).mov,resources/videos_natural\training(27).mov,True,False,right,0,108,108,108,2018-09-21 10:22:24.961688,2018-09-21 10:22:28.881912,0:00:03.920224,3,left,0,0.48400067461943763,20,f,2,13,2018_Sep_21_1010,MP_PerceptionTuring2,59.34068094369803,
110,resources/videos_generated\model(dmp)-dataset(walking)-npsi(70)_final(1).mov,resources/videos_natural\training(34).mov,True,True,left,0,109,109,109,2018-09-21 10:22:30.484004,2018-09-21 10:22:34.454231,0:00:03.970227,3,left,1,0.31775423971294003,20,f,2,13,2018_Sep_21_1010,MP_PerceptionTuring2,59.34068094369803,
111,resources/videos_generated\model(vcgpdm)-dataset(walking)-mode(ELBO)-parts(1)-dyn(27)-lvm(28)_final(6).mov,resources/videos_natural\training(18).mov,False,True,left,0,110,110,110,2018-09-21 10:22:35.888313,2018-09-21 10:22:39.841539,0:00:03.953226,3,left,1,0.2505970684167096,20,f,2,13,2018_Sep_21_1010,MP_PerceptionTuring2,59.34068094369803,
112,resources/videos_generated\model(dmp)-dataset(walking)-npsi(60)_final(9).mov,resources/videos_natural\training(38).mov,False,True,left,0,111,111,111,2018-09-21 10:22:41.209617,2018-09-21 10:22:45.112840,0:00:03.903223,3,right,0,0.3005743301239363,20,f,2,13,2018_Sep_21_1010,MP_PerceptionTuring2,59.34068094369803,
113,resources/videos_generated\model(vcgpdm)-dataset(walking)-mode(ELBO)-parts(2)-dyn(27)-lvm(20)_final(2).mov,resources/videos_natural\training(26).mov,True,False,right,0,112,112,112,2018-09-21 10:22:46.530922,2018-09-21 10:22:50.418144,0:00:03.887222,3,right,1,0.4339363749440963,20,f,2,13,2018_Sep_21_1010,MP_PerceptionTuring2,59.34068094369803,
114,resources/videos_generated\model(vcgpdm)-dataset(walking)-mode(ELBO)-parts(2)-dyn(28)-lvm(19)_final(4).mov,resources/videos_natural\training(38).mov,True,True,left,0,113,113,113,2018-09-21 10:22:51.969233,2018-09-21 10:22:55.889457,0:00:03.920224,3,left,1,0.30047946175000106,20,f,2,13,2018_Sep_21_1010,MP_PerceptionTuring2,59.34068094369803,
115,resources/videos_generated\model(vcgpdm)-dataset(walking)-mode(ELBO)-parts(1)-dyn(28)-lvm(24)_final(5).mov,resources/videos_natural\training(29).mov,False,True,left,0,114,114,114,2018-09-21 10:22:57.306538,2018-09-21 10:23:01.243763,0:00:03.937225,3,right,0,0.28370884143123476,20,f,2,13,2018_Sep_21_1010,MP_PerceptionTuring2,59.34068094369803,
116,resources/videos_generated\model(tmp)-dataset(walking)-numprim(14)_final(1).mov,resources/videos_natural\training(41).mov,False,False,right,0,115,115,115,2018-09-21 10:23:02.644843,2018-09-21 10:23:06.565067,0:00:03.920224,3,left,0,0.3004234442339566,20,f,2,13,2018_Sep_21_1010,MP_PerceptionTuring2,59.34068094369803,
117,resources/videos_generated\model(tmp)-dataset(walking)-numprim(11)_final(1).mov,resources/videos_natural\training(47).mov,False,False,right,0,116,116,116,2018-09-21 10:23:07.983149,2018-09-21 10:23:11.903373,0:00:03.920224,3,right,1,0.3170624535071056,20,f,2,13,2018_Sep_21_1010,MP_PerceptionTuring2,59.34068094369803,
118,resources/videos_generated\model(tmp)-dataset(walking)-numprim(14)_final(5).mov,resources/videos_natural\training(41).mov,False,True,left,0,117,117,117,2018-09-21 10:23:13.337455,2018-09-21 10:23:17.240678,0:00:03.903223,3,left,1,0.317315737006993,20,f,2,13,2018_Sep_21_1010,MP_PerceptionTuring2,59.34068094369803,
119,resources/videos_generated\model(tmp)-dataset(walking)-numprim(12)_final(1).mov,resources/videos_natural\training(10).mov,True,False,right,0,118,118,118,2018-09-21 10:23:18.675760,2018-09-21 10:23:22.561982,0:00:03.886222,3,left,0,0.35057116784469144,20,f,2,13,2018_Sep_21_1010,MP_PerceptionTuring2,59.34068094369803,
120,resources/videos_generated\model(vcgpdm)-dataset(walking)-mode(ELBO)-parts(2)-dyn(25)-lvm(20)_final(4).mov,resources/videos_natural\training(35).mov,False,True,left,0,119,119,119,2018-09-21 10:23:24.030066,2018-09-21 10:23:27.950291,0:00:03.920225,3,left,1,0.28396664247270564,20,f,2,13,2018_Sep_21_1010,MP_PerceptionTuring2,59.34068094369803,
121,resources/videos_generated\model(vcgpdm)-dataset(walking)-mode(ELBO)-parts(2)-dyn(23)-lvm(20)_final(2).mov,resources/videos_natural\training(39).mov,True,True,left,0,120,120,120,2018-09-21 10:23:29.351371,2018-09-21 10:23:33.271595,0:00:03.920224,3,left,1,0.2838395489686718,20,f,2,13,2018_Sep_21_1010,MP_PerceptionTuring2,59.34068094369803,
122,resources/videos_generated\model(vcgpdm)-dataset(walking)-mode(ELBO)-parts(1)-dyn(22)-lvm(22)_final(9).mov,resources/videos_natural\training(44).mov,True,False,right,0,121,121,121,2018-09-21 10:23:34.672675,2018-09-21 10:23:38.575898,0:00:03.903223,3,right,1,0.4672857706475497,20,f,2,13,2018_Sep_21_1010,MP_PerceptionTuring2,59.34068094369803,
123,resources/videos_generated\model(vcgpdm)-dataset(walking)-mode(ELBO)-parts(1)-dyn(27)-lvm(26)_final(6).mov,resources/videos_natural\training(17).mov,False,True,left,0,122,122,122,2018-09-21 10:23:40.160989,2018-09-21 10:23:44.097214,0:00:03.936225,3,left,1,0.31716846515018915,20,f,2,13,2018_Sep_21_1010,MP_PerceptionTuring2,59.34068094369803,
124,resources/videos_generated\model(vcgpdm)-dataset(walking)-mode(ELBO)-parts(1)-dyn(23)-lvm(22)_final(0).mov,resources/videos_natural\training(22).mov,True,True,left,0,123,123,123,2018-09-21 10:23:45.532296,2018-09-21 10:23:49.435519,0:00:03.903223,3,left,1,0.35067868533519686,20,f,2,13,2018_Sep_21_1010,MP_PerceptionTuring2,59.34068094369803,
125,resources/videos_generated\model(dmp)-dataset(walking)-npsi(50)_final(1).mov,resources/videos_natural\training(9).mov,False,False,right,0,124,124,124,2018-09-21 10:23:50.903603,2018-09-21 10:23:54.806827,0:00:03.903224,3,right,1,0.2839470664591772,20,f,2,13,2018_Sep_21_1010,MP_PerceptionTuring2,59.34068094369803,
126,resources/videos_generated\model(vcgpdm)-dataset(walking)-mode(ELBO)-parts(2)-dyn(24)-lvm(19)_final(4).mov,resources/videos_natural\training(33).mov,False,True,left,0,125,125,125,2018-09-21 10:23:56.207907,2018-09-21 10:24:00.094129,0:00:03.886222,3,right,0,0.3004782570722,20,f,2,13,2018_Sep_21_1010,MP_PerceptionTuring2,59.34068094369803,
127,resources/videos_generated\model(vcgpdm)-dataset(walking)-mode(ELBO)-parts(2)-dyn(25)-lvm(20)_final(6).mov,resources/videos_natural\training(25).mov,True,True,left,0,126,126,126,2018-09-21 10:24:01.512210,2018-09-21 10:24:05.449435,0:00:03.937225,3,left,1,0.26677619195334046,20,f,2,13,2018_Sep_21_1010,MP_PerceptionTuring2,59.34068094369803,
128,resources/videos_generated\model(vcgpdm)-dataset(walking)-mode(ELBO)-parts(1)-dyn(23)-lvm(28)_final(5).mov,resources/videos_natural\training(8).mov,True,True,left,0,127,127,127,2018-09-21 10:24:06.833515,2018-09-21 10:24:10.736738,0:00:03.903223,3,left,1,0.2503717936747307,20,f,2,13,2018_Sep_21_1010,MP_PerceptionTuring2,59.34068094369803,
129,resources/videos_generated\model(vcgpdm)-dataset(walking)-mode(ELBO)-parts(1)-dyn(27)-lvm(24)_final(0).mov,resources/videos_natural\training(34).mov,False,True,left,0,128,128,128,2018-09-21 10:24:12.104816,2018-09-21 10:24:15.992038,0:00:03.887222,3,right,0,0.35071271748211075,20,f,2,13,2018_Sep_21_1010,MP_PerceptionTuring2,59.34068094369803,
130,resources/videos_generated\model(vcgpdm)-dataset(walking)-mode(ELBO)-parts(1)-dyn(25)-lvm(26)_final(7).mov,resources/videos_natural\training(12).mov,True,True,left,0,129,129,129,2018-09-21 10:24:17.459122,2018-09-21 10:24:21.379347,0:00:03.920225,3,left,1,0.31722689202183574,20,f,2,13,2018_Sep_21_1010,MP_PerceptionTuring2,59.34068094369803,
131,resources/videos_generated\model(dmp)-dataset(walking)-npsi(50)_final(7).mov,resources/videos_natural\training(36).mov,False,True,left,0,130,130,130,2018-09-21 10:24:22.814429,2018-09-21 10:24:26.750654,0:00:03.936225,3,left,1,0.38403470676644247,20,f,2,13,2018_Sep_21_1010,MP_PerceptionTuring2,59.34068094369803,
132,resources/videos_generated\model(tmp)-dataset(walking)-numprim(12)_final(7).mov,resources/videos_natural\training(17).mov,True,False,right,0,131,131,131,2018-09-21 10:24:28.251740,2018-09-21 10:24:32.138962,0:00:03.887222,3,right,1,0.5340978017643465,20,f,2,13,2018_Sep_21_1010,MP_PerceptionTuring2,59.34068094369803,
133,resources/videos_generated\model(vcgpdm)-dataset(walking)-mode(ELBO)-parts(2)-dyn(26)-lvm(23)_final(4).mov,resources/videos_natural\training(32).mov,True,True,left,0,132,132,132,2018-09-21 10:24:33.790056,2018-09-21 10:24:37.693280,0:00:03.903224,3,left,1,0.3337400124685246,20,f,2,13,2018_Sep_21_1010,MP_PerceptionTuring2,59.34068094369803,
134,resources/videos_generated\model(vcgpdm)-dataset(walking)-mode(ELBO)-parts(1)-dyn(22)-lvm(23)_final(5).mov,resources/videos_natural\training(6).mov,True,False,right,0,133,133,133,2018-09-21 10:24:39.145363,2018-09-21 10:24:43.048586,0:00:03.903223,3,right,1,0.28447983520027265,20,f,2,13,2018_Sep_21_1010,MP_PerceptionTuring2,59.34068094369803,
135,resources/videos_generated\model(dmp)-dataset(walking)-npsi(100)_final(7).mov,resources/videos_natural\training(25).mov,False,True,left,0,134,134,134,2018-09-21 10:24:44.449666,2018-09-21 10:24:48.369890,0:00:03.920224,3,left,1,0.2673237179969874,20,f,2,13,2018_Sep_21_1010,MP_PerceptionTuring2,59.34068094369803,
136,resources/videos_generated\model(vcgpdm)-dataset(walking)-mode(ELBO)-parts(1)-dyn(23)-lvm(28)_final(1).mov,resources/videos_natural\training(11).mov,True,True,left,0,135,135,135,2018-09-21 10:25:22.181824,2018-09-21 10:25:26.102048,0:00:03.920224,4,left,1,0.2337909101038349,20,f,2,13,2018_Sep_21_1010,MP_PerceptionTuring2,59.34068094369803,
137,resources/videos_generated\model(vcgpdm)-dataset(walking)-mode(ELBO)-parts(2)-dyn(28)-lvm(17)_final(6).mov,resources/videos_natural\training(46).mov,False,False,right,0,136,136,136,2018-09-21 10:25:27.453126,2018-09-21 10:25:31.373350,0:00:03.920224,4,right,1,0.2671306683853345,20,f,2,13,2018_Sep_21_1010,MP_PerceptionTuring2,59.34068094369803,
138,resources/videos_generated\model(dmp)-dataset(walking)-npsi(90)_final(7).mov,resources/videos_natural\training(46).mov,True,True,left,0,137,137,137,2018-09-21 10:25:32.757429,2018-09-21 10:25:36.677653,0:00:03.920224,4,left,1,0.28390640858447114,20,f,2,13,2018_Sep_21_1010,MP_PerceptionTuring2,59.34068094369803,
139,resources/videos_generated\model(tmp)-dataset(walking)-numprim(15)_final(3).mov,resources/videos_natural\training(47).mov,True,False,right,0,138,138,138,2018-09-21 10:25:38.078733,2018-09-21 10:25:41.998958,0:00:03.920225,4,left,0,0.2505371356978685,20,f,2,13,2018_Sep_21_1010,MP_PerceptionTuring2,59.34068094369803,
140,resources/videos_generated\model(vcgpdm)-dataset(walking)-mode(ELBO)-parts(1)-dyn(22)-lvm(25)_final(1).mov,resources/videos_natural\training(39).mov,True,True,left,0,139,139,139,2018-09-21 10:25:43.367036,2018-09-21 10:25:47.320262,0:00:03.953226,4,left,1,0.25048473221522727,20,f,2,13,2018_Sep_21_1010,MP_PerceptionTuring2,59.34068094369803,
141,resources/videos_generated\model(vcgpdm)-dataset(walking)-mode(ELBO)-parts(2)-dyn(27)-lvm(22)_final(6).mov,resources/videos_natural\training(2).mov,False,True,left,0,140,140,140,2018-09-21 10:25:48.688340,2018-09-21 10:25:52.575563,0:00:03.887223,4,left,1,0.3005547541101805,20,f,2,13,2018_Sep_21_1010,MP_PerceptionTuring2,59.34068094369803,
142,resources/videos_generated\model(vcgpdm)-dataset(walking)-mode(ELBO)-parts(1)-dyn(28)-lvm(25)_final(4).mov,resources/videos_natural\training(21).mov,True,True,left,0,141,141,141,2018-09-21 10:25:53.992644,2018-09-21 10:25:57.895867,0:00:03.903223,4,right,0,0.6006183008623793,20,f,2,13,2018_Sep_21_1010,MP_PerceptionTuring2,59.34068094369803,
143,resources/videos_generated\model(vcgpdm)-dataset(walking)-mode(ELBO)-parts(2)-dyn(26)-lvm(17)_final(0).mov,resources/videos_natural\training(19).mov,True,True,left,0,142,142,142,2018-09-21 10:25:59.614965,2018-09-21 10:26:03.534189,0:00:03.919224,4,right,0,0.28380491448297107,20,f,2,13,2018_Sep_21_1010,MP_PerceptionTuring2,59.34068094369803,
144,resources/videos_generated\model(dmp)-dataset(walking)-npsi(60)_final(1).mov,resources/videos_natural\training(30).mov,True,False,right,0,143,143,143,2018-09-21 10:26:04.935270,2018-09-21 10:26:08.839493,0:00:03.904223,4,left,0,0.3671306683854709,20,f,2,13,2018_Sep_21_1010,MP_PerceptionTuring2,59.34068094369803,
145,resources/videos_generated\model(vcgpdm)-dataset(walking)-mode(ELBO)-parts(2)-dyn(23)-lvm(20)_final(4).mov,resources/videos_natural\training(4).mov,True,False,right,0,144,144,144,2018-09-21 10:26:10.323578,2018-09-21 10:26:14.226801,0:00:03.903223,4,left,0,0.3338649977865771,20,f,2,13,2018_Sep_21_1010,MP_PerceptionTuring2,59.34068094369803,
146,resources/videos_generated\model(vcgpdm)-dataset(walking)-mode(ELBO)-parts(1)-dyn(26)-lvm(25)_final(8).mov,resources/videos_natural\training(7).mov,False,False,right,0,145,145,145,2018-09-21 10:26:15.677884,2018-09-21 10:26:19.615109,0:00:03.937225,4,right,1,0.46726348410879837,20,f,2,13,2018_Sep_21_1010,MP_PerceptionTuring2,59.34068094369803,
147,resources/videos_generated\model(vcgpdm)-dataset(walking)-mode(ELBO)-parts(1)-dyn(24)-lvm(27)_final(7).mov,resources/videos_natural\training(21).mov,True,True,left,0,146,146,146,2018-09-21 10:26:21.200200,2018-09-21 10:26:25.120424,0:00:03.920224,4,left,1,0.2673902764433933,20,f,2,13,2018_Sep_21_1010,MP_PerceptionTuring2,59.34068094369803,
148,resources/videos_generated\model(vcgpdm)-dataset(walking)-mode(ELBO)-parts(1)-dyn(25)-lvm(28)_final(5).mov,resources/videos_natural\training(24).mov,True,False,right,0,147,147,147,2018-09-21 10:26:26.504503,2018-09-21 10:26:30.424728,0:00:03.920225,4,left,0,0.4006089646095461,20,f,2,13,2018_Sep_21_1010,MP_PerceptionTuring2,59.34068094369803,
149,resources/videos_generated\model(vcgpdm)-dataset(walking)-mode(ELBO)-parts(1)-dyn(28)-lvm(27)_final(4).mov,resources/videos_natural\training(41).mov,True,False,right,0,148,148,148,2018-09-21 10:26:31.942814,2018-09-21 10:26:35.863039,0:00:03.920225,4,right,1,0.2673155864222281,20,f,2,13,2018_Sep_21_1010,MP_PerceptionTuring2,59.34068094369803,
150,resources/videos_generated\model(tmp)-dataset(walking)-numprim(13)_final(7).mov,resources/videos_natural\training(19).mov,True,True,left,0,149,149,149,2018-09-21 10:26:37.247118,2018-09-21 10:26:41.183343,0:00:03.936225,4,right,0,0.23372736335204536,20,f,2,13,2018_Sep_21_1010,MP_PerceptionTuring2,59.34068094369803,
151,resources/videos_generated\model(vcgpdm)-dataset(walking)-mode(ELBO)-parts(1)-dyn(24)-lvm(27)_final(5).mov,resources/videos_natural\training(48).mov,True,True,left,0,150,150,150,2018-09-21 10:26:42.534420,2018-09-21 10:26:46.438643,0:00:03.904223,4,left,1,0.2505049105677699,20,f,2,13,2018_Sep_21_1010,MP_PerceptionTuring2,59.34068094369803,
152,resources/videos_generated\model(dmp)-dataset(walking)-npsi(80)_final(3).mov,resources/videos_natural\training(26).mov,True,True,left,0,151,151,151,2018-09-21 10:26:47.805722,2018-09-21 10:26:51.725946,0:00:03.920224,4,left,1,0.2831046955327565,20,f,2,13,2018_Sep_21_1010,MP_PerceptionTuring2,59.34068094369803,
153,resources/videos_generated\model(vcgpdm)-dataset(walking)-mode(ELBO)-parts(2)-dyn(23)-lvm(20)_final(6).mov,resources/videos_natural\training(18).mov,True,False,right,0,152,152,152,2018-09-21 10:26:53.127026,2018-09-21 10:26:57.031249,0:00:03.904223,4,left,0,0.46726348410879837,20,f,2,13,2018_Sep_21_1010,MP_PerceptionTuring2,59.34068094369803,
154,resources/videos_generated\model(vcgpdm)-dataset(walking)-mode(ELBO)-parts(1)-dyn(26)-lvm(23)_final(4)_fail.mov,resources/videos_natural\training(15).mov,False,True,left,0,153,153,153,2018-09-21 10:26:58.615340,2018-09-21 10:27:02.502562,0:00:03.887222,4,left,1,0.28378804899421084,20,f,2,13,2018_Sep_21_1010,MP_PerceptionTuring2,59.34068094369803,
155,resources/videos_generated\model(vcgpdm)-dataset(walking)-mode(ELBO)-parts(1)-dyn(25)-lvm(22)_final(1).mov,resources/videos_natural\training(26).mov,False,True,left,0,154,154,154,2018-09-21 10:27:03.903642,2018-09-21 10:27:07.823867,0:00:03.920225,4,left,1,0.3171416610698543,20,f,2,13,2018_Sep_21_1010,MP_PerceptionTuring2,59.34068094369803,
156,resources/videos_generated\model(vcgpdm)-dataset(walking)-mode(ELBO)-parts(2)-dyn(22)-lvm(21)_final(8).mov,resources/videos_natural\training(16).mov,True,True,left,0,155,155,155,2018-09-21 10:27:09.257949,2018-09-21 10:27:13.178173,0:00:03.920224,4,left,1,0.25051183746495553,20,f,2,13,2018_Sep_21_1010,MP_PerceptionTuring2,59.34068094369803,
157,resources/videos_generated\model(vcgpdm)-dataset(walking)-mode(ELBO)-parts(2)-dyn(22)-lvm(17)_final(8).mov,resources/videos_natural\training(16).mov,False,True,left,0,156,156,156,2018-09-21 10:27:14.546251,2018-09-21 10:27:18.466475,0:00:03.920224,4,right,0,0.25037932291093057,20,f,2,13,2018_Sep_21_1010,MP_PerceptionTuring2,59.34068094369803,
158,resources/videos_generated\model(tmp)-dataset(walking)-numprim(13)_final(5).mov,resources/videos_natural\training(20).mov,False,False,right,0,157,157,157,2018-09-21 10:27:19.834554,2018-09-21 10:27:23.753778,0:00:03.919224,4,left,0,0.26715415960188693,20,f,2,13,2018_Sep_21_1010,MP_PerceptionTuring2,59.34068094369803,
159,resources/videos_generated\model(vcgpdm)-dataset(walking)-mode(ELBO)-parts(2)-dyn(23)-lvm(18)_final(4).mov,resources/videos_natural\training(17).mov,True,True,left,0,158,158,158,2018-09-21 10:27:25.138857,2018-09-21 10:27:29.058081,0:00:03.919224,4,left,1,0.9176828625554663,20,f,2,13,2018_Sep_21_1010,MP_PerceptionTuring2,59.34068094369803,
160,resources/videos_generated\model(vcgpdm)-dataset(walking)-mode(ELBO)-parts(2)-dyn(28)-lvm(21)_final(6).mov,resources/videos_natural\training(14).mov,False,False,right,0,159,159,159,2018-09-21 10:27:31.093198,2018-09-21 10:27:35.013422,0:00:03.920224,4,right,1,0.2337165212520631,20,f,2,13,2018_Sep_21_1010,MP_PerceptionTuring2,59.34068094369803,
161,resources/videos_generated\model(vcgpdm)-dataset(walking)-mode(ELBO)-parts(2)-dyn(24)-lvm(17)_final(0).mov,resources/videos_natural\training(20).mov,True,True,left,0,160,160,160,2018-09-21 10:27:36.364499,2018-09-21 10:27:40.251721,0:00:03.887222,4,left,1,0.2671601829906649,20,f,2,13,2018_Sep_21_1010,MP_PerceptionTuring2,59.34068094369803,
162,resources/videos_generated\model(vcgpdm)-dataset(walking)-mode(ELBO)-parts(1)-dyn(25)-lvm(28)_final(7).mov,resources/videos_natural\training(17).mov,True,False,right,0,161,161,161,2018-09-21 10:27:41.635801,2018-09-21 10:27:45.573026,0:00:03.937225,4,right,1,0.2505241854119049,20,f,2,13,2018_Sep_21_1010,MP_PerceptionTuring2,59.34068094369803,
163,resources/videos_generated\model(vcgpdm)-dataset(walking)-mode(ELBO)-parts(2)-dyn(27)-lvm(22)_final(0).mov,resources/videos_natural\training(6).mov,False,True,left,0,162,162,162,2018-09-21 10:27:46.940104,2018-09-21 10:27:50.877329,0:00:03.937225,4,left,1,0.2842762446580309,20,f,2,13,2018_Sep_21_1010,MP_PerceptionTuring2,59.34068094369803,
164,resources/videos_generated\model(dmp)-dataset(walking)-npsi(100)_final(3).mov,resources/videos_natural\training(42).mov,False,False,right,0,163,163,163,2018-09-21 10:27:52.278409,2018-09-21 10:27:56.165632,0:00:03.887223,4,right,1,0.28375793205032096,20,f,2,13,2018_Sep_21_1010,MP_PerceptionTuring2,59.34068094369803,
165,resources/videos_generated\model(vcgpdm)-dataset(walking)-mode(ELBO)-parts(1)-dyn(25)-lvm(28)_final(3).mov,resources/videos_natural\training(16).mov,False,False,right,0,164,164,164,2018-09-21 10:27:57.566712,2018-09-21 10:28:01.469935,0:00:03.903223,4,right,1,0.3672225250647898,20,f,2,13,2018_Sep_21_1010,MP_PerceptionTuring2,59.34068094369803,
166,resources/videos_generated\model(vcgpdm)-dataset(walking)-mode(ELBO)-parts(2)-dyn(24)-lvm(17)_final(8).mov,resources/videos_natural\training(3).mov,True,True,left,0,165,165,165,2018-09-21 10:28:02.954020,2018-09-21 10:28:06.891245,0:00:03.937225,4,left,1,0.48421239673666605,20,f,2,13,2018_Sep_21_1010,MP_PerceptionTuring2,59.34068094369803,
167,resources/videos_generated\model(dmp)-dataset(walking)-npsi(60)_final(5).mov,resources/videos_natural\training(36).mov,False,True,left,0,166,166,166,2018-09-21 10:28:08.492337,2018-09-21 10:28:12.379559,0:00:03.887222,4,left,1,0.2671147064049819,20,f,2,13,2018_Sep_21_1010,MP_PerceptionTuring2,59.34068094369803,
168,resources/videos_generated\model(vcgpdm)-dataset(walking)-mode(ELBO)-parts(1)-dyn(26)-lvm(27)_final(0).mov,resources/videos_natural\training(18).mov,True,True,left,0,167,167,167,2018-09-21 10:28:13.763638,2018-09-21 10:28:17.683862,0:00:03.920224,4,left,1,0.26708609530805916,20,f,2,13,2018_Sep_21_1010,MP_PerceptionTuring2,59.34068094369803,
169,resources/videos_generated\model(vcgpdm)-dataset(walking)-mode(ELBO)-parts(2)-dyn(26)-lvm(21)_final(0).mov,resources/videos_natural\training(18).mov,False,False,right,0,168,168,168,2018-09-21 10:28:19.067942,2018-09-21 10:28:22.988166,0:00:03.920224,4,right,1,0.25036456560837905,20,f,2,13,2018_Sep_21_1010,MP_PerceptionTuring2,59.34068094369803,
170,resources/videos_generated\model(vcgpdm)-dataset(walking)-mode(ELBO)-parts(1)-dyn(22)-lvm(23)_final(3)_fail.mov,resources/videos_natural\training(10).mov,False,False,right,0,169,169,169,2018-09-21 10:28:24.356244,2018-09-21 10:28:28.293469,0:00:03.937225,4,right,1,0.30034122497659155,20,f,2,13,2018_Sep_21_1010,MP_PerceptionTuring2,59.34068094369803,
171,resources/videos_generated\model(vcgpdm)-dataset(walking)-mode(ELBO)-parts(2)-dyn(25)-lvm(20)_final(2).mov,resources/videos_natural\training(4).mov,False,True,left,0,170,170,170,2018-09-21 10:28:29.710550,2018-09-21 10:28:33.630774,0:00:03.920224,4,right,0,0.4172762838102244,20,f,2,13,2018_Sep_21_1010,MP_PerceptionTuring2,59.34068094369803,
172,resources/videos_generated\model(vcgpdm)-dataset(walking)-mode(ELBO)-parts(1)-dyn(24)-lvm(25)_final(1).mov,resources/videos_natural\training(23).mov,False,False,right,0,171,171,171,2018-09-21 10:28:35.165862,2018-09-21 10:28:39.086087,0:00:03.920225,4,right,1,0.28374769228912555,20,f,2,13,2018_Sep_21_1010,MP_PerceptionTuring2,59.34068094369803,
173,resources/videos_generated\model(tmp)-dataset(walking)-numprim(13)_final(9).mov,resources/videos_natural\training(14).mov,True,False,right,0,172,172,172,2018-09-21 10:28:40.487167,2018-09-21 10:28:44.407391,0:00:03.920224,4,left,0,0.3672842648002188,20,f,2,13,2018_Sep_21_1010,MP_PerceptionTuring2,59.34068094369803,
174,resources/videos_generated\model(tmp)-dataset(walking)-numprim(12)_final(5).mov,resources/videos_natural\training(21).mov,True,False,right,0,173,173,173,2018-09-21 10:28:45.891476,2018-09-21 10:28:49.778698,0:00:03.887222,4,left,0,0.2503043317199172,20,f,2,13,2018_Sep_21_1010,MP_PerceptionTuring2,59.34068094369803,
175,resources/videos_generated\model(vcgpdm)-dataset(walking)-mode(ELBO)-parts(1)-dyn(25)-lvm(24)_final(8).mov,resources/videos_natural\training(22).mov,False,True,left,0,174,174,174,2018-09-21 10:28:51.145776,2018-09-21 10:28:55.083001,0:00:03.937225,4,left,1,0.2671077795077963,20,f,2,13,2018_Sep_21_1010,MP_PerceptionTuring2,59.34068094369803,
176,resources/videos_generated\model(tmp)-dataset(walking)-numprim(11)_final(5).mov,resources/videos_natural\training(3).mov,False,True,left,0,175,175,175,2018-09-21 10:28:56.467081,2018-09-21 10:29:00.370304,0:00:03.903223,4,right,0,0.2504365451045487,20,f,2,13,2018_Sep_21_1010,MP_PerceptionTuring2,59.34068094369803,
177,resources/videos_generated\model(vcgpdm)-dataset(walking)-mode(ELBO)-parts(1)-dyn(27)-lvm(24)_final(6).mov,resources/videos_natural\training(9).mov,True,False,right,0,176,176,176,2018-09-21 10:29:01.738382,2018-09-21 10:29:05.658606,0:00:03.920224,4,right,1,0.550728378292888,20,f,2,13,2018_Sep_21_1010,MP_PerceptionTuring2,59.34068094369803,
178,resources/videos_generated\model(vcgpdm)-dataset(walking)-mode(ELBO)-parts(2)-dyn(26)-lvm(17)_final(8).mov,resources/videos_natural\training(42).mov,True,True,left,0,177,177,177,2018-09-21 10:29:07.326702,2018-09-21 10:29:11.229925,0:00:03.903223,4,right,0,0.2837082390924479,20,f,2,13,2018_Sep_21_1010,MP_PerceptionTuring2,59.34068094369803,
179,resources/videos_generated\model(vcgpdm)-dataset(walking)-mode(ELBO)-parts(2)-dyn(26)-lvm(17)_final(4).mov,resources/videos_natural\training(35).mov,True,False,right,0,178,178,178,2018-09-21 10:29:12.631005,2018-09-21 10:29:16.551229,0:00:03.920224,4,right,1,0.250451603576721,20,f,2,13,2018_Sep_21_1010,MP_PerceptionTuring2,59.34068094369803,
180,resources/videos_generated\model(vcgpdm)-dataset(walking)-mode(ELBO)-parts(1)-dyn(24)-lvm(27)_final(9).mov,resources/videos_natural\training(34).mov,True,True,left,0,179,179,179,2018-09-21 10:29:17.919308,2018-09-21 10:29:21.822531,0:00:03.903223,4,left,1,0.28390520390689744,20,f,2,13,2018_Sep_21_1010,MP_PerceptionTuring2,59.34068094369803,
181,resources/videos_generated\model(vcgpdm)-dataset(walking)-mode(ELBO)-parts(2)-dyn(28)-lvm(17)_final(4).mov,resources/videos_natural\training(37).mov,False,False,right,0,180,180,180,2018-09-21 10:29:54.951426,2018-09-21 10:29:58.871650,0:00:03.920224,5,right,1,0.2503895626718986,20,f,2,13,2018_Sep_21_1010,MP_PerceptionTuring2,59.34068094369803,
182,resources/videos_generated\model(vcgpdm)-dataset(walking)-mode(ELBO)-parts(2)-dyn(27)-lvm(20)_final(4).mov,resources/videos_natural\training(8).mov,False,False,right,0,181,181,181,2018-09-21 10:30:00.238728,2018-09-21 10:30:04.158952,0:00:03.920224,5,right,1,0.28388382087632635,20,f,2,13,2018_Sep_21_1010,MP_PerceptionTuring2,59.34068094369803,
183,resources/videos_generated\model(vcgpdm)-dataset(walking)-mode(ELBO)-parts(2)-dyn(22)-lvm(19)_final(2).mov,resources/videos_natural\training(28).mov,True,True,left,0,182,182,182,2018-09-21 10:30:05.560033,2018-09-21 10:30:09.497258,0:00:03.937225,5,left,1,0.3003939296286262,20,f,2,13,2018_Sep_21_1010,MP_PerceptionTuring2,59.34068094369803,
184,resources/videos_generated\model(vcgpdm)-dataset(walking)-mode(ELBO)-parts(2)-dyn(26)-lvm(19)_final(0).mov,resources/videos_natural\training(35).mov,True,True,left,0,183,183,183,2018-09-21 10:30:10.915339,2018-09-21 10:30:14.818562,0:00:03.903223,5,left,1,0.3172410469856004,20,f,2,13,2018_Sep_21_1010,MP_PerceptionTuring2,59.34068094369803,
185,resources/videos_generated\model(tmp)-dataset(walking)-numprim(15)_final(9).mov,resources/videos_natural\training(39).mov,True,False,right,0,184,184,184,2018-09-21 10:30:16.252644,2018-09-21 10:30:20.156867,0:00:03.904223,5,right,1,0.3170552254402992,20,f,2,13,2018_Sep_21_1010,MP_PerceptionTuring2,59.34068094369803,
186,resources/videos_generated\model(vcgpdm)-dataset(walking)-mode(ELBO)-parts(2)-dyn(28)-lvm(19)_final(2).mov,resources/videos_natural\training(7).mov,True,False,right,0,185,185,185,2018-09-21 10:30:21.590949,2018-09-21 10:30:25.527175,0:00:03.936226,5,left,0,0.317166055794587,20,f,2,13,2018_Sep_21_1010,MP_PerceptionTuring2,59.34068094369803,
187,resources/videos_generated\model(tmp)-dataset(walking)-numprim(13)_final(3).mov,resources/videos_natural\training(2).mov,True,True,left,0,186,186,186,2018-09-21 10:30:26.962257,2018-09-21 10:30:30.898482,0:00:03.936225,5,right,0,0.4005674032268871,20,f,2,13,2018_Sep_21_1010,MP_PerceptionTuring2,59.34068094369803,
188,resources/videos_generated\model(vcgpdm)-dataset(walking)-mode(ELBO)-parts(2)-dyn(28)-lvm(21)_final(8).mov,resources/videos_natural\training(47).mov,False,False,right,0,187,187,187,2018-09-21 10:30:32.416569,2018-09-21 10:30:36.319792,0:00:03.903223,5,right,1,0.41723261424112934,20,f,2,13,2018_Sep_21_1010,MP_PerceptionTuring2,59.34068094369803,
189,resources/videos_generated\model(vcgpdm)-dataset(walking)-mode(ELBO)-parts(1)-dyn(24)-lvm(25)_final(9).mov,resources/videos_natural\training(47).mov,True,True,left,0,188,188,188,2018-09-21 10:30:37.854880,2018-09-21 10:30:41.792105,0:00:03.937225,5,left,1,0.31724315517158175,20,f,2,13,2018_Sep_21_1010,MP_PerceptionTuring2,59.34068094369803,
190,resources/videos_generated\model(vcgpdm)-dataset(walking)-mode(ELBO)-parts(2)-dyn(24)-lvm(23)_final(4).mov,resources/videos_natural\training(31).mov,True,True,left,0,189,189,189,2018-09-21 10:30:43.226187,2018-09-21 10:30:47.129410,0:00:03.903223,5,left,1,0.31736000891464755,20,f,2,13,2018_Sep_21_1010,MP_PerceptionTuring2,59.34068094369803,
191,resources/videos_generated\model(vcgpdm)-dataset(walking)-mode(ELBO)-parts(1)-dyn(25)-lvm(24)_final(4).mov,resources/videos_natural\training(21).mov,True,True,left,0,190,190,190,2018-09-21 10:30:48.564492,2018-09-21 10:30:52.467716,0:00:03.903224,5,left,1,0.250473890115245,20,f,2,13,2018_Sep_21_1010,MP_PerceptionTuring2,59.34068094369803,
192,resources/videos_generated\model(vcgpdm)-dataset(walking)-mode(ELBO)-parts(2)-dyn(22)-lvm(23)_final(2).mov,resources/videos_natural\training(3).mov,True,False,right,0,191,191,191,2018-09-21 10:30:53.835794,2018-09-21 10:30:57.772019,0:00:03.936225,5,left,0,0.3673703992603805,20,f,2,13,2018_Sep_21_1010,MP_PerceptionTuring2,59.34068094369803,
193,resources/videos_generated\model(vcgpdm)-dataset(walking)-mode(ELBO)-parts(1)-dyn(25)-lvm(22)_final(3).mov,resources/videos_natural\training(5).mov,False,False,right,0,192,192,192,2018-09-21 10:30:59.257104,2018-09-21 10:31:03.177328,0:00:03.920224,5,right,1,0.4005553564491038,20,f,2,13,2018_Sep_21_1010,MP_PerceptionTuring2,59.34068094369803,
194,resources/videos_generated\model(vcgpdm)-dataset(walking)-mode(ELBO)-parts(1)-dyn(28)-lvm(25)_final(2).mov,resources/videos_natural\training(44).mov,True,False,right,0,193,193,193,2018-09-21 10:31:04.694415,2018-09-21 10:31:08.614639,0:00:03.920224,5,left,0,0.31714738328946623,20,f,2,13,2018_Sep_21_1010,MP_PerceptionTuring2,59.34068094369803,
195,resources/videos_generated\model(vcgpdm)-dataset(walking)-mode(ELBO)-parts(2)-dyn(24)-lvm(23)_final(8).mov,resources/videos_natural\training(6).mov,False,False,right,0,194,194,194,2018-09-21 10:31:10.049721,2018-09-21 10:31:13.935943,0:00:03.886222,5,right,1,0.4004210348784909,20,f,2,13,2018_Sep_21_1010,MP_PerceptionTuring2,59.34068094369803,
196,resources/videos_generated\model(vcgpdm)-dataset(walking)-mode(ELBO)-parts(2)-dyn(27)-lvm(18)_final(8).mov,resources/videos_natural\training(31).mov,True,False,right,0,195,195,195,2018-09-21 10:31:15.454030,2018-09-21 10:31:19.374254,0:00:03.920224,5,right,1,0.33385234866977953,20,f,2,13,2018_Sep_21_1010,MP_PerceptionTuring2,59.34068094369803,
197,resources/videos_generated\model(vcgpdm)-dataset(walking)-mode(ELBO)-parts(1)-dyn(22)-lvm(22)_final(5).mov,resources/videos_natural\training(5).mov,True,False,right,0,196,196,196,2018-09-21 10:31:20.825337,2018-09-21 10:31:24.728561,0:00:03.903224,5,right,1,0.36710627366051085,20,f,2,13,2018_Sep_21_1010,MP_PerceptionTuring2,59.34068094369803,
198,resources/videos_generated\model(vcgpdm)-dataset(walking)-mode(ELBO)-parts(2)-dyn(23)-lvm(20)_final(8).mov,resources/videos_natural\training(10).mov,True,False,right,0,197,197,197,2018-09-21 10:31:26.213646,2018-09-21 10:31:30.133870,0:00:03.920224,5,right,1,0.300526745352272,20,f,2,13,2018_Sep_21_1010,MP_PerceptionTuring2,59.34068094369803,
199,resources/videos_generated\model(vcgpdm)-dataset(walking)-mode(ELBO)-parts(2)-dyn(22)-lvm(21)_final(0).mov,resources/videos_natural\training(33).mov,True,False,right,0,198,198,198,2018-09-21 10:31:31.550951,2018-09-21 10:31:35.455174,0:00:03.904223,5,right,1,0.2504136562272379,20,f,2,13,2018_Sep_21_1010,MP_PerceptionTuring2,59.34068094369803,
200,resources/videos_generated\model(vcgpdm)-dataset(walking)-mode(ELBO)-parts(1)-dyn(22)-lvm(23)_final(9).mov,resources/videos_natural\training(16).mov,True,False,right,0,199,199,199,2018-09-21 10:31:36.822252,2018-09-21 10:31:40.776479,0:00:03.954227,5,right,1,0.3171856318083428,20,f,2,13,2018_Sep_21_1010,MP_PerceptionTuring2,59.34068094369803,
201,resources/videos_generated\model(vcgpdm)-dataset(walking)-mode(ELBO)-parts(1)-dyn(22)-lvm(25)_final(5).mov,resources/videos_natural\training(45).mov,False,False,right,0,200,200,200,2018-09-21 10:31:42.210561,2018-09-21 10:31:46.096783,0:00:03.886222,5,right,1,0.2839338150035928,20,f,2,13,2018_Sep_21_1010,MP_PerceptionTuring2,59.34068094369803,
202,resources/videos_generated\model(vcgpdm)-dataset(walking)-mode(ELBO)-parts(1)-dyn(24)-lvm(23)_final(9).mov,resources/videos_natural\training(1).mov,False,False,right,0,201,201,201,2018-09-21 10:31:47.498863,2018-09-21 10:31:51.418087,0:00:03.919224,5,right,1,0.5674113583042981,20,f,2,13,2018_Sep_21_1010,MP_PerceptionTuring2,59.34068094369803,
203,resources/videos_generated\model(vcgpdm)-dataset(walking)-mode(ELBO)-parts(2)-dyn(22)-lvm(19)_final(8).mov,resources/videos_natural\training(14).mov,False,False,right,0,202,202,202,2018-09-21 10:31:53.103184,2018-09-21 10:31:57.023408,0:00:03.920224,5,right,1,0.9177078596187584,20,f,2,13,2018_Sep_21_1010,MP_PerceptionTuring2,59.34068094369803,
204,resources/videos_generated\model(vcgpdm)-dataset(walking)-mode(ELBO)-parts(2)-dyn(28)-lvm(23)_final(0).mov,resources/videos_natural\training(35).mov,True,False,right,0,203,203,203,2018-09-21 10:31:59.058524,2018-09-21 10:32:02.961748,0:00:03.903224,5,left,0,0.35048081701256706,20,f,2,13,2018_Sep_21_1010,MP_PerceptionTuring2,59.34068094369803,
205,resources/videos_generated\model(vcgpdm)-dataset(walking)-mode(ELBO)-parts(2)-dyn(25)-lvm(18)_final(6).mov,resources/videos_natural\training(28).mov,True,False,right,0,204,204,204,2018-09-21 10:32:04.429832,2018-09-21 10:32:08.350056,0:00:03.920224,5,left,0,0.46736497821029843,20,f,2,13,2018_Sep_21_1010,MP_PerceptionTuring2,59.34068094369803,
206,resources/videos_generated\model(vcgpdm)-dataset(walking)-mode(ELBO)-parts(2)-dyn(27)-lvm(20)_final(8).mov,resources/videos_natural\training(1).mov,True,False,right,0,205,205,205,2018-09-21 10:32:09.934146,2018-09-21 10:32:13.854371,0:00:03.920225,5,left,0,0.3170991961787877,20,f,2,13,2018_Sep_21_1010,MP_PerceptionTuring2,59.34068094369803,
207,resources/videos_generated\model(vcgpdm)-dataset(walking)-mode(ELBO)-parts(2)-dyn(28)-lvm(21)_final(0).mov,resources/videos_natural\training(34).mov,True,True,left,0,206,206,206,2018-09-21 10:32:15.289453,2018-09-21 10:32:19.175675,0:00:03.886222,5,left,1,0.33388577847790657,20,f,2,13,2018_Sep_21_1010,MP_PerceptionTuring2,59.34068094369803,
208,resources/videos_generated\model(dmp)-dataset(walking)-npsi(70)_final(3).mov,resources/videos_natural\training(40).mov,True,True,left,0,207,207,207,2018-09-21 10:32:20.626758,2018-09-21 10:32:24.529981,0:00:03.903223,5,left,1,0.26727282036154065,20,f,2,13,2018_Sep_21_1010,MP_PerceptionTuring2,59.34068094369803,
209,resources/videos_generated\model(vcgpdm)-dataset(walking)-mode(ELBO)-parts(1)-dyn(22)-lvm(22)_final(3).mov,resources/videos_natural\training(12).mov,False,False,right,0,208,208,208,2018-09-21 10:32:25.915060,2018-09-21 10:32:29.818284,0:00:03.903224,5,right,1,0.4006673914811927,20,f,2,13,2018_Sep_21_1010,MP_PerceptionTuring2,59.34068094369803,
210,resources/videos_generated\model(vcgpdm)-dataset(walking)-mode(ELBO)-parts(2)-dyn(24)-lvm(21)_final(6).mov,resources/videos_natural\training(4).mov,True,True,left,0,209,209,209,2018-09-21 10:32:31.337371,2018-09-21 10:32:35.256595,0:00:03.919224,5,left,1,0.28386906357377484,20,f,2,13,2018_Sep_21_1010,MP_PerceptionTuring2,59.34068094369803,
211,resources/videos_generated\model(vcgpdm)-dataset(walking)-mode(ELBO)-parts(1)-dyn(26)-lvm(25)_final(2).mov,resources/videos_natural\training(3).mov,True,False,right,0,210,210,210,2018-09-21 10:32:36.657675,2018-09-21 10:32:40.560898,0:00:03.903223,5,right,1,0.4005737277850585,20,f,2,13,2018_Sep_21_1010,MP_PerceptionTuring2,59.34068094369803,
212,resources/videos_generated\model(tmp)-dataset(walking)-numprim(15)_final(1).mov,resources/videos_natural\training(32).mov,True,True,left,0,211,211,211,2018-09-21 10:32:42.078985,2018-09-21 10:32:45.982208,0:00:03.903223,5,right,0,0.2671695192432253,20,f,2,13,2018_Sep_21_1010,MP_PerceptionTuring2,59.34068094369803,
213,resources/videos_generated\model(vcgpdm)-dataset(walking)-mode(ELBO)-parts(2)-dyn(27)-lvm(18)_final(2).mov,resources/videos_natural\training(27).mov,False,False,right,0,212,212,212,2018-09-21 10:32:47.367287,2018-09-21 10:32:51.286512,0:00:03.919225,5,right,1,0.38388020684328694,20,f,2,13,2018_Sep_21_1010,MP_PerceptionTuring2,59.34068094369803,
214,resources/videos_generated\model(vcgpdm)-dataset(walking)-mode(ELBO)-parts(1)-dyn(26)-lvm(27)_final(6).mov,resources/videos_natural\training(8).mov,True,False,right,0,213,213,213,2018-09-21 10:32:52.788597,2018-09-21 10:32:56.708822,0:00:03.920225,5,right,1,0.2838121425495501,20,f,2,13,2018_Sep_21_1010,MP_PerceptionTuring2,59.34068094369803,
215,resources/videos_generated\model(vcgpdm)-dataset(walking)-mode(ELBO)-parts(2)-dyn(27)-lvm(22)_final(8).mov,resources/videos_natural\training(37).mov,False,False,right,0,214,214,214,2018-09-21 10:32:58.109902,2018-09-21 10:33:02.013125,0:00:03.903223,5,right,1,0.3338231352340699,20,f,2,13,2018_Sep_21_1010,MP_PerceptionTuring2,59.34068094369803,
216,resources/videos_generated\model(vcgpdm)-dataset(walking)-mode(ELBO)-parts(2)-dyn(26)-lvm(23)_final(2).mov,resources/videos_natural\training(15).mov,True,False,right,0,215,215,215,2018-09-21 10:33:03.464208,2018-09-21 10:33:07.384432,0:00:03.920224,5,right,1,0.36751405708378115,20,f,2,13,2018_Sep_21_1010,MP_PerceptionTuring2,59.34068094369803,
217,resources/videos_generated\model(vcgpdm)-dataset(walking)-mode(ELBO)-parts(2)-dyn(24)-lvm(17)_final(4).mov,resources/videos_natural\training(37).mov,True,False,right,0,216,216,216,2018-09-21 10:33:08.868517,2018-09-21 10:33:12.788741,0:00:03.920224,5,right,1,0.2671198262855796,20,f,2,13,2018_Sep_21_1010,MP_PerceptionTuring2,59.34068094369803,
218,resources/videos_generated\model(vcgpdm)-dataset(walking)-mode(ELBO)-parts(1)-dyn(23)-lvm(22)_final(2).mov,resources/videos_natural\training(38).mov,False,True,left,0,217,217,217,2018-09-21 10:33:14.173821,2018-09-21 10:33:18.127047,0:00:03.953226,5,right,0,0.3839232740731404,20,f,2,13,2018_Sep_21_1010,MP_PerceptionTuring2,59.34068094369803,
219,resources/videos_generated\model(vcgpdm)-dataset(walking)-mode(ELBO)-parts(1)-dyn(27)-lvm(28)_final(2).mov,resources/videos_natural\training(13).mov,False,False,right,0,218,218,218,2018-09-21 10:33:19.628133,2018-09-21 10:33:23.565358,0:00:03.937225,5,right,1,0.3017895488180784,20,f,2,13,2018_Sep_21_1010,MP_PerceptionTuring2,59.34068094369803,
220,resources/videos_generated\model(vcgpdm)-dataset(walking)-mode(ELBO)-parts(1)-dyn(28)-lvm(23)_final(8).mov,resources/videos_natural\training(29).mov,False,True,left,0,219,219,219,2018-09-21 10:33:24.982439,2018-09-21 10:33:28.885662,0:00:03.903223,5,left,1,0.35073831688441715,20,f,2,13,2018_Sep_21_1010,MP_PerceptionTuring2,59.34068094369803,
221,resources/videos_generated\model(vcgpdm)-dataset(walking)-mode(ELBO)-parts(1)-dyn(28)-lvm(24)_final(0).mov,resources/videos_natural\training(0).mov,True,True,left,0,220,220,220,2018-09-21 10:33:30.353746,2018-09-21 10:33:34.273970,0:00:03.920224,5,left,1,0.2505211737175159,20,f,2,13,2018_Sep_21_1010,MP_PerceptionTuring2,59.34068094369803,
222,resources/videos_generated\model(vcgpdm)-dataset(walking)-mode(ELBO)-parts(1)-dyn(25)-lvm(26)_final(5).mov,resources/videos_natural\training(39).mov,True,True,left,0,221,221,221,2018-09-21 10:33:35.642049,2018-09-21 10:33:39.562273,0:00:03.920224,5,left,1,0.38397296703101347,20,f,2,13,2018_Sep_21_1010,MP_PerceptionTuring2,59.34068094369803,
223,resources/videos_generated\model(vcgpdm)-dataset(walking)-mode(ELBO)-parts(2)-dyn(22)-lvm(23)_final(4).mov,resources/videos_natural\training(4).mov,False,False,right,0,222,222,222,2018-09-21 10:33:41.063359,2018-09-21 10:33:44.950581,0:00:03.887222,5,right,1,0.3340764187339573,20,f,2,13,2018_Sep_21_1010,MP_PerceptionTuring2,59.34068094369803,
224,resources/videos_generated\model(vcgpdm)-dataset(walking)-mode(ELBO)-parts(1)-dyn(23)-lvm(24)_final(6).mov,resources/videos_natural\training(10).mov,False,False,right,0,223,223,223,2018-09-21 10:33:46.401664,2018-09-21 10:33:50.320888,0:00:03.919224,5,right,1,0.2671436186712981,20,f,2,13,2018_Sep_21_1010,MP_PerceptionTuring2,59.34068094369803,
225,resources/videos_generated\model(vcgpdm)-dataset(walking)-mode(ELBO)-parts(1)-dyn(26)-lvm(25)_final(0).mov,resources/videos_natural\training(33).mov,False,False,right,0,224,224,224,2018-09-21 10:33:51.705967,2018-09-21 10:33:55.592190,0:00:03.886223,5,right,1,0.384043440680216,20,f,2,13,2018_Sep_21_1010,MP_PerceptionTuring2,59.34068094369803,
226,resources/videos_generated\model(vcgpdm)-dataset(walking)-mode(ELBO)-parts(2)-dyn(24)-lvm(19)_final(6).mov,resources/videos_natural\training(40).mov,True,True,left,0,225,225,225,2018-09-21 10:34:29.038103,2018-09-21 10:34:32.958327,0:00:03.920224,6,right,0,0.2837142624812259,20,f,2,13,2018_Sep_21_1010,MP_PerceptionTuring2,59.34068094369803,
227,resources/videos_generated\model(vcgpdm)-dataset(walking)-mode(ELBO)-parts(1)-dyn(22)-lvm(22)_final(7).mov,resources/videos_natural\training(36).mov,False,False,right,0,226,226,226,2018-09-21 10:34:34.359407,2018-09-21 10:34:38.262630,0:00:03.903223,6,right,1,0.33383036330087634,20,f,2,13,2018_Sep_21_1010,MP_PerceptionTuring2,59.34068094369803,
228,resources/videos_generated\model(vcgpdm)-dataset(walking)-mode(ELBO)-parts(1)-dyn(23)-lvm(24)_final(2).mov,resources/videos_natural\training(15).mov,False,True,left,0,227,227,227,2018-09-21 10:34:39.713713,2018-09-21 10:34:43.633937,0:00:03.920224,6,left,1,0.26712012745497304,20,f,2,13,2018_Sep_21_1010,MP_PerceptionTuring2,59.34068094369803,
229,resources/videos_generated\model(vcgpdm)-dataset(walking)-mode(ELBO)-parts(1)-dyn(23)-lvm(28)_final(9).mov,resources/videos_natural\training(45).mov,False,True,left,0,228,228,228,2018-09-21 10:34:45.019017,2018-09-21 10:34:48.938241,0:00:03.919224,6,right,0,0.3003885085786351,20,f,2,13,2018_Sep_21_1010,MP_PerceptionTuring2,59.34068094369803,
230,resources/videos_generated\model(vcgpdm)-dataset(walking)-mode(ELBO)-parts(2)-dyn(28)-lvm(23)_final(4)_fail.mov,resources/videos_natural\training(31).mov,False,False,right,0,229,229,229,2018-09-21 10:34:50.356322,2018-09-21 10:34:54.293547,0:00:03.937225,6,right,1,0.5339993193570081,20,f,2,13,2018_Sep_21_1010,MP_PerceptionTuring2,59.34068094369803,
231,resources/videos_generated\model(vcgpdm)-dataset(walking)-mode(ELBO)-parts(1)-dyn(25)-lvm(23)_final(2).mov,resources/videos_natural\training(44).mov,False,False,right,0,230,230,230,2018-09-21 10:34:55.944642,2018-09-21 10:34:59.881867,0:00:03.937225,6,right,1,0.3004481401283101,20,f,2,13,2018_Sep_21_1010,MP_PerceptionTuring2,59.34068094369803,
232,resources/videos_generated\model(vcgpdm)-dataset(walking)-mode(ELBO)-parts(1)-dyn(27)-lvm(28)_final(8).mov,resources/videos_natural\training(37).mov,False,False,right,0,231,231,231,2018-09-21 10:35:01.298948,2018-09-21 10:35:05.203171,0:00:03.904223,6,right,1,0.30050867518571067,20,f,2,13,2018_Sep_21_1010,MP_PerceptionTuring2,59.34068094369803,
233,resources/videos_generated\model(vcgpdm)-dataset(walking)-mode(ELBO)-parts(1)-dyn(22)-lvm(27)_final(1)_fail.mov,resources/videos_natural\training(40).mov,True,True,left,0,232,232,232,2018-09-21 10:35:06.620252,2018-09-21 10:35:10.524476,0:00:03.904224,6,left,1,0.28384225949366737,20,f,2,13,2018_Sep_21_1010,MP_PerceptionTuring2,59.34068094369803,
234,resources/videos_generated\model(vcgpdm)-dataset(walking)-mode(ELBO)-parts(1)-dyn(27)-lvm(22)_final(6).mov,resources/videos_natural\training(19).mov,False,False,right,0,233,233,233,2018-09-21 10:35:11.925556,2018-09-21 10:35:15.878782,0:00:03.953226,6,right,1,0.3338842726307121,20,f,2,13,2018_Sep_21_1010,MP_PerceptionTuring2,59.34068094369803,
235,resources/videos_generated\model(vcgpdm)-dataset(walking)-mode(ELBO)-parts(1)-dyn(27)-lvm(22)_final(4).mov,resources/videos_natural\training(31).mov,True,False,right,0,234,234,234,2018-09-21 10:35:17.329865,2018-09-21 10:35:21.250089,0:00:03.920224,6,right,1,0.3173804884365836,20,f,2,13,2018_Sep_21_1010,MP_PerceptionTuring2,59.34068094369803,
236,resources/videos_generated\model(vcgpdm)-dataset(walking)-mode(ELBO)-parts(2)-dyn(26)-lvm(17)_final(6).mov,resources/videos_natural\training(18).mov,True,False,right,0,235,235,235,2018-09-21 10:35:22.684171,2018-09-21 10:35:26.571393,0:00:03.887222,6,right,1,0.30060926577903047,20,f,2,13,2018_Sep_21_1010,MP_PerceptionTuring2,59.34068094369803,
237,resources/videos_generated\model(tmp)-dataset(walking)-numprim(14)_final(7).mov,resources/videos_natural\training(46).mov,False,False,right,0,236,236,236,2018-09-21 10:35:27.988474,2018-09-21 10:35:31.892698,0:00:03.904224,6,right,1,0.5173443481037339,20,f,2,13,2018_Sep_21_1010,MP_PerceptionTuring2,59.34068094369803,
238,resources/videos_generated\model(vcgpdm)-dataset(walking)-mode(ELBO)-parts(2)-dyn(26)-lvm(19)_final(2).mov,resources/videos_natural\training(39).mov,True,True,left,0,237,237,237,2018-09-21 10:35:33.526791,2018-09-21 10:35:37.431014,0:00:03.904223,6,left,1,0.3003990495092239,20,f,2,13,2018_Sep_21_1010,MP_PerceptionTuring2,59.34068094369803,
239,resources/videos_generated\model(vcgpdm)-dataset(walking)-mode(ELBO)-parts(1)-dyn(28)-lvm(27)_final(6).mov,resources/videos_natural\training(29).mov,False,True,left,0,238,238,238,2018-09-21 10:35:38.848096,2018-09-21 10:35:42.785321,0:00:03.937225,6,left,1,0.4673402823161723,20,f,2,13,2018_Sep_21_1010,MP_PerceptionTuring2,59.34068094369803,
240,resources/videos_generated\model(vcgpdm)-dataset(walking)-mode(ELBO)-parts(2)-dyn(27)-lvm(20)_final(6).mov,resources/videos_natural\training(19).mov,False,False,right,0,239,239,239,2018-09-21 10:35:44.369411,2018-09-21 10:35:48.289636,0:00:03.920225,6,right,1,0.33390113811924493,20,f,2,13,2018_Sep_21_1010,MP_PerceptionTuring2,59.34068094369803,
241,resources/videos_generated\model(vcgpdm)-dataset(walking)-mode(ELBO)-parts(1)-dyn(23)-lvm(26)_final(8)_hip-corrected.mov,resources/videos_natural\training(38).mov,True,True,left,0,240,240,240,2018-09-21 10:35:49.740719,2018-09-21 10:35:53.727947,0:00:03.987228,6,left,1,0.6509388957322244,20,f,2,13,2018_Sep_21_1010,MP_PerceptionTuring2,59.34068094369803,
242,resources/videos_generated\model(tmp)-dataset(walking)-numprim(11)_final(7).mov,resources/videos_natural\training(40).mov,False,True,left,0,241,241,241,2018-09-21 10:35:55.496048,2018-09-21 10:35:59.399271,0:00:03.903223,6,left,1,0.30045958456685185,20,f,2,13,2018_Sep_21_1010,MP_PerceptionTuring2,59.34068094369803,
243,resources/videos_generated\model(vcgpdm)-dataset(walking)-mode(ELBO)-parts(1)-dyn(27)-lvm(26)_final(0).mov,resources/videos_natural\training(39).mov,True,True,left,0,242,242,242,2018-09-21 10:36:00.817352,2018-09-21 10:36:04.720575,0:00:03.903223,6,left,1,0.45065007423818315,20,f,2,13,2018_Sep_21_1010,MP_PerceptionTuring2,59.34068094369803,
244,resources/videos_generated\model(vcgpdm)-dataset(walking)-mode(ELBO)-parts(2)-dyn(23)-lvm(18)_final(8).mov,resources/videos_natural\training(8).mov,False,True,left,0,243,243,243,2018-09-21 10:36:06.288665,2018-09-21 10:36:10.208889,0:00:03.920224,6,left,1,0.3005725231073484,20,f,2,13,2018_Sep_21_1010,MP_PerceptionTuring2,59.34068094369803,
245,resources/videos_generated\model(vcgpdm)-dataset(walking)-mode(ELBO)-parts(2)-dyn(25)-lvm(20)_final(8).mov,resources/videos_natural\training(44).mov,True,False,right,0,244,244,244,2018-09-21 10:36:11.626970,2018-09-21 10:36:15.530194,0:00:03.903224,6,right,1,0.46755351028036785,20,f,2,13,2018_Sep_21_1010,MP_PerceptionTuring2,59.34068094369803,
246,resources/videos_generated\model(dmp)-dataset(walking)-npsi(70)_final(7).mov,resources/videos_natural\training(43).mov,True,True,left,0,245,245,245,2018-09-21 10:36:17.114284,2018-09-21 10:36:21.018508,0:00:03.904224,6,left,1,0.31728351187643966,20,f,2,13,2018_Sep_21_1010,MP_PerceptionTuring2,59.34068094369803,
247,resources/videos_generated\model(vcgpdm)-dataset(walking)-mode(ELBO)-parts(2)-dyn(26)-lvm(21)_final(2).mov,resources/videos_natural\training(42).mov,False,True,left,0,246,246,246,2018-09-21 10:36:22.453590,2018-09-21 10:36:26.372814,0:00:03.919224,6,left,1,0.26795557148398075,20,f,2,13,2018_Sep_21_1010,MP_PerceptionTuring2,59.34068094369803,
248,resources/videos_generated\model(vcgpdm)-dataset(walking)-mode(ELBO)-parts(1)-dyn(23)-lvm(28)_final(7).mov,resources/videos_natural\training(20).mov,True,False,right,0,247,247,247,2018-09-21 10:36:27.756893,2018-09-21 10:36:31.677117,0:00:03.920224,6,right,1,0.28379316887458117,20,f,2,13,2018_Sep_21_1010,MP_PerceptionTuring2,59.34068094369803,
249,resources/videos_generated\model(vcgpdm)-dataset(walking)-mode(ELBO)-parts(2)-dyn(24)-lvm(19)_final(0).mov,resources/videos_natural\training(27).mov,True,True,left,0,248,248,248,2018-09-21 10:36:33.080197,2018-09-21 10:36:36.982421,0:00:03.902224,6,right,0,0.2671556654490814,20,f,2,13,2018_Sep_21_1010,MP_PerceptionTuring2,59.34068094369803,
250,resources/videos_generated\model(dmp)-dataset(walking)-npsi(80)_final(1).mov,resources/videos_natural\training(45).mov,False,True,left,0,249,249,249,2018-09-21 10:36:38.366500,2018-09-21 10:36:42.286724,0:00:03.920224,6,left,1,0.300539996807629,20,f,2,13,2018_Sep_21_1010,MP_PerceptionTuring2,59.34068094369803,
251,resources/videos_generated\model(vcgpdm)-dataset(walking)-mode(ELBO)-parts(2)-dyn(23)-lvm(22)_final(6).mov,resources/videos_natural\training(43).mov,False,True,left,0,250,250,250,2018-09-21 10:36:43.704805,2018-09-21 10:36:47.591027,0:00:03.886222,6,left,1,0.2837564262028991,20,f,2,13,2018_Sep_21_1010,MP_PerceptionTuring2,59.34068094369803,
252,resources/videos_generated\model(tmp)-dataset(walking)-numprim(15)_final(5).mov,resources/videos_natural\training(0).mov,True,True,left,0,251,251,251,2018-09-21 10:36:48.992108,2018-09-21 10:36:52.912332,0:00:03.920224,6,left,1,0.45076391628708734,20,f,2,13,2018_Sep_21_1010,MP_PerceptionTuring2,59.34068094369803,
253,resources/videos_generated\model(vcgpdm)-dataset(walking)-mode(ELBO)-parts(1)-dyn(23)-lvm(26)_final(4)_hip-corrected.mov,resources/videos_natural\training(19).mov,True,True,left,0,252,252,252,2018-09-21 10:36:54.480421,2018-09-21 10:36:58.400646,0:00:03.920225,6,left,1,0.31716665813337386,20,f,2,13,2018_Sep_21_1010,MP_PerceptionTuring2,59.34068094369803,
254,resources/videos_generated\model(vcgpdm)-dataset(walking)-mode(ELBO)-parts(2)-dyn(27)-lvm(22)_final(4).mov,resources/videos_natural\training(23).mov,False,False,right,0,253,253,253,2018-09-21 10:36:59.834728,2018-09-21 10:37:03.721950,0:00:03.887222,6,right,1,0.3172353247664432,20,f,2,13,2018_Sep_21_1010,MP_PerceptionTuring2,59.34068094369803,
255,resources/videos_generated\model(tmp)-dataset(walking)-numprim(12)_final(3).mov,resources/videos_natural\training(6).mov,False,False,right,0,254,254,254,2018-09-21 10:37:05.156032,2018-09-21 10:37:09.043254,0:00:03.887222,6,left,0,0.2671321742323016,20,f,2,13,2018_Sep_21_1010,MP_PerceptionTuring2,59.34068094369803,
256,resources/videos_generated\model(dmp)-dataset(walking)-npsi(90)_final(5).mov,resources/videos_natural\training(31).mov,False,False,right,0,255,255,255,2018-09-21 10:37:10.427334,2018-09-21 10:37:14.330557,0:00:03.903223,6,left,0,0.36721168296480755,20,f,2,13,2018_Sep_21_1010,MP_PerceptionTuring2,59.34068094369803,
257,resources/videos_generated\model(vcgpdm)-dataset(walking)-mode(ELBO)-parts(2)-dyn(24)-lvm(23)_final(2).mov,resources/videos_natural\training(26).mov,True,False,right,0,256,256,256,2018-09-21 10:37:15.815642,2018-09-21 10:37:19.735866,0:00:03.920224,6,right,1,0.3336873078164899,20,f,2,13,2018_Sep_21_1010,MP_PerceptionTuring2,59.34068094369803,
258,resources/videos_generated\model(vcgpdm)-dataset(walking)-mode(ELBO)-parts(1)-dyn(26)-lvm(27)_final(8).mov,resources/videos_natural\training(18).mov,True,True,left,0,257,257,257,2018-09-21 10:37:21.186949,2018-09-21 10:37:25.107173,0:00:03.920224,6,left,1,0.3838512945767434,20,f,2,13,2018_Sep_21_1010,MP_PerceptionTuring2,59.34068094369803,
259,resources/videos_generated\model(vcgpdm)-dataset(walking)-mode(ELBO)-parts(2)-dyn(22)-lvm(19)_final(4).mov,resources/videos_natural\training(24).mov,True,True,left,0,258,258,258,2018-09-21 10:37:26.608259,2018-09-21 10:37:30.511482,0:00:03.903223,6,left,1,0.3005252395050775,20,f,2,13,2018_Sep_21_1010,MP_PerceptionTuring2,59.34068094369803,
260,resources/videos_generated\model(vcgpdm)-dataset(walking)-mode(ELBO)-parts(1)-dyn(25)-lvm(22)_final(5).mov,resources/videos_natural\training(13).mov,True,True,left,0,259,259,259,2018-09-21 10:37:31.929563,2018-09-21 10:37:35.815786,0:00:03.886223,6,left,1,0.35056153042251026,20,f,2,13,2018_Sep_21_1010,MP_PerceptionTuring2,59.34068094369803,
261,resources/videos_generated\model(vcgpdm)-dataset(walking)-mode(ELBO)-parts(2)-dyn(24)-lvm(21)_final(8).mov,resources/videos_natural\training(36).mov,True,False,right,0,260,260,260,2018-09-21 10:37:37.283870,2018-09-21 10:37:41.204094,0:00:03.920224,6,left,0,0.31723562593515453,20,f,2,13,2018_Sep_21_1010,MP_PerceptionTuring2,59.34068094369803,
262,resources/videos_generated\model(vcgpdm)-dataset(walking)-mode(ELBO)-parts(1)-dyn(24)-lvm(25)_final(7).mov,resources/videos_natural\training(21).mov,True,False,right,0,261,261,261,2018-09-21 10:37:42.639176,2018-09-21 10:37:46.558400,0:00:03.919224,6,left,0,0.35058893684163195,20,f,2,13,2018_Sep_21_1010,MP_PerceptionTuring2,59.34068094369803,
263,resources/videos_generated\model(vcgpdm)-dataset(walking)-mode(ELBO)-parts(1)-dyn(26)-lvm(27)_final(2).mov,resources/videos_natural\training(33).mov,True,False,right,0,262,262,262,2018-09-21 10:37:48.026484,2018-09-21 10:37:51.929707,0:00:03.903223,6,left,0,0.30050355530511297,20,f,2,13,2018_Sep_21_1010,MP_PerceptionTuring2,59.34068094369803,
264,resources/videos_generated\model(vcgpdm)-dataset(walking)-mode(ELBO)-parts(2)-dyn(24)-lvm(21)_final(2).mov,resources/videos_natural\training(20).mov,True,True,left,0,263,263,263,2018-09-21 10:37:53.347788,2018-09-21 10:37:57.268013,0:00:03.920225,6,left,1,0.41726393586304766,20,f,2,13,2018_Sep_21_1010,MP_PerceptionTuring2,59.34068094369803,
265,resources/videos_generated\model(vcgpdm)-dataset(walking)-mode(ELBO)-parts(1)-dyn(23)-lvm(26)_final(0).mov,resources/videos_natural\training(7).mov,True,False,right,0,264,264,264,2018-09-21 10:37:58.803100,2018-09-21 10:38:02.739326,0:00:03.936226,6,left,0,0.3338354831812467,20,f,2,13,2018_Sep_21_1010,MP_PerceptionTuring2,59.34068094369803,
266,resources/videos_generated\model(dmp)-dataset(walking)-npsi(70)_final(5).mov,resources/videos_natural\training(34).mov,True,True,left,0,265,265,265,2018-09-21 10:38:04.190409,2018-09-21 10:38:08.110633,0:00:03.920224,6,left,1,0.30063335933436974,20,f,2,13,2018_Sep_21_1010,MP_PerceptionTuring2,59.34068094369803,
267,resources/videos_generated\model(vcgpdm)-dataset(walking)-mode(ELBO)-parts(2)-dyn(23)-lvm(20)_final(0).mov,resources/videos_natural\training(30).mov,True,True,left,0,266,266,266,2018-09-21 10:38:09.528714,2018-09-21 10:38:13.448938,0:00:03.920224,6,left,1,0.3170880529091846,20,f,2,13,2018_Sep_21_1010,MP_PerceptionTuring2,59.34068094369803,
268,resources/videos_generated\model(vcgpdm)-dataset(walking)-mode(ELBO)-parts(2)-dyn(28)-lvm(21)_final(2).mov,resources/videos_natural\training(0).mov,True,False,right,0,267,267,267,2018-09-21 10:38:14.883020,2018-09-21 10:38:18.770243,0:00:03.887223,6,right,1,0.4173359153592173,20,f,2,13,2018_Sep_21_1010,MP_PerceptionTuring2,59.34068094369803,
269,resources/videos_generated\model(vcgpdm)-dataset(walking)-mode(ELBO)-parts(1)-dyn(25)-lvm(26)_final(1).mov,resources/videos_natural\training(32).mov,True,False,right,0,268,268,268,2018-09-21 10:38:20.304330,2018-09-21 10:38:24.224555,0:00:03.920225,6,left,0,0.5173338071735998,20,f,2,13,2018_Sep_21_1010,MP_PerceptionTuring2,59.34068094369803,
270,resources/videos_generated\model(vcgpdm)-dataset(walking)-mode(ELBO)-parts(1)-dyn(27)-lvm(26)_final(2).mov,resources/videos_natural\training(14).mov,False,True,left,0,269,269,269,2018-09-21 10:38:25.859648,2018-09-21 10:38:29.779872,0:00:03.920224,6,left,1,0.4839277916148603,20,f,2,13,2018_Sep_21_1010,MP_PerceptionTuring2,59.34068094369803,
271,resources/videos_generated\model(vcgpdm)-dataset(walking)-mode(ELBO)-parts(2)-dyn(26)-lvm(19)_final(4).mov,resources/videos_natural\training(8).mov,True,False,right,0,270,270,270,2018-09-21 10:39:03.524802,2018-09-21 10:39:07.429026,0:00:03.904224,7,right,1,0.2505229807343312,20,f,2,13,2018_Sep_21_1010,MP_PerceptionTuring2,59.34068094369803,
272,resources/videos_generated\model(vcgpdm)-dataset(walking)-mode(ELBO)-parts(2)-dyn(22)-lvm(19)_final(0).mov,resources/videos_natural\training(1).mov,True,False,right,0,271,271,271,2018-09-21 10:39:08.796104,2018-09-21 10:39:12.716328,0:00:03.920224,7,right,1,0.3005318652326423,20,f,2,13,2018_Sep_21_1010,MP_PerceptionTuring2,59.34068094369803,
273,resources/videos_generated\model(vcgpdm)-dataset(walking)-mode(ELBO)-parts(2)-dyn(27)-lvm(18)_final(0).mov,resources/videos_natural\training(11).mov,True,False,right,0,272,272,272,2018-09-21 10:39:14.134409,2018-09-21 10:39:18.054633,0:00:03.920224,7,right,1,0.5006249265898077,20,f,2,13,2018_Sep_21_1010,MP_PerceptionTuring2,59.34068094369803,
274,resources/videos_generated\model(dmp)-dataset(walking)-npsi(80)_final(7).mov,resources/videos_natural\training(32).mov,False,True,left,0,273,273,273,2018-09-21 10:39:19.673726,2018-09-21 10:39:23.575949,0:00:03.902223,7,right,0,0.267193010459323,20,f,2,13,2018_Sep_21_1010,MP_PerceptionTuring2,59.34068094369803,
275,resources/videos_generated\model(vcgpdm)-dataset(walking)-mode(ELBO)-parts(2)-dyn(25)-lvm(18)_final(4).mov,resources/videos_natural\training(6).mov,False,True,left,0,274,274,274,2018-09-21 10:39:24.960028,2018-09-21 10:39:28.880253,0:00:03.920225,7,left,1,0.30053186523309705,20,f,2,13,2018_Sep_21_1010,MP_PerceptionTuring2,59.34068094369803,
276,resources/videos_generated\model(dmp)-dataset(walking)-npsi(90)_final(3).mov,resources/videos_natural\training(22).mov,False,False,right,0,275,275,275,2018-09-21 10:39:30.298334,2018-09-21 10:39:34.218558,0:00:03.920224,7,right,1,0.3171386493754653,20,f,2,13,2018_Sep_21_1010,MP_PerceptionTuring2,59.34068094369803,
277,resources/videos_generated\model(dmp)-dataset(walking)-npsi(100)_final(1).mov,resources/videos_natural\training(11).mov,False,False,right,0,276,276,276,2018-09-21 10:39:35.652640,2018-09-21 10:39:39.556863,0:00:03.904223,7,right,1,0.23374001246838816,20,f,2,13,2018_Sep_21_1010,MP_PerceptionTuring2,59.34068094369803,
278,resources/videos_generated\model(vcgpdm)-dataset(walking)-mode(ELBO)-parts(1)-dyn(26)-lvm(25)_final(6).mov,resources/videos_natural\training(44).mov,False,True,left,0,277,277,277,2018-09-21 10:39:40.907941,2018-09-21 10:39:44.844166,0:00:03.936225,7,left,1,0.35048684040111766,20,f,2,13,2018_Sep_21_1010,MP_PerceptionTuring2,59.34068094369803,
279,resources/videos_generated\model(vcgpdm)-dataset(walking)-mode(ELBO)-parts(1)-dyn(24)-lvm(23)_final(1).mov,resources/videos_natural\training(40).mov,True,False,right,0,278,278,278,2018-09-21 10:39:46.312250,2018-09-21 10:39:50.182471,0:00:03.870221,7,right,1,0.28396664247247827,20,f,2,13,2018_Sep_21_1010,MP_PerceptionTuring2,59.34068094369803,
280,resources/videos_generated\model(vcgpdm)-dataset(walking)-mode(ELBO)-parts(1)-dyn(23)-lvm(24)_final(0).mov,resources/videos_natural\training(37).mov,False,True,left,0,279,279,279,2018-09-21 10:39:51.583551,2018-09-21 10:39:55.503775,0:00:03.920224,7,left,1,0.3005737277849221,20,f,2,13,2018_Sep_21_1010,MP_PerceptionTuring2,59.34068094369803,
281,resources/videos_generated\model(vcgpdm)-dataset(walking)-mode(ELBO)-parts(2)-dyn(26)-lvm(19)_final(8).mov,resources/videos_natural\training(9).mov,True,True,left,0,280,280,280,2018-09-21 10:39:56.920856,2018-09-21 10:40:00.841081,0:00:03.920225,7,left,1,0.2504805158432646,20,f,2,13,2018_Sep_21_1010,MP_PerceptionTuring2,59.34068094369803,
282,resources/videos_generated\model(dmp)-dataset(walking)-npsi(60)_final(3).mov,resources/videos_natural\training(38).mov,True,False,right,0,281,281,281,2018-09-21 10:40:02.209159,2018-09-21 10:40:06.129383,0:00:03.920224,7,right,1,0.25040341646626985,20,f,2,13,2018_Sep_21_1010,MP_PerceptionTuring2,59.34068094369803,
283,resources/videos_generated\model(vcgpdm)-dataset(walking)-mode(ELBO)-parts(1)-dyn(24)-lvm(27)_final(1).mov,resources/videos_natural\training(8).mov,False,False,right,0,282,282,282,2018-09-21 10:40:07.497461,2018-09-21 10:40:11.417686,0:00:03.920225,7,right,1,0.7342980794423966,20,f,2,13,2018_Sep_21_1010,MP_PerceptionTuring2,59.34068094369803,
284,resources/videos_generated\model(vcgpdm)-dataset(walking)-mode(ELBO)-parts(2)-dyn(25)-lvm(20)_final(0).mov,resources/videos_natural\training(16).mov,True,False,right,0,283,283,283,2018-09-21 10:40:13.268791,2018-09-21 10:40:17.222018,0:00:03.953227,7,left,0,0.28382087646332366,20,f,2,13,2018_Sep_21_1010,MP_PerceptionTuring2,59.34068094369803,
285,resources/videos_generated\model(vcgpdm)-dataset(walking)-mode(ELBO)-parts(1)-dyn(25)-lvm(25)_final(7).mov,resources/videos_natural\training(5).mov,True,False,right,0,284,284,284,2018-09-21 10:40:18.623098,2018-09-21 10:40:22.543322,0:00:03.920224,7,left,0,0.333879152749887,20,f,2,13,2018_Sep_21_1010,MP_PerceptionTuring2,59.34068094369803,
286,resources/videos_generated\model(vcgpdm)-dataset(walking)-mode(ELBO)-parts(1)-dyn(22)-lvm(27)_final(7)_hip-corrected.mov,resources/videos_natural\training(7).mov,True,False,right,0,285,285,285,2018-09-21 10:40:23.994405,2018-09-21 10:40:27.948631,0:00:03.954226,7,right,1,0.28388442321556795,20,f,2,13,2018_Sep_21_1010,MP_PerceptionTuring2,59.34068094369803,
287,resources/videos_generated\model(vcgpdm)-dataset(walking)-mode(ELBO)-parts(2)-dyn(22)-lvm(17)_final(6).mov,resources/videos_natural\training(13).mov,False,True,left,0,286,286,286,2018-09-21 10:40:29.349711,2018-09-21 10:40:33.252935,0:00:03.903224,7,right,0,0.2671731332766285,20,f,2,13,2018_Sep_21_1010,MP_PerceptionTuring2,59.34068094369803,
288,resources/videos_generated\model(vcgpdm)-dataset(walking)-mode(ELBO)-parts(1)-dyn(23)-lvm(22)_final(8)_fail.mov,resources/videos_natural\training(1).mov,False,False,right,0,287,287,287,2018-09-21 10:40:34.637014,2018-09-21 10:40:38.557238,0:00:03.920224,7,right,1,0.35046063865956967,20,f,2,13,2018_Sep_21_1010,MP_PerceptionTuring2,59.34068094369803,
289,resources/videos_generated\model(vcgpdm)-dataset(walking)-mode(ELBO)-parts(2)-dyn(27)-lvm(18)_final(6).mov,resources/videos_natural\training(28).mov,False,True,left,0,288,288,288,2018-09-21 10:40:40.025322,2018-09-21 10:40:43.945546,0:00:03.920224,7,left,1,0.25054918247542446,20,f,2,13,2018_Sep_21_1010,MP_PerceptionTuring2,59.34068094369803,
290,resources/videos_generated\model(vcgpdm)-dataset(walking)-mode(ELBO)-parts(1)-dyn(23)-lvm(22)_final(4)_fail.mov,resources/videos_natural\training(0).mov,False,False,right,0,289,289,289,2018-09-21 10:40:45.313624,2018-09-21 10:40:49.199847,0:00:03.886223,7,right,1,0.2837383560363378,20,f,2,13,2018_Sep_21_1010,MP_PerceptionTuring2,59.34068094369803,
291,resources/videos_generated\model(vcgpdm)-dataset(walking)-mode(ELBO)-parts(1)-dyn(27)-lvm(24)_final(8).mov,resources/videos_natural\training(7).mov,False,False,right,0,290,290,290,2018-09-21 10:40:50.600927,2018-09-21 10:40:54.538152,0:00:03.937225,7,right,1,0.35047720297916385,20,f,2,13,2018_Sep_21_1010,MP_PerceptionTuring2,59.34068094369803,
