n_trial,mov_file_generated,mov_file_natural,mirrored,switch_stim_pos,correct_answer,trials.thisRepN,trials.thisTrialN,trials.thisN,trials.thisIndex,stimulus_onset,stimulus_off,stimulus_length,block,response.keys,response.corr,response.rt,age,gender,condition,participant,date,expName,frameRate,
1,resources/videos_generated\model(vcgpdm)-dataset(walking)-mode(ELBO)-parts(1)-dyn(23)-lvm(26)_final(0).mov,resources/videos_natural\training(5).mov,True,False,right,0,0,0,0,2018-10-08 12:55:14.883878,2018-10-08 12:55:20.355191,0:00:05.471313,1,left,0,13.895112019973567,28,m,2,14,2018_Oct_08_1254,MP_PerceptionTuring2,59.93472935970312,
2,resources/videos_generated\model(vcgpdm)-dataset(walking)-mode(ELBO)-parts(2)-dyn(28)-lvm(19)_final(2).mov,resources/videos_natural\training(22).mov,True,True,left,0,1,1,1,2018-10-08 12:55:35.435053,2018-10-08 12:55:39.371278,0:00:03.936225,1,right,0,0.8010685491764207,28,m,2,14,2018_Oct_08_1254,MP_PerceptionTuring2,59.93472935970312,
3,resources/videos_generated\model(dmp)-dataset(walking)-npsi(90)_final(7).mov,resources/videos_natural\training(30).mov,False,True,left,0,2,2,2,2018-10-08 12:55:41.356392,2018-10-08 12:55:45.259615,0:00:03.903223,1,left,1,0.8009185667948486,28,m,2,14,2018_Oct_08_1254,MP_PerceptionTuring2,59.93472935970312,
4,resources/videos_generated\model(vcgpdm)-dataset(walking)-mode(ELBO)-parts(1)-dyn(26)-lvm(23)_final(8).mov,resources/videos_natural\training(18).mov,True,True,left,0,3,3,3,2018-10-08 12:55:47.178725,2018-10-08 12:55:51.081948,0:00:03.903223,1,left,1,0.48400579450003534,28,m,2,14,2018_Oct_08_1254,MP_PerceptionTuring2,59.93472935970312,
5,resources/videos_generated\model(tmp)-dataset(walking)-numprim(13)_final(9).mov,resources/videos_natural\training(19).mov,False,False,right,0,4,4,4,2018-10-08 12:55:52.683040,2018-10-08 12:55:56.753273,0:00:04.070233,1,left,0,0.3505883345029588,28,m,2,14,2018_Oct_08_1254,MP_PerceptionTuring2,59.93472935970312,
6,resources/videos_generated\model(vcgpdm)-dataset(walking)-mode(ELBO)-parts(1)-dyn(26)-lvm(27)_final(2).mov,resources/videos_natural\training(1).mov,True,True,left,0,5,5,5,2018-10-08 12:55:58.221357,2018-10-08 12:56:02.291589,0:00:04.070232,1,right,0,0.3505476766283664,28,m,2,14,2018_Oct_08_1254,MP_PerceptionTuring2,59.93472935970312,
7,resources/videos_generated\model(vcgpdm)-dataset(walking)-mode(ELBO)-parts(2)-dyn(25)-lvm(22)_final(0).mov,resources/videos_natural\training(47).mov,False,True,left,0,6,6,6,2018-10-08 12:56:03.759673,2018-10-08 12:56:07.812905,0:00:04.053232,1,right,0,0.6341977900187885,28,m,2,14,2018_Oct_08_1254,MP_PerceptionTuring2,59.93472935970312,
8,resources/videos_generated\model(vcgpdm)-dataset(walking)-mode(ELBO)-parts(2)-dyn(26)-lvm(17)_final(2).mov,resources/videos_natural\training(44).mov,True,False,right,0,7,7,7,2018-10-08 12:56:09.564005,2018-10-08 12:56:13.634238,0:00:04.070233,1,right,1,0.3840609085077631,28,m,2,14,2018_Oct_08_1254,MP_PerceptionTuring2,59.93472935970312,
9,resources/videos_generated\model(dmp)-dataset(walking)-npsi(100)_final(3).mov,resources/videos_natural\training(30).mov,False,True,left,0,8,8,8,2018-10-08 12:56:15.135324,2018-10-08 12:56:19.089550,0:00:03.954226,1,right,0,0.3005399968074016,28,m,2,14,2018_Oct_08_1254,MP_PerceptionTuring2,59.93472935970312,
10,resources/videos_generated\model(vcgpdm)-dataset(walking)-mode(ELBO)-parts(2)-dyn(28)-lvm(17)_final(2).mov,resources/videos_natural\training(41).mov,True,True,left,0,9,9,9,2018-10-08 12:56:20.506631,2018-10-08 12:56:24.610866,0:00:04.104235,1,left,1,0.33388336912230443,28,m,2,14,2018_Oct_08_1254,MP_PerceptionTuring2,59.93472935970312,
11,resources/videos_generated\model(vcgpdm)-dataset(walking)-mode(ELBO)-parts(2)-dyn(26)-lvm(19)_final(6).mov,resources/videos_natural\training(26).mov,True,True,left,0,10,10,10,2018-10-08 12:56:26.061949,2018-10-08 12:56:30.132182,0:00:04.070233,1,left,1,0.28377509870824724,28,m,2,14,2018_Oct_08_1254,MP_PerceptionTuring2,59.93472935970312,
12,resources/videos_generated\model(tmp)-dataset(walking)-numprim(12)_final(1).mov,resources/videos_natural\training(8).mov,True,True,left,0,11,11,11,2018-10-08 12:56:31.533262,2018-10-08 12:56:35.636497,0:00:04.103235,1,right,0,0.30044723661990247,28,m,2,14,2018_Oct_08_1254,MP_PerceptionTuring2,59.93472935970312,
13,resources/videos_generated\model(dmp)-dataset(walking)-npsi(90)_final(3).mov,resources/videos_natural\training(34).mov,False,True,left,0,12,12,12,2018-10-08 12:56:37.054578,2018-10-08 12:56:41.124811,0:00:04.070233,1,left,1,1.0845256129550762,28,m,2,14,2018_Oct_08_1254,MP_PerceptionTuring2,59.93472935970312,
14,resources/videos_generated\model(vcgpdm)-dataset(walking)-mode(ELBO)-parts(2)-dyn(28)-lvm(19)_final(4).mov,resources/videos_natural\training(17).mov,True,False,right,0,13,13,13,2018-10-08 12:56:43.326937,2018-10-08 12:56:47.397169,0:00:04.070232,1,right,1,0.40054662253533024,28,m,2,14,2018_Oct_08_1254,MP_PerceptionTuring2,59.93472935970312,
15,resources/videos_generated\model(dmp)-dataset(walking)-npsi(70)_final(1).mov,resources/videos_natural\training(36).mov,False,False,right,0,14,14,14,2018-10-08 12:56:48.915256,2018-10-08 12:56:52.951487,0:00:04.036231,1,right,1,0.20068877451149092,28,m,2,14,2018_Oct_08_1254,MP_PerceptionTuring2,59.93472935970312,
16,resources/videos_generated\model(vcgpdm)-dataset(walking)-mode(ELBO)-parts(2)-dyn(26)-lvm(19)_final(4).mov,resources/videos_natural\training(0).mov,True,False,right,0,15,15,15,2018-10-08 12:56:54.269562,2018-10-08 12:56:58.222789,0:00:03.953227,1,right,1,0.4339613720073885,28,m,2,14,2018_Oct_08_1254,MP_PerceptionTuring2,59.93472935970312,
17,resources/videos_generated\model(vcgpdm)-dataset(walking)-mode(ELBO)-parts(1)-dyn(28)-lvm(27)_final(8).mov,resources/videos_natural\training(32).mov,False,True,left,0,16,16,16,2018-10-08 12:56:59.774877,2018-10-08 12:57:03.711102,0:00:03.936225,1,right,0,0.2670556771945485,28,m,2,14,2018_Oct_08_1254,MP_PerceptionTuring2,59.93472935970312,
18,resources/videos_generated\model(vcgpdm)-dataset(walking)-mode(ELBO)-parts(1)-dyn(27)-lvm(26)_final(2).mov,resources/videos_natural\training(3).mov,False,False,right,0,17,17,17,2018-10-08 12:57:05.095182,2018-10-08 12:57:09.182415,0:00:04.087233,1,right,1,0.4505440625950996,28,m,2,14,2018_Oct_08_1254,MP_PerceptionTuring2,59.93472935970312,
19,resources/videos_generated\model(vcgpdm)-dataset(walking)-mode(ELBO)-parts(2)-dyn(22)-lvm(23)_final(0).mov,resources/videos_natural\training(47).mov,True,False,right,0,18,18,18,2018-10-08 12:57:10.750505,2018-10-08 12:57:14.704731,0:00:03.954226,1,left,0,0.7508301735640543,28,m,2,14,2018_Oct_08_1254,MP_PerceptionTuring2,59.93472935970312,
20,resources/videos_generated\model(vcgpdm)-dataset(walking)-mode(ELBO)-parts(1)-dyn(28)-lvm(23)_final(2).mov,resources/videos_natural\training(14).mov,False,True,left,0,19,19,19,2018-10-08 12:57:16.571838,2018-10-08 12:57:20.676073,0:00:04.104235,1,right,0,0.45068621457130575,28,m,2,14,2018_Oct_08_1254,MP_PerceptionTuring2,59.93472935970312,
21,resources/videos_generated\model(vcgpdm)-dataset(walking)-mode(ELBO)-parts(1)-dyn(23)-lvm(24)_final(6).mov,resources/videos_natural\training(40).mov,False,False,right,0,20,20,20,2018-10-08 12:57:22.244162,2018-10-08 12:57:26.330396,0:00:04.086234,1,right,1,0.3339881760878143,28,m,2,14,2018_Oct_08_1254,MP_PerceptionTuring2,59.93472935970312,
22,resources/videos_generated\model(vcgpdm)-dataset(walking)-mode(ELBO)-parts(2)-dyn(25)-lvm(22)_final(6).mov,resources/videos_natural\training(23).mov,True,True,left,0,21,21,21,2018-10-08 12:57:27.781479,2018-10-08 12:57:31.868713,0:00:04.087234,1,left,1,0.5172916434514718,28,m,2,14,2018_Oct_08_1254,MP_PerceptionTuring2,59.93472935970312,
23,resources/videos_generated\model(vcgpdm)-dataset(walking)-mode(ELBO)-parts(2)-dyn(25)-lvm(22)_final(4).mov,resources/videos_natural\training(33).mov,False,False,right,0,22,22,22,2018-10-08 12:57:33.503806,2018-10-08 12:57:37.574039,0:00:04.070233,1,left,0,0.2671044666440139,28,m,2,14,2018_Oct_08_1254,MP_PerceptionTuring2,59.93472935970312,
24,resources/videos_generated\model(vcgpdm)-dataset(walking)-mode(ELBO)-parts(1)-dyn(23)-lvm(24)_final(8).mov,resources/videos_natural\training(26).mov,False,True,left,0,23,23,23,2018-10-08 12:57:38.958118,2018-10-08 12:57:43.062353,0:00:04.104235,1,left,1,0.28379467472200304,28,m,2,14,2018_Oct_08_1254,MP_PerceptionTuring2,59.93472935970312,
25,resources/videos_generated\model(tmp)-dataset(walking)-numprim(15)_final(9).mov,resources/videos_natural\training(13).mov,True,True,left,0,24,24,24,2018-10-08 12:57:44.463433,2018-10-08 12:57:48.566668,0:00:04.103235,1,right,0,0.5838681600655491,28,m,2,14,2018_Oct_08_1254,MP_PerceptionTuring2,59.93472935970312,
26,resources/videos_generated\model(vcgpdm)-dataset(walking)-mode(ELBO)-parts(2)-dyn(23)-lvm(22)_final(8).mov,resources/videos_natural\training(40).mov,True,False,right,0,25,25,25,2018-10-08 12:57:50.267765,2018-10-08 12:57:54.354999,0:00:04.087234,1,right,1,0.31723201190220607,28,m,2,14,2018_Oct_08_1254,MP_PerceptionTuring2,59.93472935970312,
27,resources/videos_generated\model(vcgpdm)-dataset(walking)-mode(ELBO)-parts(1)-dyn(23)-lvm(24)_final(0).mov,resources/videos_natural\training(40).mov,True,False,right,0,26,26,26,2018-10-08 12:57:55.789081,2018-10-08 12:57:59.809311,0:00:04.020230,1,right,1,0.31714527510303014,28,m,2,14,2018_Oct_08_1254,MP_PerceptionTuring2,59.93472935970312,
28,resources/videos_generated\model(vcgpdm)-dataset(walking)-mode(ELBO)-parts(1)-dyn(25)-lvm(23)_final(2).mov,resources/videos_natural\training(15).mov,True,True,left,0,27,27,27,2018-10-08 12:58:01.244393,2018-10-08 12:58:05.181618,0:00:03.937225,1,left,1,0.2671863847319855,28,m,2,14,2018_Oct_08_1254,MP_PerceptionTuring2,59.93472935970312,
29,resources/videos_generated\model(vcgpdm)-dataset(walking)-mode(ELBO)-parts(2)-dyn(28)-lvm(19)_final(6).mov,resources/videos_natural\training(32).mov,True,True,left,0,28,28,28,2018-10-08 12:58:06.565698,2018-10-08 12:58:10.651931,0:00:04.086233,1,right,0,0.2504693725738889,28,m,2,14,2018_Oct_08_1254,MP_PerceptionTuring2,59.93472935970312,
30,resources/videos_generated\model(vcgpdm)-dataset(walking)-mode(ELBO)-parts(1)-dyn(27)-lvm(28)_final(0).mov,resources/videos_natural\training(7).mov,True,True,left,0,29,29,29,2018-10-08 12:58:12.020010,2018-10-08 12:58:15.907232,0:00:03.887222,1,right,0,0.4174090995336428,28,m,2,14,2018_Oct_08_1254,MP_PerceptionTuring2,59.93472935970312,
31,resources/videos_generated\model(vcgpdm)-dataset(walking)-mode(ELBO)-parts(2)-dyn(24)-lvm(21)_final(2).mov,resources/videos_natural\training(20).mov,False,True,left,0,30,30,30,2018-10-08 12:58:17.441320,2018-10-08 12:58:21.395546,0:00:03.954226,1,left,1,0.8509217290738889,28,m,2,14,2018_Oct_08_1254,MP_PerceptionTuring2,59.93472935970312,
32,resources/videos_generated\model(vcgpdm)-dataset(walking)-mode(ELBO)-parts(2)-dyn(25)-lvm(22)_final(2).mov,resources/videos_natural\training(29).mov,True,True,left,0,31,31,31,2018-10-08 12:58:23.363658,2018-10-08 12:58:27.449892,0:00:04.086234,1,right,0,0.3672860718168067,28,m,2,14,2018_Oct_08_1254,MP_PerceptionTuring2,59.93472935970312,
33,resources/videos_generated\model(tmp)-dataset(walking)-numprim(13)_final(3).mov,resources/videos_natural\training(31).mov,True,False,right,0,32,32,32,2018-10-08 12:58:28.934977,2018-10-08 12:58:33.055213,0:00:04.120236,1,left,0,0.267196925662347,28,m,2,14,2018_Oct_08_1254,MP_PerceptionTuring2,59.93472935970312,
34,resources/videos_generated\model(vcgpdm)-dataset(walking)-mode(ELBO)-parts(2)-dyn(27)-lvm(18)_final(0).mov,resources/videos_natural\training(12).mov,False,True,left,0,33,33,33,2018-10-08 12:58:34.439292,2018-10-08 12:58:38.343515,0:00:03.904223,1,left,1,0.40056740322665974,28,m,2,14,2018_Oct_08_1254,MP_PerceptionTuring2,59.93472935970312,
35,resources/videos_generated\model(dmp)-dataset(walking)-npsi(100)_final(9).mov,resources/videos_natural\training(25).mov,False,True,left,0,34,34,34,2018-10-08 12:58:39.860602,2018-10-08 12:58:43.914834,0:00:04.054232,1,right,0,0.46737702498808176,28,m,2,14,2018_Oct_08_1254,MP_PerceptionTuring2,59.93472935970312,
36,resources/videos_generated\model(dmp)-dataset(walking)-npsi(60)_final(3).mov,resources/videos_natural\training(31).mov,False,False,right,0,35,35,35,2018-10-08 12:58:45.498924,2018-10-08 12:58:49.402148,0:00:03.903224,1,left,0,0.3004830757831769,28,m,2,14,2018_Oct_08_1254,MP_PerceptionTuring2,59.93472935970312,
37,resources/videos_generated\model(vcgpdm)-dataset(walking)-mode(ELBO)-parts(1)-dyn(22)-lvm(27)_final(1)_fail.mov,resources/videos_natural\training(6).mov,False,False,right,0,36,36,36,2018-10-08 12:58:50.820229,2018-10-08 12:58:54.907463,0:00:04.087234,1,right,1,0.6006993154419433,28,m,2,14,2018_Oct_08_1254,MP_PerceptionTuring2,59.93472935970312,
38,resources/videos_generated\model(vcgpdm)-dataset(walking)-mode(ELBO)-parts(1)-dyn(27)-lvm(24)_final(8).mov,resources/videos_natural\training(20).mov,True,True,left,0,37,37,37,2018-10-08 12:58:56.625561,2018-10-08 12:59:00.595788,0:00:03.970227,1,left,1,0.5173473597981229,28,m,2,14,2018_Oct_08_1254,MP_PerceptionTuring2,59.93472935970312,
39,resources/videos_generated\model(vcgpdm)-dataset(walking)-mode(ELBO)-parts(2)-dyn(22)-lvm(23)_final(4).mov,resources/videos_natural\training(2).mov,False,False,right,0,38,38,38,2018-10-08 12:59:02.229881,2018-10-08 12:59:06.301114,0:00:04.071233,1,right,1,0.3671918057818857,28,m,2,14,2018_Oct_08_1254,MP_PerceptionTuring2,59.93472935970312,
40,resources/videos_generated\model(vcgpdm)-dataset(walking)-mode(ELBO)-parts(2)-dyn(24)-lvm(17)_final(8).mov,resources/videos_natural\training(12).mov,True,True,left,0,39,39,39,2018-10-08 12:59:07.785199,2018-10-08 12:59:11.722424,0:00:03.937225,1,right,0,0.36730233496655273,28,m,2,14,2018_Oct_08_1254,MP_PerceptionTuring2,59.93472935970312,
41,resources/videos_generated\model(vcgpdm)-dataset(walking)-mode(ELBO)-parts(2)-dyn(28)-lvm(23)_final(2).mov,resources/videos_natural\training(21).mov,True,False,right,0,40,40,40,2018-10-08 12:59:13.206509,2018-10-08 12:59:17.293743,0:00:04.087234,1,right,1,0.5342050180852311,28,m,2,14,2018_Oct_08_1254,MP_PerceptionTuring2,59.93472935970312,
42,resources/videos_generated\model(vcgpdm)-dataset(walking)-mode(ELBO)-parts(2)-dyn(24)-lvm(21)_final(4).mov,resources/videos_natural\training(19).mov,False,False,right,0,41,41,41,2018-10-08 12:59:18.944837,2018-10-08 12:59:23.032071,0:00:04.087234,1,right,1,0.6673962998322622,28,m,2,14,2018_Oct_08_1254,MP_PerceptionTuring2,59.93472935970312,
43,resources/videos_generated\model(vcgpdm)-dataset(walking)-mode(ELBO)-parts(2)-dyn(25)-lvm(18)_final(0).mov,resources/videos_natural\training(11).mov,True,False,right,0,42,42,42,2018-10-08 12:59:24.816173,2018-10-08 12:59:28.903407,0:00:04.087234,1,right,1,0.500814964507299,28,m,2,14,2018_Oct_08_1254,MP_PerceptionTuring2,59.93472935970312,
44,resources/videos_generated\model(vcgpdm)-dataset(walking)-mode(ELBO)-parts(1)-dyn(25)-lvm(28)_final(9).mov,resources/videos_natural\training(9).mov,True,True,left,0,43,43,43,2018-10-08 12:59:30.521500,2018-10-08 12:59:34.624734,0:00:04.103234,1,left,1,0.5340589509064557,28,m,2,14,2018_Oct_08_1254,MP_PerceptionTuring2,59.93472935970312,
45,resources/videos_generated\model(vcgpdm)-dataset(walking)-mode(ELBO)-parts(2)-dyn(23)-lvm(20)_final(2).mov,resources/videos_natural\training(42).mov,True,False,right,0,44,44,44,2018-10-08 12:59:36.276829,2018-10-08 12:59:40.413065,0:00:04.136236,1,right,1,0.6173223627345124,28,m,2,14,2018_Oct_08_1254,MP_PerceptionTuring2,59.93472935970312,
46,resources/videos_generated\model(vcgpdm)-dataset(walking)-mode(ELBO)-parts(1)-dyn(27)-lvm(26)_final(0).mov,resources/videos_natural\training(44).mov,True,False,right,0,45,45,45,2018-10-08 13:00:20.448355,2018-10-08 13:00:24.384580,0:00:03.936225,2,right,1,0.33382494225065784,28,m,2,14,2018_Oct_08_1254,MP_PerceptionTuring2,59.93472935970312,
47,resources/videos_generated\model(vcgpdm)-dataset(walking)-mode(ELBO)-parts(2)-dyn(22)-lvm(19)_final(2).mov,resources/videos_natural\training(26).mov,True,False,right,0,46,46,46,2018-10-08 13:00:25.835663,2018-10-08 13:00:29.739887,0:00:03.904224,2,right,1,1.368059173771826,28,m,2,14,2018_Oct_08_1254,MP_PerceptionTuring2,59.93472935970312,
48,resources/videos_generated\model(vcgpdm)-dataset(walking)-mode(ELBO)-parts(2)-dyn(26)-lvm(17)_final(6).mov,resources/videos_natural\training(44).mov,True,True,left,0,47,47,47,2018-10-08 13:00:32.225029,2018-10-08 13:00:36.111251,0:00:03.886222,2,right,0,0.6007384674692275,28,m,2,14,2018_Oct_08_1254,MP_PerceptionTuring2,59.93472935970312,
49,resources/videos_generated\model(dmp)-dataset(walking)-npsi(50)_final(7).mov,resources/videos_natural\training(24).mov,False,False,right,0,48,48,48,2018-10-08 13:00:37.829349,2018-10-08 13:00:41.949585,0:00:04.120236,2,right,1,0.4005396956381446,28,m,2,14,2018_Oct_08_1254,MP_PerceptionTuring2,59.93472935970312,
50,resources/videos_generated\model(vcgpdm)-dataset(walking)-mode(ELBO)-parts(1)-dyn(25)-lvm(22)_final(1).mov,resources/videos_natural\training(32).mov,True,False,right,0,49,49,49,2018-10-08 13:00:43.467672,2018-10-08 13:00:47.537905,0:00:04.070233,2,right,1,0.26709603389963377,28,m,2,14,2018_Oct_08_1254,MP_PerceptionTuring2,59.93472935970312,
51,resources/videos_generated\model(dmp)-dataset(walking)-npsi(90)_final(9).mov,resources/videos_natural\training(18).mov,True,True,left,0,50,50,50,2018-10-08 13:00:48.922984,2018-10-08 13:00:52.826207,0:00:03.903223,2,right,0,0.2837838326220208,28,m,2,14,2018_Oct_08_1254,MP_PerceptionTuring2,59.93472935970312,
52,resources/videos_generated\model(vcgpdm)-dataset(walking)-mode(ELBO)-parts(2)-dyn(24)-lvm(23)_final(4).mov,resources/videos_natural\training(44).mov,True,False,right,0,51,51,51,2018-10-08 13:00:54.227287,2018-10-08 13:00:58.147511,0:00:03.920224,2,right,1,0.1336324949779737,28,m,2,14,2018_Oct_08_1254,MP_PerceptionTuring2,59.93472935970312,
53,resources/videos_generated\model(vcgpdm)-dataset(walking)-mode(ELBO)-parts(1)-dyn(22)-lvm(23)_final(7).mov,resources/videos_natural\training(48).mov,False,True,left,0,52,52,52,2018-10-08 13:00:59.398583,2018-10-08 13:01:03.501818,0:00:04.103235,2,right,0,0.2671177180993709,28,m,2,14,2018_Oct_08_1254,MP_PerceptionTuring2,59.93472935970312,
54,resources/videos_generated\model(dmp)-dataset(walking)-npsi(100)_final(7).mov,resources/videos_natural\training(45).mov,False,True,left,0,53,53,53,2018-10-08 13:01:04.886897,2018-10-08 13:01:08.990132,0:00:04.103235,2,right,0,0.7007586458216792,28,m,2,14,2018_Oct_08_1254,MP_PerceptionTuring2,59.93472935970312,
55,resources/videos_generated\model(vcgpdm)-dataset(walking)-mode(ELBO)-parts(2)-dyn(28)-lvm(19)_final(0).mov,resources/videos_natural\training(35).mov,True,False,right,0,54,54,54,2018-10-08 13:01:10.808236,2018-10-08 13:01:14.928471,0:00:04.120235,2,right,1,1.217869587608675,28,m,2,14,2018_Oct_08_1254,MP_PerceptionTuring2,59.93472935970312,
56,resources/videos_generated\model(vcgpdm)-dataset(walking)-mode(ELBO)-parts(1)-dyn(28)-lvm(23)_final(4)_fail.mov,resources/videos_natural\training(20).mov,False,True,left,0,55,55,55,2018-10-08 13:01:17.263605,2018-10-08 13:01:21.367840,0:00:04.104235,2,left,1,0.3338354831812467,28,m,2,14,2018_Oct_08_1254,MP_PerceptionTuring2,59.93472935970312,
57,resources/videos_generated\model(vcgpdm)-dataset(walking)-mode(ELBO)-parts(1)-dyn(28)-lvm(25)_final(0).mov,resources/videos_natural\training(18).mov,True,True,left,0,56,56,56,2018-10-08 13:01:22.818923,2018-10-08 13:01:26.739147,0:00:03.920224,2,left,1,0.26745713605919264,28,m,2,14,2018_Oct_08_1254,MP_PerceptionTuring2,59.93472935970312,
58,resources/videos_generated\model(vcgpdm)-dataset(walking)-mode(ELBO)-parts(2)-dyn(28)-lvm(21)_final(0).mov,resources/videos_natural\training(40).mov,True,True,left,0,57,57,57,2018-10-08 13:01:28.123226,2018-10-08 13:01:32.226461,0:00:04.103235,2,right,0,0.38395971557565645,28,m,2,14,2018_Oct_08_1254,MP_PerceptionTuring2,59.93472935970312,
59,resources/videos_generated\model(vcgpdm)-dataset(walking)-mode(ELBO)-parts(2)-dyn(22)-lvm(17)_final(4).mov,resources/videos_natural\training(32).mov,True,False,right,0,58,58,58,2018-10-08 13:01:33.728547,2018-10-08 13:01:37.664772,0:00:03.936225,2,left,0,0.03358701839238165,28,m,2,14,2018_Oct_08_1254,MP_PerceptionTuring2,59.93472935970312,
60,resources/videos_generated\model(tmp)-dataset(walking)-numprim(14)_final(9).mov,resources/videos_natural\training(0).mov,False,False,right,0,59,59,59,2018-10-08 13:01:38.815838,2018-10-08 13:01:42.903071,0:00:04.087233,2,left,0,0.33394239833273787,28,m,2,14,2018_Oct_08_1254,MP_PerceptionTuring2,59.93472935970312,
61,resources/videos_generated\model(vcgpdm)-dataset(walking)-mode(ELBO)-parts(2)-dyn(22)-lvm(23)_final(6).mov,resources/videos_natural\training(29).mov,True,False,right,0,60,60,60,2018-10-08 13:01:44.354154,2018-10-08 13:01:48.240377,0:00:03.886223,2,right,1,0.30058938859588125,28,m,2,14,2018_Oct_08_1254,MP_PerceptionTuring2,59.93472935970312,
62,resources/videos_generated\model(vcgpdm)-dataset(walking)-mode(ELBO)-parts(1)-dyn(25)-lvm(26)_final(7).mov,resources/videos_natural\training(37).mov,False,True,left,0,61,61,61,2018-10-08 13:01:49.658458,2018-10-08 13:01:53.745691,0:00:04.087233,2,left,1,1.1010604176015022,28,m,2,14,2018_Oct_08_1254,MP_PerceptionTuring2,59.93472935970312,
63,resources/videos_generated\model(vcgpdm)-dataset(walking)-mode(ELBO)-parts(1)-dyn(22)-lvm(25)_final(9).mov,resources/videos_natural\training(23).mov,False,True,left,0,62,62,62,2018-10-08 13:01:55.963818,2018-10-08 13:02:00.051052,0:00:04.087234,2,left,1,0.2837308268003653,28,m,2,14,2018_Oct_08_1254,MP_PerceptionTuring2,59.93472935970312,
64,resources/videos_generated\model(vcgpdm)-dataset(walking)-mode(ELBO)-parts(1)-dyn(24)-lvm(27)_final(7).mov,resources/videos_natural\training(28).mov,True,False,right,0,63,63,63,2018-10-08 13:02:01.452132,2018-10-08 13:02:05.389357,0:00:03.937225,2,right,1,0.6008206867265926,28,m,2,14,2018_Oct_08_1254,MP_PerceptionTuring2,59.93472935970312,
65,resources/videos_generated\model(vcgpdm)-dataset(walking)-mode(ELBO)-parts(1)-dyn(24)-lvm(25)_final(7).mov,resources/videos_natural\training(34).mov,False,True,left,0,64,64,64,2018-10-08 13:02:07.106456,2018-10-08 13:02:11.010679,0:00:03.904223,2,right,0,0.6341104508808257,28,m,2,14,2018_Oct_08_1254,MP_PerceptionTuring2,59.93472935970312,
66,resources/videos_generated\model(vcgpdm)-dataset(walking)-mode(ELBO)-parts(1)-dyn(25)-lvm(26)_final(9).mov,resources/videos_natural\training(16).mov,True,False,right,0,65,65,65,2018-10-08 13:02:12.761779,2018-10-08 13:02:16.699004,0:00:03.937225,2,left,0,0.5007104587111826,28,m,2,14,2018_Oct_08_1254,MP_PerceptionTuring2,59.93472935970312,
67,resources/videos_generated\model(tmp)-dataset(walking)-numprim(14)_final(3).mov,resources/videos_natural\training(22).mov,False,True,left,0,66,66,66,2018-10-08 13:02:18.317097,2018-10-08 13:02:22.353328,0:00:04.036231,2,right,0,0.26740111854337556,28,m,2,14,2018_Oct_08_1254,MP_PerceptionTuring2,59.93472935970312,
68,resources/videos_generated\model(dmp)-dataset(walking)-npsi(60)_final(9).mov,resources/videos_natural\training(34).mov,False,True,left,0,67,67,67,2018-10-08 13:02:23.738407,2018-10-08 13:02:27.641630,0:00:03.903223,2,right,0,0.2671210309631533,28,m,2,14,2018_Oct_08_1254,MP_PerceptionTuring2,59.93472935970312,
69,resources/videos_generated\model(dmp)-dataset(walking)-npsi(50)_final(9).mov,resources/videos_natural\training(4).mov,True,True,left,0,68,68,68,2018-10-08 13:02:29.025709,2018-10-08 13:02:33.112943,0:00:04.087234,2,left,1,0.4174605995078764,28,m,2,14,2018_Oct_08_1254,MP_PerceptionTuring2,59.93472935970312,
70,resources/videos_generated\model(vcgpdm)-dataset(walking)-mode(ELBO)-parts(1)-dyn(26)-lvm(27)_final(0).mov,resources/videos_natural\training(7).mov,False,False,right,0,69,69,69,2018-10-08 13:02:34.647031,2018-10-08 13:02:38.584256,0:00:03.937225,2,right,1,0.45061995729429327,28,m,2,14,2018_Oct_08_1254,MP_PerceptionTuring2,59.93472935970312,
71,resources/videos_generated\model(vcgpdm)-dataset(walking)-mode(ELBO)-parts(1)-dyn(23)-lvm(26)_final(6)_hip-corrected.mov,resources/videos_natural\training(8).mov,False,True,left,0,70,70,70,2018-10-08 13:02:40.152346,2018-10-08 13:02:44.055569,0:00:03.903223,2,left,1,0.3171512984920355,28,m,2,14,2018_Oct_08_1254,MP_PerceptionTuring2,59.93472935970312,
72,resources/videos_generated\model(tmp)-dataset(walking)-numprim(14)_final(1).mov,resources/videos_natural\training(39).mov,True,False,right,0,71,71,71,2018-10-08 13:02:45.489651,2018-10-08 13:02:49.593886,0:00:04.104235,2,left,0,0.3004153126591973,28,m,2,14,2018_Oct_08_1254,MP_PerceptionTuring2,59.93472935970312,
73,resources/videos_generated\model(vcgpdm)-dataset(walking)-mode(ELBO)-parts(2)-dyn(26)-lvm(23)_final(2).mov,resources/videos_natural\training(24).mov,False,False,right,0,72,72,72,2018-10-08 13:02:51.011967,2018-10-08 13:02:55.115202,0:00:04.103235,2,right,1,0.2836449935098244,28,m,2,14,2018_Oct_08_1254,MP_PerceptionTuring2,59.93472935970312,
74,resources/videos_generated\model(dmp)-dataset(walking)-npsi(50)_final(1).mov,resources/videos_natural\training(33).mov,True,True,left,0,73,73,73,2018-10-08 13:02:56.516282,2018-10-08 13:03:00.553513,0:00:04.037231,2,left,1,0.2671695192432253,28,m,2,14,2018_Oct_08_1254,MP_PerceptionTuring2,59.93472935970312,
75,resources/videos_generated\model(vcgpdm)-dataset(walking)-mode(ELBO)-parts(1)-dyn(25)-lvm(24)_final(6).mov,resources/videos_natural\training(19).mov,True,True,left,0,74,74,74,2018-10-08 13:03:01.937592,2018-10-08 13:03:05.924820,0:00:03.987228,2,left,1,0.3505238842426479,28,m,2,14,2018_Oct_08_1254,MP_PerceptionTuring2,59.93472935970312,
76,resources/videos_generated\model(vcgpdm)-dataset(walking)-mode(ELBO)-parts(2)-dyn(26)-lvm(19)_final(0).mov,resources/videos_natural\training(22).mov,True,True,left,0,75,75,75,2018-10-08 13:03:07.391904,2018-10-08 13:03:11.296127,0:00:03.904223,2,right,0,0.3506904309433594,28,m,2,14,2018_Oct_08_1254,MP_PerceptionTuring2,59.93472935970312,
77,resources/videos_generated\model(vcgpdm)-dataset(walking)-mode(ELBO)-parts(2)-dyn(25)-lvm(20)_final(8).mov,resources/videos_natural\training(39).mov,False,True,left,0,76,76,76,2018-10-08 13:03:12.763211,2018-10-08 13:03:16.683435,0:00:03.920224,2,left,1,0.38417354587863883,28,m,2,14,2018_Oct_08_1254,MP_PerceptionTuring2,59.93472935970312,
78,resources/videos_generated\model(vcgpdm)-dataset(walking)-mode(ELBO)-parts(1)-dyn(28)-lvm(25)_final(4).mov,resources/videos_natural\training(30).mov,False,True,left,0,77,77,77,2018-10-08 13:03:18.185521,2018-10-08 13:03:22.088744,0:00:03.903223,2,right,0,0.3004764500556121,28,m,2,14,2018_Oct_08_1254,MP_PerceptionTuring2,59.93472935970312,
79,resources/videos_generated\model(dmp)-dataset(walking)-npsi(60)_final(5).mov,resources/videos_natural\training(46).mov,True,False,right,0,78,78,78,2018-10-08 13:03:23.505825,2018-10-08 13:03:27.426050,0:00:03.920225,2,left,0,0.3004737395306165,28,m,2,14,2018_Oct_08_1254,MP_PerceptionTuring2,59.93472935970312,
80,resources/videos_generated\model(vcgpdm)-dataset(walking)-mode(ELBO)-parts(1)-dyn(28)-lvm(27)_final(6).mov,resources/videos_natural\training(21).mov,True,True,left,0,79,79,79,2018-10-08 13:03:28.844131,2018-10-08 13:03:32.764355,0:00:03.920224,2,left,1,0.2670529666695529,28,m,2,14,2018_Oct_08_1254,MP_PerceptionTuring2,59.93472935970312,
81,resources/videos_generated\model(vcgpdm)-dataset(walking)-mode(ELBO)-parts(2)-dyn(28)-lvm(23)_final(6).mov,resources/videos_natural\training(47).mov,False,False,right,0,80,80,80,2018-10-08 13:03:34.148434,2018-10-08 13:03:38.085659,0:00:03.937225,2,right,1,0.3504591328128299,28,m,2,14,2018_Oct_08_1254,MP_PerceptionTuring2,59.93472935970312,
82,resources/videos_generated\model(vcgpdm)-dataset(walking)-mode(ELBO)-parts(2)-dyn(25)-lvm(22)_final(8).mov,resources/videos_natural\training(33).mov,True,False,right,0,81,81,81,2018-10-08 13:03:39.553743,2018-10-08 13:03:43.489968,0:00:03.936225,2,left,0,0.2504766006402406,28,m,2,14,2018_Oct_08_1254,MP_PerceptionTuring2,59.93472935970312,
83,resources/videos_generated\model(vcgpdm)-dataset(walking)-mode(ELBO)-parts(2)-dyn(24)-lvm(17)_final(0).mov,resources/videos_natural\training(19).mov,True,True,left,0,82,82,82,2018-10-08 13:03:44.858047,2018-10-08 13:03:48.745269,0:00:03.887222,2,right,0,0.7341718894467704,28,m,2,14,2018_Oct_08_1254,MP_PerceptionTuring2,59.93472935970312,
84,resources/videos_generated\model(vcgpdm)-dataset(walking)-mode(ELBO)-parts(1)-dyn(22)-lvm(25)_final(5).mov,resources/videos_natural\training(26).mov,True,True,left,0,83,83,83,2018-10-08 13:03:50.596375,2018-10-08 13:03:54.516599,0:00:03.920224,2,left,1,0.4839323091564438,28,m,2,14,2018_Oct_08_1254,MP_PerceptionTuring2,59.93472935970312,
85,resources/videos_generated\model(vcgpdm)-dataset(walking)-mode(ELBO)-parts(1)-dyn(24)-lvm(27)_final(1).mov,resources/videos_natural\training(47).mov,False,True,left,0,84,84,84,2018-10-08 13:03:56.117691,2018-10-08 13:04:00.154922,0:00:04.037231,2,right,0,0.5340068485929805,28,m,2,14,2018_Oct_08_1254,MP_PerceptionTuring2,59.93472935970312,
86,resources/videos_generated\model(vcgpdm)-dataset(walking)-mode(ELBO)-parts(2)-dyn(27)-lvm(22)_final(8).mov,resources/videos_natural\training(4).mov,True,True,left,0,85,85,85,2018-10-08 13:04:01.806016,2018-10-08 13:04:05.726240,0:00:03.920224,2,left,1,0.3672547501951158,28,m,2,14,2018_Oct_08_1254,MP_PerceptionTuring2,59.93472935970312,
87,resources/videos_generated\model(vcgpdm)-dataset(walking)-mode(ELBO)-parts(2)-dyn(28)-lvm(23)_final(8).mov,resources/videos_natural\training(4).mov,False,False,right,0,86,86,86,2018-10-08 13:04:07.211325,2018-10-08 13:04:11.264557,0:00:04.053232,2,right,1,0.3505530976783575,28,m,2,14,2018_Oct_08_1254,MP_PerceptionTuring2,59.93472935970312,
88,resources/videos_generated\model(vcgpdm)-dataset(walking)-mode(ELBO)-parts(2)-dyn(28)-lvm(17)_final(0).mov,resources/videos_natural\training(16).mov,False,True,left,0,87,87,87,2018-10-08 13:04:12.732641,2018-10-08 13:04:16.635864,0:00:03.903223,2,left,1,0.3505296064618051,28,m,2,14,2018_Oct_08_1254,MP_PerceptionTuring2,59.93472935970312,
89,resources/videos_generated\model(vcgpdm)-dataset(walking)-mode(ELBO)-parts(1)-dyn(24)-lvm(25)_final(1).mov,resources/videos_natural\training(36).mov,True,True,left,0,88,88,88,2018-10-08 13:04:18.103948,2018-10-08 13:04:22.024173,0:00:03.920225,2,left,1,0.3005056634913217,28,m,2,14,2018_Oct_08_1254,MP_PerceptionTuring2,59.93472935970312,
90,resources/videos_generated\model(vcgpdm)-dataset(walking)-mode(ELBO)-parts(1)-dyn(23)-lvm(24)_final(2).mov,resources/videos_natural\training(35).mov,False,False,right,0,89,89,89,2018-10-08 13:04:23.441254,2018-10-08 13:04:27.545488,0:00:04.104234,2,right,1,1.1678688346848958,28,m,2,14,2018_Oct_08_1254,MP_PerceptionTuring2,59.93472935970312,
91,resources/videos_generated\model(vcgpdm)-dataset(walking)-mode(ELBO)-parts(2)-dyn(27)-lvm(18)_final(4).mov,resources/videos_natural\training(12).mov,False,True,left,0,90,90,90,2018-10-08 13:05:01.708442,2018-10-08 13:05:05.611666,0:00:03.903224,3,left,1,0.2671125982190006,28,m,2,14,2018_Oct_08_1254,MP_PerceptionTuring2,59.93472935970312,
92,resources/videos_generated\model(vcgpdm)-dataset(walking)-mode(ELBO)-parts(1)-dyn(27)-lvm(22)_final(8).mov,resources/videos_natural\training(21).mov,True,False,right,0,91,91,91,2018-10-08 13:05:06.995745,2018-10-08 13:05:10.915969,0:00:03.920224,3,left,0,0.3173847048087737,28,m,2,14,2018_Oct_08_1254,MP_PerceptionTuring2,59.93472935970312,
93,resources/videos_generated\model(vcgpdm)-dataset(walking)-mode(ELBO)-parts(2)-dyn(24)-lvm(21)_final(6).mov,resources/videos_natural\training(43).mov,False,False,right,0,92,92,92,2018-10-08 13:05:12.350051,2018-10-08 13:05:16.287276,0:00:03.937225,3,right,1,0.4506594104909709,28,m,2,14,2018_Oct_08_1254,MP_PerceptionTuring2,59.93472935970312,
94,resources/videos_generated\model(vcgpdm)-dataset(walking)-mode(ELBO)-parts(1)-dyn(23)-lvm(22)_final(8)_fail.mov,resources/videos_natural\training(16).mov,True,True,left,0,93,93,93,2018-10-08 13:05:17.855366,2018-10-08 13:05:21.775590,0:00:03.920224,3,left,1,0.3672779402420474,28,m,2,14,2018_Oct_08_1254,MP_PerceptionTuring2,59.93472935970312,
95,resources/videos_generated\model(vcgpdm)-dataset(walking)-mode(ELBO)-parts(1)-dyn(24)-lvm(23)_final(5).mov,resources/videos_natural\training(48).mov,True,True,left,0,94,94,94,2018-10-08 13:05:23.259675,2018-10-08 13:05:27.196900,0:00:03.937225,3,left,1,0.2504395567991651,28,m,2,14,2018_Oct_08_1254,MP_PerceptionTuring2,59.93472935970312,
96,resources/videos_generated\model(vcgpdm)-dataset(walking)-mode(ELBO)-parts(2)-dyn(27)-lvm(22)_final(6).mov,resources/videos_natural\training(1).mov,True,True,left,0,95,95,95,2018-10-08 13:05:28.564978,2018-10-08 13:05:32.484203,0:00:03.919225,3,left,1,0.2504802146736438,28,m,2,14,2018_Oct_08_1254,MP_PerceptionTuring2,59.93472935970312,
97,resources/videos_generated\model(tmp)-dataset(walking)-numprim(15)_final(1).mov,resources/videos_natural\training(30).mov,True,True,left,0,96,96,96,2018-10-08 13:05:33.852281,2018-10-08 13:05:37.755504,0:00:03.903223,3,left,1,0.23376109432933845,28,m,2,14,2018_Oct_08_1254,MP_PerceptionTuring2,59.93472935970312,
98,resources/videos_generated\model(vcgpdm)-dataset(walking)-mode(ELBO)-parts(2)-dyn(22)-lvm(17)_final(2).mov,resources/videos_natural\training(38).mov,False,True,left,0,97,97,97,2018-10-08 13:05:39.106581,2018-10-08 13:05:43.193815,0:00:04.087234,3,right,0,0.3506082116859943,28,m,2,14,2018_Oct_08_1254,MP_PerceptionTuring2,59.93472935970312,
99,resources/videos_generated\model(dmp)-dataset(walking)-npsi(80)_final(9).mov,resources/videos_natural\training(15).mov,True,False,right,0,98,98,98,2018-10-08 13:05:44.661899,2018-10-08 13:05:48.582123,0:00:03.920224,3,left,0,0.3171582253892211,28,m,2,14,2018_Oct_08_1254,MP_PerceptionTuring2,59.93472935970312,
100,resources/videos_generated\model(vcgpdm)-dataset(walking)-mode(ELBO)-parts(2)-dyn(24)-lvm(19)_final(4).mov,resources/videos_natural\training(22).mov,False,True,left,0,99,99,99,2018-10-08 13:05:50.016205,2018-10-08 13:05:53.953431,0:00:03.937226,3,right,0,0.4173600089145566,28,m,2,14,2018_Oct_08_1254,MP_PerceptionTuring2,59.93472935970312,
101,resources/videos_generated\model(vcgpdm)-dataset(walking)-mode(ELBO)-parts(2)-dyn(28)-lvm(17)_final(4).mov,resources/videos_natural\training(42).mov,True,True,left,0,100,100,100,2018-10-08 13:05:55.487518,2018-10-08 13:05:59.391742,0:00:03.904224,3,left,1,0.30065444119509266,28,m,2,14,2018_Oct_08_1254,MP_PerceptionTuring2,59.93472935970312,
102,resources/videos_generated\model(vcgpdm)-dataset(walking)-mode(ELBO)-parts(1)-dyn(28)-lvm(24)_final(0).mov,resources/videos_natural\training(33).mov,True,True,left,0,101,101,101,2018-10-08 13:06:00.808823,2018-10-08 13:06:04.729047,0:00:03.920224,3,left,1,0.4839675459809314,28,m,2,14,2018_Oct_08_1254,MP_PerceptionTuring2,59.93472935970312,
103,resources/videos_generated\model(vcgpdm)-dataset(walking)-mode(ELBO)-parts(1)-dyn(27)-lvm(22)_final(4).mov,resources/videos_natural\training(2).mov,False,True,left,0,102,102,102,2018-10-08 13:06:06.330138,2018-10-08 13:06:10.267364,0:00:03.937226,3,right,0,0.3671622911765553,28,m,2,14,2018_Oct_08_1254,MP_PerceptionTuring2,59.93472935970312,
104,resources/videos_generated\model(vcgpdm)-dataset(walking)-mode(ELBO)-parts(2)-dyn(22)-lvm(19)_final(0).mov,resources/videos_natural\training(34).mov,True,True,left,0,103,103,103,2018-10-08 13:06:11.751449,2018-10-08 13:06:15.705675,0:00:03.954226,3,left,1,0.36760591376310003,28,m,2,14,2018_Oct_08_1254,MP_PerceptionTuring2,59.93472935970312,
105,resources/videos_generated\model(vcgpdm)-dataset(walking)-mode(ELBO)-parts(1)-dyn(22)-lvm(25)_final(7).mov,resources/videos_natural\training(1).mov,True,False,right,0,104,104,104,2018-10-08 13:06:17.189760,2018-10-08 13:06:21.293994,0:00:04.104234,3,right,1,0.40035809046526083,28,m,2,14,2018_Oct_08_1254,MP_PerceptionTuring2,59.93472935970312,
106,resources/videos_generated\model(vcgpdm)-dataset(walking)-mode(ELBO)-parts(1)-dyn(23)-lvm(26)_final(4)_hip-corrected.mov,resources/videos_natural\training(33).mov,False,True,left,0,105,105,105,2018-10-08 13:06:22.811081,2018-10-08 13:06:26.865313,0:00:04.054232,3,right,0,0.2671192239465654,28,m,2,14,2018_Oct_08_1254,MP_PerceptionTuring2,59.93472935970312,
107,resources/videos_generated\model(tmp)-dataset(walking)-numprim(11)_final(1).mov,resources/videos_natural\training(10).mov,False,False,right,0,106,106,106,2018-10-08 13:06:28.249392,2018-10-08 13:06:32.169616,0:00:03.920224,3,right,1,0.18367782097902818,28,m,2,14,2018_Oct_08_1254,MP_PerceptionTuring2,59.93472935970312,
108,resources/videos_generated\model(vcgpdm)-dataset(walking)-mode(ELBO)-parts(1)-dyn(25)-lvm(24)_final(4).mov,resources/videos_natural\training(45).mov,False,True,left,0,107,107,107,2018-10-08 13:06:33.470691,2018-10-08 13:06:37.373914,0:00:03.903223,3,right,0,0.15032752176693975,28,m,2,14,2018_Oct_08_1254,MP_PerceptionTuring2,59.93472935970312,
109,resources/videos_generated\model(vcgpdm)-dataset(walking)-mode(ELBO)-parts(2)-dyn(23)-lvm(18)_final(0).mov,resources/videos_natural\training(6).mov,False,False,right,0,108,108,108,2018-10-08 13:06:38.641987,2018-10-08 13:06:42.578212,0:00:03.936225,3,left,0,0.3170991961785603,28,m,2,14,2018_Oct_08_1254,MP_PerceptionTuring2,59.93472935970312,
110,resources/videos_generated\model(vcgpdm)-dataset(walking)-mode(ELBO)-parts(2)-dyn(22)-lvm(21)_final(8).mov,resources/videos_natural\training(48).mov,True,False,right,0,109,109,109,2018-10-08 13:06:44.013294,2018-10-08 13:06:47.933518,0:00:03.920224,3,right,1,0.25046816789586046,28,m,2,14,2018_Oct_08_1254,MP_PerceptionTuring2,59.93472935970312,
111,resources/videos_generated\model(vcgpdm)-dataset(walking)-mode(ELBO)-parts(1)-dyn(25)-lvm(24)_final(0).mov,resources/videos_natural\training(35).mov,True,True,left,0,110,110,110,2018-10-08 13:06:49.300596,2018-10-08 13:06:53.254822,0:00:03.954226,3,left,1,0.2837907595192064,28,m,2,14,2018_Oct_08_1254,MP_PerceptionTuring2,59.93472935970312,
112,resources/videos_generated\model(tmp)-dataset(walking)-numprim(12)_final(9).mov,resources/videos_natural\training(28).mov,True,False,right,0,111,111,111,2018-10-08 13:06:54.655903,2018-10-08 13:06:58.742136,0:00:04.086233,3,left,0,0.23375266158495833,28,m,2,14,2018_Oct_08_1254,MP_PerceptionTuring2,59.93472935970312,
113,resources/videos_generated\model(vcgpdm)-dataset(walking)-mode(ELBO)-parts(1)-dyn(26)-lvm(25)_final(0).mov,resources/videos_natural\training(41).mov,True,False,right,0,112,112,112,2018-10-08 13:07:00.093214,2018-10-08 13:07:04.013438,0:00:03.920224,3,right,1,0.25047328777645816,28,m,2,14,2018_Oct_08_1254,MP_PerceptionTuring2,59.93472935970312,
114,resources/videos_generated\model(vcgpdm)-dataset(walking)-mode(ELBO)-parts(2)-dyn(23)-lvm(20)_final(0).mov,resources/videos_natural\training(42).mov,True,False,right,0,113,113,113,2018-10-08 13:07:05.381516,2018-10-08 13:07:09.434748,0:00:04.053232,3,right,1,0.25044859188233204,28,m,2,14,2018_Oct_08_1254,MP_PerceptionTuring2,59.93472935970312,
115,resources/videos_generated\model(vcgpdm)-dataset(walking)-mode(ELBO)-parts(1)-dyn(24)-lvm(23)_final(7).mov,resources/videos_natural\training(15).mov,False,True,left,0,114,114,114,2018-10-08 13:07:10.802826,2018-10-08 13:07:14.773053,0:00:03.970227,3,right,0,0.3005415026548235,28,m,2,14,2018_Oct_08_1254,MP_PerceptionTuring2,59.93472935970312,
116,resources/videos_generated\model(vcgpdm)-dataset(walking)-mode(ELBO)-parts(2)-dyn(23)-lvm(22)_final(0).mov,resources/videos_natural\training(43).mov,True,True,left,0,115,115,115,2018-10-08 13:07:16.191134,2018-10-08 13:07:20.094358,0:00:03.903224,3,left,1,0.28378353145262736,28,m,2,14,2018_Oct_08_1254,MP_PerceptionTuring2,59.93472935970312,
117,resources/videos_generated\model(vcgpdm)-dataset(walking)-mode(ELBO)-parts(1)-dyn(27)-lvm(24)_final(6).mov,resources/videos_natural\training(26).mov,True,False,right,0,116,116,116,2018-10-08 13:07:21.495438,2018-10-08 13:07:25.465665,0:00:03.970227,3,right,1,2.168707290408747,28,m,2,14,2018_Oct_08_1254,MP_PerceptionTuring2,59.93472935970312,
118,resources/videos_generated\model(vcgpdm)-dataset(walking)-mode(ELBO)-parts(1)-dyn(23)-lvm(22)_final(6)_fail.mov,resources/videos_natural\training(25).mov,False,True,left,0,117,117,117,2018-10-08 13:07:28.751853,2018-10-08 13:07:32.705079,0:00:03.953226,3,left,1,0.2838799056737571,28,m,2,14,2018_Oct_08_1254,MP_PerceptionTuring2,59.93472935970312,
119,resources/videos_generated\model(vcgpdm)-dataset(walking)-mode(ELBO)-parts(1)-dyn(25)-lvm(24)_final(2).mov,resources/videos_natural\training(9).mov,False,False,right,0,118,118,118,2018-10-08 13:07:34.106159,2018-10-08 13:07:38.009382,0:00:03.903223,3,right,1,0.23384451826450459,28,m,2,14,2018_Oct_08_1254,MP_PerceptionTuring2,59.93472935970312,
120,resources/videos_generated\model(vcgpdm)-dataset(walking)-mode(ELBO)-parts(1)-dyn(25)-lvm(28)_final(5).mov,resources/videos_natural\training(34).mov,False,True,left,0,119,119,119,2018-10-08 13:07:39.361460,2018-10-08 13:07:43.264683,0:00:03.903223,3,right,0,0.5339929947988367,28,m,2,14,2018_Oct_08_1254,MP_PerceptionTuring2,59.93472935970312,
121,resources/videos_generated\model(vcgpdm)-dataset(walking)-mode(ELBO)-parts(2)-dyn(22)-lvm(17)_final(0).mov,resources/videos_natural\training(3).mov,False,False,right,0,120,120,120,2018-10-08 13:07:44.915777,2018-10-08 13:07:48.802000,0:00:03.886223,3,right,1,0.21711395348143014,28,m,2,14,2018_Oct_08_1254,MP_PerceptionTuring2,59.93472935970312,
122,resources/videos_generated\model(vcgpdm)-dataset(walking)-mode(ELBO)-parts(2)-dyn(22)-lvm(17)_final(8).mov,resources/videos_natural\training(9).mov,True,False,right,0,121,121,121,2018-10-08 13:07:50.137076,2018-10-08 13:07:54.057300,0:00:03.920224,3,left,0,0.2673101653720096,28,m,2,14,2018_Oct_08_1254,MP_PerceptionTuring2,59.93472935970312,
123,resources/videos_generated\model(vcgpdm)-dataset(walking)-mode(ELBO)-parts(1)-dyn(26)-lvm(25)_final(6).mov,resources/videos_natural\training(5).mov,False,True,left,0,122,122,122,2018-10-08 13:07:55.441379,2018-10-08 13:07:59.378604,0:00:03.937225,3,left,1,0.06697918015674986,28,m,2,14,2018_Oct_08_1254,MP_PerceptionTuring2,59.93472935970312,
124,resources/videos_generated\model(vcgpdm)-dataset(walking)-mode(ELBO)-parts(1)-dyn(25)-lvm(22)_final(3).mov,resources/videos_natural\training(29).mov,True,False,right,0,123,123,123,2018-10-08 13:08:00.562672,2018-10-08 13:08:04.499897,0:00:03.937225,3,right,1,0.2837142624812259,28,m,2,14,2018_Oct_08_1254,MP_PerceptionTuring2,59.93472935970312,
125,resources/videos_generated\model(vcgpdm)-dataset(walking)-mode(ELBO)-parts(1)-dyn(25)-lvm(22)_final(7).mov,resources/videos_natural\training(28).mov,False,False,right,0,124,124,124,2018-10-08 13:08:05.900978,2018-10-08 13:08:09.804201,0:00:03.903223,3,right,1,0.48402265998879557,28,m,2,14,2018_Oct_08_1254,MP_PerceptionTuring2,59.93472935970312,
126,resources/videos_generated\model(tmp)-dataset(walking)-numprim(12)_final(5).mov,resources/videos_natural\training(37).mov,False,True,left,0,125,125,125,2018-10-08 13:08:11.405292,2018-10-08 13:08:15.308516,0:00:03.903224,3,right,0,0.40046681263333994,28,m,2,14,2018_Oct_08_1254,MP_PerceptionTuring2,59.93472935970312,
127,resources/videos_generated\model(vcgpdm)-dataset(walking)-mode(ELBO)-parts(2)-dyn(24)-lvm(21)_final(0).mov,resources/videos_natural\training(23).mov,False,False,right,0,126,126,126,2018-10-08 13:08:16.826602,2018-10-08 13:08:20.879834,0:00:04.053232,3,right,1,0.35053412400338857,28,m,2,14,2018_Oct_08_1254,MP_PerceptionTuring2,59.93472935970312,
128,resources/videos_generated\model(vcgpdm)-dataset(walking)-mode(ELBO)-parts(1)-dyn(27)-lvm(24)_final(2).mov,resources/videos_natural\training(6).mov,False,False,right,0,127,127,127,2018-10-08 13:08:22.347918,2018-10-08 13:08:26.301144,0:00:03.953226,3,left,0,0.31727718731849563,28,m,2,14,2018_Oct_08_1254,MP_PerceptionTuring2,59.93472935970312,
129,resources/videos_generated\model(vcgpdm)-dataset(walking)-mode(ELBO)-parts(2)-dyn(26)-lvm(21)_final(0).mov,resources/videos_natural\training(1).mov,False,True,left,0,128,128,128,2018-10-08 13:08:27.736226,2018-10-08 13:08:31.639450,0:00:03.903224,3,right,0,0.3173283861233358,28,m,2,14,2018_Oct_08_1254,MP_PerceptionTuring2,59.93472935970312,
130,resources/videos_generated\model(vcgpdm)-dataset(walking)-mode(ELBO)-parts(1)-dyn(22)-lvm(27)_final(9)_hip-corrected.mov,resources/videos_natural\training(17).mov,True,False,right,0,129,129,129,2018-10-08 13:08:33.074532,2018-10-08 13:08:36.977755,0:00:03.903223,3,left,0,0.3839570050506609,28,m,2,14,2018_Oct_08_1254,MP_PerceptionTuring2,59.93472935970312,
131,resources/videos_generated\model(vcgpdm)-dataset(walking)-mode(ELBO)-parts(1)-dyn(28)-lvm(25)_final(2).mov,resources/videos_natural\training(34).mov,False,False,right,0,130,130,130,2018-10-08 13:08:38.478841,2018-10-08 13:08:42.549074,0:00:04.070233,3,right,1,0.4506868169100926,28,m,2,14,2018_Oct_08_1254,MP_PerceptionTuring2,59.93472935970312,
132,resources/videos_generated\model(vcgpdm)-dataset(walking)-mode(ELBO)-parts(1)-dyn(25)-lvm(26)_final(3)_fail.mov,resources/videos_natural\training(34).mov,False,False,right,0,131,131,131,2018-10-08 13:08:44.117163,2018-10-08 13:08:48.153394,0:00:04.036231,3,right,1,0.4673294402164174,28,m,2,14,2018_Oct_08_1254,MP_PerceptionTuring2,59.93472935970312,
133,resources/videos_generated\model(dmp)-dataset(walking)-npsi(90)_final(1).mov,resources/videos_natural\training(43).mov,True,False,right,0,132,132,132,2018-10-08 13:08:49.738485,2018-10-08 13:08:53.675710,0:00:03.937225,3,left,0,0.31711786868390845,28,m,2,14,2018_Oct_08_1254,MP_PerceptionTuring2,59.93472935970312,
134,resources/videos_generated\model(vcgpdm)-dataset(walking)-mode(ELBO)-parts(2)-dyn(23)-lvm(18)_final(6).mov,resources/videos_natural\training(46).mov,False,True,left,0,133,133,133,2018-10-08 13:08:55.109792,2018-10-08 13:08:59.097020,0:00:03.987228,3,left,1,0.25055671171139693,28,m,2,14,2018_Oct_08_1254,MP_PerceptionTuring2,59.93472935970312,
135,resources/videos_generated\model(vcgpdm)-dataset(walking)-mode(ELBO)-parts(1)-dyn(28)-lvm(23)_final(8).mov,resources/videos_natural\training(41).mov,True,False,right,0,134,134,134,2018-10-08 13:09:00.464098,2018-10-08 13:09:04.351321,0:00:03.887223,3,right,1,0.31736151476184205,28,m,2,14,2018_Oct_08_1254,MP_PerceptionTuring2,59.93472935970312,
136,resources/videos_generated\model(vcgpdm)-dataset(walking)-mode(ELBO)-parts(1)-dyn(27)-lvm(22)_final(2).mov,resources/videos_natural\training(46).mov,False,False,right,0,135,135,135,2018-10-08 13:09:38.597279,2018-10-08 13:09:42.567507,0:00:03.970228,4,left,0,0.250350410644387,28,m,2,14,2018_Oct_08_1254,MP_PerceptionTuring2,59.93472935970312,
137,resources/videos_generated\model(vcgpdm)-dataset(walking)-mode(ELBO)-parts(2)-dyn(24)-lvm(23)_final(2).mov,resources/videos_natural\training(2).mov,True,False,right,0,136,136,136,2018-10-08 13:09:43.935585,2018-10-08 13:09:48.038819,0:00:04.103234,4,left,0,0.3004848827999922,28,m,2,14,2018_Oct_08_1254,MP_PerceptionTuring2,59.93472935970312,
138,resources/videos_generated\model(vcgpdm)-dataset(walking)-mode(ELBO)-parts(2)-dyn(28)-lvm(21)_final(8).mov,resources/videos_natural\training(14).mov,False,True,left,0,137,137,137,2018-10-08 13:09:49.456901,2018-10-08 13:09:53.460130,0:00:04.003229,4,left,1,0.28389887934849867,28,m,2,14,2018_Oct_08_1254,MP_PerceptionTuring2,59.93472935970312,
139,resources/videos_generated\model(vcgpdm)-dataset(walking)-mode(ELBO)-parts(1)-dyn(23)-lvm(28)_final(1).mov,resources/videos_natural\training(29).mov,True,False,right,0,138,138,138,2018-10-08 13:09:54.861210,2018-10-08 13:09:58.764433,0:00:03.903223,4,right,1,0.46738666241026294,28,m,2,14,2018_Oct_08_1254,MP_PerceptionTuring2,59.93472935970312,
140,resources/videos_generated\model(vcgpdm)-dataset(walking)-mode(ELBO)-parts(1)-dyn(22)-lvm(27)_final(7)_hip-corrected.mov,resources/videos_natural\training(27).mov,False,True,left,0,139,139,139,2018-10-08 13:10:00.349524,2018-10-08 13:10:04.236746,0:00:03.887222,4,right,0,0.5006592599063424,28,m,2,14,2018_Oct_08_1254,MP_PerceptionTuring2,59.93472935970312,
141,resources/videos_generated\model(vcgpdm)-dataset(walking)-mode(ELBO)-parts(2)-dyn(27)-lvm(20)_final(0).mov,resources/videos_natural\training(21).mov,False,False,right,0,140,140,140,2018-10-08 13:10:05.854839,2018-10-08 13:10:09.891069,0:00:04.036230,4,left,0,0.25040793400762595,28,m,2,14,2018_Oct_08_1254,MP_PerceptionTuring2,59.93472935970312,
142,resources/videos_generated\model(vcgpdm)-dataset(walking)-mode(ELBO)-parts(2)-dyn(26)-lvm(23)_final(8).mov,resources/videos_natural\training(7).mov,True,True,left,0,141,141,141,2018-10-08 13:10:11.259148,2018-10-08 13:10:15.346381,0:00:04.087233,4,left,1,0.417282307198775,28,m,2,14,2018_Oct_08_1254,MP_PerceptionTuring2,59.93472935970312,
143,resources/videos_generated\model(vcgpdm)-dataset(walking)-mode(ELBO)-parts(1)-dyn(24)-lvm(25)_final(3).mov,resources/videos_natural\training(16).mov,True,False,right,0,142,142,142,2018-10-08 13:10:16.880469,2018-10-08 13:10:20.967703,0:00:04.087234,4,right,1,0.26713970346872884,28,m,2,14,2018_Oct_08_1254,MP_PerceptionTuring2,59.93472935970312,
144,resources/videos_generated\model(vcgpdm)-dataset(walking)-mode(ELBO)-parts(1)-dyn(23)-lvm(22)_final(2).mov,resources/videos_natural\training(32).mov,False,False,right,0,143,143,143,2018-10-08 13:10:22.351782,2018-10-08 13:10:26.305008,0:00:03.953226,4,left,0,0.30161456937275943,28,m,2,14,2018_Oct_08_1254,MP_PerceptionTuring2,59.93472935970312,
145,resources/videos_generated\model(vcgpdm)-dataset(walking)-mode(ELBO)-parts(1)-dyn(22)-lvm(23)_final(5).mov,resources/videos_natural\training(0).mov,True,False,right,0,144,144,144,2018-10-08 13:10:27.723089,2018-10-08 13:10:31.660315,0:00:03.937226,4,right,1,0.35059405672222965,28,m,2,14,2018_Oct_08_1254,MP_PerceptionTuring2,59.93472935970312,
146,resources/videos_generated\model(vcgpdm)-dataset(walking)-mode(ELBO)-parts(1)-dyn(27)-lvm(28)_final(6).mov,resources/videos_natural\training(42).mov,True,False,right,0,145,145,145,2018-10-08 13:10:33.127398,2018-10-08 13:10:37.047623,0:00:03.920225,4,right,1,0.2170416728154123,28,m,2,14,2018_Oct_08_1254,MP_PerceptionTuring2,59.93472935970312,
147,resources/videos_generated\model(vcgpdm)-dataset(walking)-mode(ELBO)-parts(1)-dyn(22)-lvm(22)_final(1).mov,resources/videos_natural\training(10).mov,True,True,left,0,146,146,146,2018-10-08 13:10:38.382699,2018-10-08 13:10:42.468933,0:00:04.086234,4,left,1,0.283865449540599,28,m,2,14,2018_Oct_08_1254,MP_PerceptionTuring2,59.93472935970312,
148,resources/videos_generated\model(dmp)-dataset(walking)-npsi(70)_final(5).mov,resources/videos_natural\training(1).mov,True,True,left,0,147,147,147,2018-10-08 13:10:43.871013,2018-10-08 13:10:47.790237,0:00:03.919224,4,left,1,0.2671758438013967,28,m,2,14,2018_Oct_08_1254,MP_PerceptionTuring2,59.93472935970312,
149,resources/videos_generated\model(vcgpdm)-dataset(walking)-mode(ELBO)-parts(2)-dyn(24)-lvm(23)_final(0).mov,resources/videos_natural\training(0).mov,True,True,left,0,148,148,148,2018-10-08 13:10:49.175316,2018-10-08 13:10:53.078540,0:00:03.903224,4,left,1,0.4338755387168476,28,m,2,14,2018_Oct_08_1254,MP_PerceptionTuring2,59.93472935970312,
150,resources/videos_generated\model(vcgpdm)-dataset(walking)-mode(ELBO)-parts(1)-dyn(27)-lvm(22)_final(0).mov,resources/videos_natural\training(36).mov,True,False,right,0,149,149,149,2018-10-08 13:10:54.629628,2018-10-08 13:10:58.582854,0:00:03.953226,4,left,0,0.350590141519433,28,m,2,14,2018_Oct_08_1254,MP_PerceptionTuring2,59.93472935970312,
151,resources/videos_generated\model(vcgpdm)-dataset(walking)-mode(ELBO)-parts(2)-dyn(27)-lvm(20)_final(6).mov,resources/videos_natural\training(4).mov,False,True,left,0,150,150,150,2018-10-08 13:11:00.050938,2018-10-08 13:11:03.971163,0:00:03.920225,4,right,0,0.3838955664846253,28,m,2,14,2018_Oct_08_1254,MP_PerceptionTuring2,59.93472935970312,
152,resources/videos_generated\model(vcgpdm)-dataset(walking)-mode(ELBO)-parts(2)-dyn(28)-lvm(23)_final(4)_fail.mov,resources/videos_natural\training(17).mov,False,True,left,0,151,151,151,2018-10-08 13:11:05.472248,2018-10-08 13:11:09.459476,0:00:03.987228,4,left,1,0.3005062658303359,28,m,2,14,2018_Oct_08_1254,MP_PerceptionTuring2,59.93472935970312,
153,resources/videos_generated\model(vcgpdm)-dataset(walking)-mode(ELBO)-parts(2)-dyn(25)-lvm(18)_final(4).mov,resources/videos_natural\training(25).mov,True,False,right,0,152,152,152,2018-10-08 13:11:10.877558,2018-10-08 13:11:14.947790,0:00:04.070232,4,right,1,0.3006369733675456,28,m,2,14,2018_Oct_08_1254,MP_PerceptionTuring2,59.93472935970312,
154,resources/videos_generated\model(vcgpdm)-dataset(walking)-mode(ELBO)-parts(2)-dyn(22)-lvm(23)_final(8).mov,resources/videos_natural\training(43).mov,False,False,right,0,153,153,153,2018-10-08 13:11:16.364871,2018-10-08 13:11:20.285096,0:00:03.920225,4,right,1,0.21707660847073385,28,m,2,14,2018_Oct_08_1254,MP_PerceptionTuring2,59.93472935970312,
155,resources/videos_generated\model(vcgpdm)-dataset(walking)-mode(ELBO)-parts(1)-dyn(23)-lvm(28)_final(5).mov,resources/videos_natural\training(5).mov,True,True,left,0,154,154,154,2018-10-08 13:11:21.620172,2018-10-08 13:11:25.573398,0:00:03.953226,4,left,1,0.33394029014652915,28,m,2,14,2018_Oct_08_1254,MP_PerceptionTuring2,59.93472935970312,
156,resources/videos_generated\model(vcgpdm)-dataset(walking)-mode(ELBO)-parts(1)-dyn(23)-lvm(24)_final(4).mov,resources/videos_natural\training(39).mov,True,False,right,0,155,155,155,2018-10-08 13:11:27.024481,2018-10-08 13:11:31.111715,0:00:04.087234,4,right,1,0.3506452555270698,28,m,2,14,2018_Oct_08_1254,MP_PerceptionTuring2,59.93472935970312,
157,resources/videos_generated\model(vcgpdm)-dataset(walking)-mode(ELBO)-parts(2)-dyn(22)-lvm(19)_final(8).mov,resources/videos_natural\training(26).mov,False,False,right,0,156,156,156,2018-10-08 13:11:32.579799,2018-10-08 13:11:36.516024,0:00:03.936225,4,right,1,0.31736452645623103,28,m,2,14,2018_Oct_08_1254,MP_PerceptionTuring2,59.93472935970312,
158,resources/videos_generated\model(vcgpdm)-dataset(walking)-mode(ELBO)-parts(1)-dyn(25)-lvm(22)_final(9).mov,resources/videos_natural\training(14).mov,False,False,right,0,157,157,157,2018-10-08 13:11:37.950106,2018-10-08 13:11:41.987337,0:00:04.037231,4,right,1,0.2504525070851287,28,m,2,14,2018_Oct_08_1254,MP_PerceptionTuring2,59.93472935970312,
159,resources/videos_generated\model(vcgpdm)-dataset(walking)-mode(ELBO)-parts(1)-dyn(26)-lvm(25)_final(2).mov,resources/videos_natural\training(39).mov,True,False,right,0,158,158,158,2018-10-08 13:11:43.355415,2018-10-08 13:11:47.358644,0:00:04.003229,4,right,1,0.33392071413300073,28,m,2,14,2018_Oct_08_1254,MP_PerceptionTuring2,59.93472935970312,
160,resources/videos_generated\model(vcgpdm)-dataset(walking)-mode(ELBO)-parts(2)-dyn(24)-lvm(23)_final(6).mov,resources/videos_natural\training(3).mov,True,True,left,0,159,159,159,2018-10-08 13:11:48.809727,2018-10-08 13:11:52.813956,0:00:04.004229,4,left,1,0.36728456596961223,28,m,2,14,2018_Oct_08_1254,MP_PerceptionTuring2,59.93472935970312,
161,resources/videos_generated\model(dmp)-dataset(walking)-npsi(50)_final(5).mov,resources/videos_natural\training(45).mov,True,False,right,0,160,160,160,2018-10-08 13:11:54.298041,2018-10-08 13:11:58.218265,0:00:03.920224,4,left,0,0.30040085652581183,28,m,2,14,2018_Oct_08_1254,MP_PerceptionTuring2,59.93472935970312,
162,resources/videos_generated\model(tmp)-dataset(walking)-numprim(11)_final(3).mov,resources/videos_natural\training(41).mov,False,True,left,0,161,161,161,2018-10-08 13:11:59.636346,2018-10-08 13:12:03.739581,0:00:04.103235,4,right,0,0.25045039889891996,28,m,2,14,2018_Oct_08_1254,MP_PerceptionTuring2,59.93472935970312,
163,resources/videos_generated\model(vcgpdm)-dataset(walking)-mode(ELBO)-parts(1)-dyn(26)-lvm(27)_final(8).mov,resources/videos_natural\training(47).mov,True,False,right,0,162,162,162,2018-10-08 13:12:05.107659,2018-10-08 13:12:09.027884,0:00:03.920225,4,right,1,0.6841852914867559,28,m,2,14,2018_Oct_08_1254,MP_PerceptionTuring2,59.93472935970312,
164,resources/videos_generated\model(vcgpdm)-dataset(walking)-mode(ELBO)-parts(2)-dyn(26)-lvm(21)_final(8).mov,resources/videos_natural\training(4).mov,False,False,right,0,163,163,163,2018-10-08 13:12:10.828987,2018-10-08 13:12:14.732210,0:00:03.903223,4,right,1,0.41722749436053164,28,m,2,14,2018_Oct_08_1254,MP_PerceptionTuring2,59.93472935970312,
165,resources/videos_generated\model(tmp)-dataset(walking)-numprim(14)_final(5).mov,resources/videos_natural\training(11).mov,False,False,right,0,164,164,164,2018-10-08 13:12:16.267298,2018-10-08 13:12:20.187522,0:00:03.920224,4,left,0,0.4505181620231724,28,m,2,14,2018_Oct_08_1254,MP_PerceptionTuring2,59.93472935970312,
166,resources/videos_generated\model(vcgpdm)-dataset(walking)-mode(ELBO)-parts(1)-dyn(26)-lvm(25)_final(4).mov,resources/videos_natural\training(38).mov,False,False,right,0,165,165,165,2018-10-08 13:12:21.755612,2018-10-08 13:12:25.641834,0:00:03.886222,4,right,1,0.33378127268179014,28,m,2,14,2018_Oct_08_1254,MP_PerceptionTuring2,59.93472935970312,
167,resources/videos_generated\model(vcgpdm)-dataset(walking)-mode(ELBO)-parts(1)-dyn(25)-lvm(28)_final(1).mov,resources/videos_natural\training(27).mov,True,True,left,0,166,166,166,2018-10-08 13:12:27.092917,2018-10-08 13:12:30.996140,0:00:03.903223,4,left,1,0.3172829095376528,28,m,2,14,2018_Oct_08_1254,MP_PerceptionTuring2,59.93472935970312,
168,resources/videos_generated\model(vcgpdm)-dataset(walking)-mode(ELBO)-parts(1)-dyn(23)-lvm(28)_final(9).mov,resources/videos_natural\training(11).mov,False,False,right,0,167,167,167,2018-10-08 13:12:32.431222,2018-10-08 13:12:36.334445,0:00:03.903223,4,right,1,0.28385792030462653,28,m,2,14,2018_Oct_08_1254,MP_PerceptionTuring2,59.93472935970312,
169,resources/videos_generated\model(dmp)-dataset(walking)-npsi(80)_final(1).mov,resources/videos_natural\training(47).mov,True,True,left,0,168,168,168,2018-10-08 13:12:37.735526,2018-10-08 13:12:41.605747,0:00:03.870221,4,right,0,0.3005637891933475,28,m,2,14,2018_Oct_08_1254,MP_PerceptionTuring2,59.93472935970312,
170,resources/videos_generated\model(vcgpdm)-dataset(walking)-mode(ELBO)-parts(2)-dyn(22)-lvm(21)_final(2).mov,resources/videos_natural\training(9).mov,True,False,right,0,169,169,169,2018-10-08 13:12:43.023828,2018-10-08 13:12:46.944052,0:00:03.920224,4,left,0,0.28377690572483516,28,m,2,14,2018_Oct_08_1254,MP_PerceptionTuring2,59.93472935970312,
171,resources/videos_generated\model(vcgpdm)-dataset(walking)-mode(ELBO)-parts(1)-dyn(28)-lvm(27)_final(0).mov,resources/videos_natural\training(43).mov,False,True,left,0,170,170,170,2018-10-08 13:12:48.345132,2018-10-08 13:12:52.248356,0:00:03.903224,4,left,1,0.3338339773338248,28,m,2,14,2018_Oct_08_1254,MP_PerceptionTuring2,59.93472935970312,
172,resources/videos_generated\model(vcgpdm)-dataset(walking)-mode(ELBO)-parts(1)-dyn(22)-lvm(22)_final(7).mov,resources/videos_natural\training(27).mov,False,True,left,0,171,171,171,2018-10-08 13:12:53.699439,2018-10-08 13:12:57.636664,0:00:03.937225,4,right,0,0.5174069913473431,28,m,2,14,2018_Oct_08_1254,MP_PerceptionTuring2,59.93472935970312,
173,resources/videos_generated\model(vcgpdm)-dataset(walking)-mode(ELBO)-parts(1)-dyn(27)-lvm(28)_final(8).mov,resources/videos_natural\training(2).mov,False,False,right,0,172,172,172,2018-10-08 13:12:59.270757,2018-10-08 13:13:03.173981,0:00:03.903224,4,right,1,0.3172762838098606,28,m,2,14,2018_Oct_08_1254,MP_PerceptionTuring2,59.93472935970312,
174,resources/videos_generated\model(tmp)-dataset(walking)-numprim(12)_final(7).mov,resources/videos_natural\training(36).mov,False,True,left,0,173,173,173,2018-10-08 13:13:04.609063,2018-10-08 13:13:08.512286,0:00:03.903223,4,right,0,0.2838034086357766,28,m,2,14,2018_Oct_08_1254,MP_PerceptionTuring2,59.93472935970312,
175,resources/videos_generated\model(vcgpdm)-dataset(walking)-mode(ELBO)-parts(1)-dyn(26)-lvm(23)_final(0).mov,resources/videos_natural\training(27).mov,False,False,right,0,174,174,174,2018-10-08 13:13:09.913366,2018-10-08 13:13:13.833590,0:00:03.920224,4,right,1,0.4005746312932388,28,m,2,14,2018_Oct_08_1254,MP_PerceptionTuring2,59.93472935970312,
176,resources/videos_generated\model(vcgpdm)-dataset(walking)-mode(ELBO)-parts(1)-dyn(25)-lvm(24)_final(8).mov,resources/videos_natural\training(42).mov,False,True,left,0,175,175,175,2018-10-08 13:13:15.351677,2018-10-08 13:13:19.271901,0:00:03.920224,4,right,0,0.5340393748929273,28,m,2,14,2018_Oct_08_1254,MP_PerceptionTuring2,59.93472935970312,
177,resources/videos_generated\model(vcgpdm)-dataset(walking)-mode(ELBO)-parts(2)-dyn(28)-lvm(21)_final(2).mov,resources/videos_natural\training(16).mov,False,False,right,0,176,176,176,2018-10-08 13:13:20.922996,2018-10-08 13:13:24.826219,0:00:03.903223,4,right,1,0.3672008408648253,28,m,2,14,2018_Oct_08_1254,MP_PerceptionTuring2,59.93472935970312,
178,resources/videos_generated\model(vcgpdm)-dataset(walking)-mode(ELBO)-parts(1)-dyn(22)-lvm(27)_final(5)_fail.mov,resources/videos_natural\training(46).mov,True,False,right,0,177,177,177,2018-10-08 13:13:26.311304,2018-10-08 13:13:30.247529,0:00:03.936225,4,right,1,0.3506961531629713,28,m,2,14,2018_Oct_08_1254,MP_PerceptionTuring2,59.93472935970312,
179,resources/videos_generated\model(dmp)-dataset(walking)-npsi(80)_final(3).mov,resources/videos_natural\training(38).mov,False,False,right,0,178,178,178,2018-10-08 13:13:31.715613,2018-10-08 13:13:35.652838,0:00:03.937225,4,left,0,0.26712494616594995,28,m,2,14,2018_Oct_08_1254,MP_PerceptionTuring2,59.93472935970312,
180,resources/videos_generated\model(tmp)-dataset(walking)-numprim(15)_final(3).mov,resources/videos_natural\training(11).mov,True,False,right,0,179,179,179,2018-10-08 13:13:37.036917,2018-10-08 13:13:40.957142,0:00:03.920225,4,left,0,0.28377630338582094,28,m,2,14,2018_Oct_08_1254,MP_PerceptionTuring2,59.93472935970312,
181,resources/videos_generated\model(vcgpdm)-dataset(walking)-mode(ELBO)-parts(2)-dyn(23)-lvm(20)_final(4).mov,resources/videos_natural\training(11).mov,False,False,right,0,180,180,180,2018-10-08 13:14:13.702015,2018-10-08 13:14:17.822250,0:00:04.120235,5,left,0,0.5506826005375842,28,m,2,14,2018_Oct_08_1254,MP_PerceptionTuring2,59.93472935970312,
182,resources/videos_generated\model(vcgpdm)-dataset(walking)-mode(ELBO)-parts(2)-dyn(27)-lvm(22)_final(4).mov,resources/videos_natural\training(7).mov,False,False,right,0,181,181,181,2018-10-08 13:14:19.490346,2018-10-08 13:14:23.393569,0:00:03.903223,5,right,1,0.2504094398550478,28,m,2,14,2018_Oct_08_1254,MP_PerceptionTuring2,59.93472935970312,
183,resources/videos_generated\model(vcgpdm)-dataset(walking)-mode(ELBO)-parts(2)-dyn(22)-lvm(23)_final(2).mov,resources/videos_natural\training(15).mov,False,False,right,0,182,182,182,2018-10-08 13:14:24.761647,2018-10-08 13:14:28.864882,0:00:04.103235,5,right,1,0.3340417842482566,28,m,2,14,2018_Oct_08_1254,MP_PerceptionTuring2,59.93472935970312,
184,resources/videos_generated\model(vcgpdm)-dataset(walking)-mode(ELBO)-parts(1)-dyn(25)-lvm(25)_final(7).mov,resources/videos_natural\training(48).mov,False,True,left,0,183,183,183,2018-10-08 13:14:30.315965,2018-10-08 13:14:34.203187,0:00:03.887222,5,right,0,0.2504747936231979,28,m,2,14,2018_Oct_08_1254,MP_PerceptionTuring2,59.93472935970312,
185,resources/videos_generated\model(vcgpdm)-dataset(walking)-mode(ELBO)-parts(2)-dyn(28)-lvm(23)_final(0).mov,resources/videos_natural\training(37).mov,False,True,left,0,184,184,184,2018-10-08 13:14:35.571265,2018-10-08 13:14:39.474489,0:00:03.903224,5,right,0,0.23382012353977188,28,m,2,14,2018_Oct_08_1254,MP_PerceptionTuring2,59.93472935970312,
186,resources/videos_generated\model(vcgpdm)-dataset(walking)-mode(ELBO)-parts(2)-dyn(25)-lvm(20)_final(4).mov,resources/videos_natural\training(8).mov,False,False,right,0,185,185,185,2018-10-08 13:14:40.825566,2018-10-08 13:14:44.895799,0:00:04.070233,5,left,0,0.2337812726818811,28,m,2,14,2018_Oct_08_1254,MP_PerceptionTuring2,59.93472935970312,
187,resources/videos_generated\model(vcgpdm)-dataset(walking)-mode(ELBO)-parts(2)-dyn(23)-lvm(22)_final(2).mov,resources/videos_natural\training(13).mov,False,False,right,0,186,186,186,2018-10-08 13:14:46.246876,2018-10-08 13:14:50.167100,0:00:03.920224,5,right,1,0.26711410406642244,28,m,2,14,2018_Oct_08_1254,MP_PerceptionTuring2,59.93472935970312,
188,resources/videos_generated\model(vcgpdm)-dataset(walking)-mode(ELBO)-parts(1)-dyn(28)-lvm(23)_final(6)_fail.mov,resources/videos_natural\training(38).mov,False,False,right,0,187,187,187,2018-10-08 13:14:51.551179,2018-10-08 13:14:55.471404,0:00:03.920225,5,right,1,0.3338348808420051,28,m,2,14,2018_Oct_08_1254,MP_PerceptionTuring2,59.93472935970312,
189,resources/videos_generated\model(vcgpdm)-dataset(walking)-mode(ELBO)-parts(2)-dyn(23)-lvm(20)_final(8).mov,resources/videos_natural\training(38).mov,True,True,left,0,188,188,188,2018-10-08 13:14:56.922487,2018-10-08 13:15:00.925716,0:00:04.003229,5,left,1,0.31715822538899374,28,m,2,14,2018_Oct_08_1254,MP_PerceptionTuring2,59.93472935970312,
190,resources/videos_generated\model(dmp)-dataset(walking)-npsi(70)_final(7).mov,resources/videos_natural\training(38).mov,True,True,left,0,189,189,189,2018-10-08 13:15:02.360798,2018-10-08 13:15:06.448031,0:00:04.087233,5,left,1,0.4839783880806863,28,m,2,14,2018_Oct_08_1254,MP_PerceptionTuring2,59.93472935970312,
191,resources/videos_generated\model(vcgpdm)-dataset(walking)-mode(ELBO)-parts(2)-dyn(26)-lvm(17)_final(4).mov,resources/videos_natural\training(10).mov,True,True,left,0,190,190,190,2018-10-08 13:15:08.049123,2018-10-08 13:15:12.102355,0:00:04.053232,5,left,1,0.6006481166368758,28,m,2,14,2018_Oct_08_1254,MP_PerceptionTuring2,59.93472935970312,
192,resources/videos_generated\model(vcgpdm)-dataset(walking)-mode(ELBO)-parts(1)-dyn(23)-lvm(22)_final(0).mov,resources/videos_natural\training(12).mov,False,False,right,0,191,191,191,2018-10-08 13:15:13.820453,2018-10-08 13:15:17.907687,0:00:04.087234,5,right,1,0.4006628739393818,28,m,2,14,2018_Oct_08_1254,MP_PerceptionTuring2,59.93472935970312,
193,resources/videos_generated\model(tmp)-dataset(walking)-numprim(11)_final(9).mov,resources/videos_natural\training(43).mov,True,False,right,0,192,192,192,2018-10-08 13:15:19.425774,2018-10-08 13:15:23.361999,0:00:03.936225,5,left,0,0.23365176982224511,28,m,2,14,2018_Oct_08_1254,MP_PerceptionTuring2,59.93472935970312,
194,resources/videos_generated\model(vcgpdm)-dataset(walking)-mode(ELBO)-parts(1)-dyn(25)-lvm(26)_final(1).mov,resources/videos_natural\training(45).mov,False,True,left,0,193,193,193,2018-10-08 13:15:24.713076,2018-10-08 13:15:28.633300,0:00:03.920224,5,right,0,0.38391785302337667,28,m,2,14,2018_Oct_08_1254,MP_PerceptionTuring2,59.93472935970312,
195,resources/videos_generated\model(vcgpdm)-dataset(walking)-mode(ELBO)-parts(2)-dyn(28)-lvm(21)_final(4).mov,resources/videos_natural\training(32).mov,False,False,right,0,194,194,194,2018-10-08 13:15:30.134386,2018-10-08 13:15:34.021609,0:00:03.887223,5,right,1,0.3507404250703985,28,m,2,14,2018_Oct_08_1254,MP_PerceptionTuring2,59.93472935970312,
196,resources/videos_generated\model(vcgpdm)-dataset(walking)-mode(ELBO)-parts(2)-dyn(23)-lvm(18)_final(4).mov,resources/videos_natural\training(6).mov,True,True,left,0,195,195,195,2018-10-08 13:15:35.489693,2018-10-08 13:15:39.475921,0:00:03.986228,5,left,1,0.28391996120944896,28,m,2,14,2018_Oct_08_1254,MP_PerceptionTuring2,59.93472935970312,
197,resources/videos_generated\model(vcgpdm)-dataset(walking)-mode(ELBO)-parts(1)-dyn(24)-lvm(27)_final(9).mov,resources/videos_natural\training(27).mov,False,True,left,0,196,196,196,2018-10-08 13:15:40.877001,2018-10-08 13:15:44.897231,0:00:04.020230,5,left,1,0.33383307382564453,28,m,2,14,2018_Oct_08_1254,MP_PerceptionTuring2,59.93472935970312,
198,resources/videos_generated\model(vcgpdm)-dataset(walking)-mode(ELBO)-parts(2)-dyn(26)-lvm(23)_final(6).mov,resources/videos_natural\training(6).mov,False,False,right,0,197,197,197,2018-10-08 13:15:46.348314,2018-10-08 13:15:50.285539,0:00:03.937225,5,right,1,0.21706275467658998,28,m,2,14,2018_Oct_08_1254,MP_PerceptionTuring2,59.93472935970312,
199,resources/videos_generated\model(vcgpdm)-dataset(walking)-mode(ELBO)-parts(2)-dyn(26)-lvm(17)_final(0).mov,resources/videos_natural\training(10).mov,False,False,right,0,198,198,198,2018-10-08 13:15:51.619615,2018-10-08 13:15:55.556840,0:00:03.937225,5,right,1,0.35051635500667544,28,m,2,14,2018_Oct_08_1254,MP_PerceptionTuring2,59.93472935970312,
200,resources/videos_generated\model(vcgpdm)-dataset(walking)-mode(ELBO)-parts(1)-dyn(24)-lvm(23)_final(1).mov,resources/videos_natural\training(31).mov,False,False,right,0,199,199,199,2018-10-08 13:15:57.024924,2018-10-08 13:16:00.995151,0:00:03.970227,5,left,0,0.6007718972773546,28,m,2,14,2018_Oct_08_1254,MP_PerceptionTuring2,59.93472935970312,
201,resources/videos_generated\model(vcgpdm)-dataset(walking)-mode(ELBO)-parts(1)-dyn(22)-lvm(28)_final(2).mov,resources/videos_natural\training(9).mov,False,False,right,0,200,200,200,2018-10-08 13:16:02.713250,2018-10-08 13:16:06.666476,0:00:03.953226,5,right,1,0.13358701839251808,28,m,2,14,2018_Oct_08_1254,MP_PerceptionTuring2,59.93472935970312,
202,resources/videos_generated\model(vcgpdm)-dataset(walking)-mode(ELBO)-parts(2)-dyn(23)-lvm(22)_final(4).mov,resources/videos_natural\training(24).mov,True,False,right,0,201,201,201,2018-10-08 13:16:07.917547,2018-10-08 13:16:11.937777,0:00:04.020230,5,right,1,0.3839112272953571,28,m,2,14,2018_Oct_08_1254,MP_PerceptionTuring2,59.93472935970312,
203,resources/videos_generated\model(vcgpdm)-dataset(walking)-mode(ELBO)-parts(1)-dyn(22)-lvm(25)_final(3).mov,resources/videos_natural\training(13).mov,False,True,left,0,202,202,202,2018-10-08 13:16:13.438863,2018-10-08 13:16:17.509096,0:00:04.070233,5,left,1,0.26712193447156096,28,m,2,14,2018_Oct_08_1254,MP_PerceptionTuring2,59.93472935970312,
204,resources/videos_generated\model(vcgpdm)-dataset(walking)-mode(ELBO)-parts(2)-dyn(27)-lvm(18)_final(8).mov,resources/videos_natural\training(16).mov,True,False,right,0,203,203,203,2018-10-08 13:16:18.893175,2018-10-08 13:16:22.813399,0:00:03.920224,5,right,1,0.4006836546309387,28,m,2,14,2018_Oct_08_1254,MP_PerceptionTuring2,59.93472935970312,
205,resources/videos_generated\model(vcgpdm)-dataset(walking)-mode(ELBO)-parts(2)-dyn(23)-lvm(18)_final(8).mov,resources/videos_natural\training(42).mov,True,True,left,0,204,204,204,2018-10-08 13:16:24.331486,2018-10-08 13:16:28.301713,0:00:03.970227,5,right,0,0.2504251006657796,28,m,2,14,2018_Oct_08_1254,MP_PerceptionTuring2,59.93472935970312,
206,resources/videos_generated\model(vcgpdm)-dataset(walking)-mode(ELBO)-parts(1)-dyn(27)-lvm(24)_final(4).mov,resources/videos_natural\training(24).mov,True,True,left,0,205,205,205,2018-10-08 13:16:29.669791,2018-10-08 13:16:33.756025,0:00:04.086234,5,left,1,0.2670478467889552,28,m,2,14,2018_Oct_08_1254,MP_PerceptionTuring2,59.93472935970312,
207,resources/videos_generated\model(vcgpdm)-dataset(walking)-mode(ELBO)-parts(1)-dyn(22)-lvm(23)_final(1).mov,resources/videos_natural\training(37).mov,True,False,right,0,206,206,206,2018-10-08 13:16:35.141104,2018-10-08 13:16:39.194336,0:00:04.053232,5,right,1,0.25036456560837905,28,m,2,14,2018_Oct_08_1254,MP_PerceptionTuring2,59.93472935970312,
208,resources/videos_generated\model(dmp)-dataset(walking)-npsi(70)_final(3).mov,resources/videos_natural\training(37).mov,False,False,right,0,207,207,207,2018-10-08 13:16:40.562414,2018-10-08 13:16:44.682650,0:00:04.120236,5,right,1,0.23373398907961018,28,m,2,14,2018_Oct_08_1254,MP_PerceptionTuring2,59.93472935970312,
209,resources/videos_generated\model(vcgpdm)-dataset(walking)-mode(ELBO)-parts(1)-dyn(25)-lvm(22)_final(5).mov,resources/videos_natural\training(11).mov,False,False,right,0,208,208,208,2018-10-08 13:16:46.033727,2018-10-08 13:16:50.136962,0:00:04.103235,5,right,1,0.05023205105408124,28,m,2,14,2018_Oct_08_1254,MP_PerceptionTuring2,59.93472935970312,
210,resources/videos_generated\model(vcgpdm)-dataset(walking)-mode(ELBO)-parts(2)-dyn(25)-lvm(18)_final(6).mov,resources/videos_natural\training(15).mov,False,False,right,0,209,209,209,2018-10-08 13:16:51.305029,2018-10-08 13:16:55.225253,0:00:03.920224,5,right,1,0.21717358503065043,28,m,2,14,2018_Oct_08_1254,MP_PerceptionTuring2,59.93472935970312,
211,resources/videos_generated\model(tmp)-dataset(walking)-numprim(11)_final(7).mov,resources/videos_natural\training(24).mov,False,False,right,0,210,210,210,2018-10-08 13:16:56.559329,2018-10-08 13:17:00.529557,0:00:03.970228,5,right,1,0.2004451284337847,28,m,2,14,2018_Oct_08_1254,MP_PerceptionTuring2,59.93472935970312,
212,resources/videos_generated\model(vcgpdm)-dataset(walking)-mode(ELBO)-parts(2)-dyn(22)-lvm(21)_final(4).mov,resources/videos_natural\training(1).mov,True,True,left,0,211,211,211,2018-10-08 13:17:01.847632,2018-10-08 13:17:05.867862,0:00:04.020230,5,left,1,0.25043594276576187,28,m,2,14,2018_Oct_08_1254,MP_PerceptionTuring2,59.93472935970312,
213,resources/videos_generated\model(vcgpdm)-dataset(walking)-mode(ELBO)-parts(2)-dyn(25)-lvm(20)_final(6).mov,resources/videos_natural\training(25).mov,True,True,left,0,212,212,212,2018-10-08 13:17:07.234940,2018-10-08 13:17:11.339175,0:00:04.104235,5,right,0,0.2337150154048686,28,m,2,14,2018_Oct_08_1254,MP_PerceptionTuring2,59.93472935970312,
214,resources/videos_generated\model(vcgpdm)-dataset(walking)-mode(ELBO)-parts(2)-dyn(22)-lvm(17)_final(6).mov,resources/videos_natural\training(4).mov,False,True,left,0,213,213,213,2018-10-08 13:17:12.690252,2018-10-08 13:17:16.626477,0:00:03.936225,5,right,0,0.23386891298878254,28,m,2,14,2018_Oct_08_1254,MP_PerceptionTuring2,59.93472935970312,
215,resources/videos_generated\model(vcgpdm)-dataset(walking)-mode(ELBO)-parts(1)-dyn(24)-lvm(25)_final(9).mov,resources/videos_natural\training(40).mov,False,True,left,0,214,214,214,2018-10-08 13:17:17.977555,2018-10-08 13:17:21.997784,0:00:04.020229,5,left,1,0.2837811220970252,28,m,2,14,2018_Oct_08_1254,MP_PerceptionTuring2,59.93472935970312,
216,resources/videos_generated\model(vcgpdm)-dataset(walking)-mode(ELBO)-parts(1)-dyn(24)-lvm(27)_final(3).mov,resources/videos_natural\training(14).mov,False,True,left,0,215,215,215,2018-10-08 13:17:23.398865,2018-10-08 13:17:27.453096,0:00:04.054231,5,left,1,0.2336939335441457,28,m,2,14,2018_Oct_08_1254,MP_PerceptionTuring2,59.93472935970312,
217,resources/videos_generated\model(vcgpdm)-dataset(walking)-mode(ELBO)-parts(1)-dyn(23)-lvm(28)_final(3)_hip-corrected.mov,resources/videos_natural\training(19).mov,False,False,right,0,216,216,216,2018-10-08 13:17:28.804174,2018-10-08 13:17:32.724398,0:00:03.920224,5,right,1,0.2503778170635087,28,m,2,14,2018_Oct_08_1254,MP_PerceptionTuring2,59.93472935970312,
218,resources/videos_generated\model(vcgpdm)-dataset(walking)-mode(ELBO)-parts(1)-dyn(22)-lvm(23)_final(9).mov,resources/videos_natural\training(3).mov,True,False,right,0,217,217,217,2018-10-08 13:17:34.091476,2018-10-08 13:17:38.028701,0:00:03.937225,5,right,1,0.2504479895433178,28,m,2,14,2018_Oct_08_1254,MP_PerceptionTuring2,59.93472935970312,
219,resources/videos_generated\model(vcgpdm)-dataset(walking)-mode(ELBO)-parts(1)-dyn(23)-lvm(22)_final(4)_fail.mov,resources/videos_natural\training(27).mov,False,True,left,0,218,218,218,2018-10-08 13:17:39.396780,2018-10-08 13:17:43.483013,0:00:04.086233,5,left,1,0.33385024048402556,28,m,2,14,2018_Oct_08_1254,MP_PerceptionTuring2,59.93472935970312,
220,resources/videos_generated\model(vcgpdm)-dataset(walking)-mode(ELBO)-parts(2)-dyn(24)-lvm(19)_final(0).mov,resources/videos_natural\training(39).mov,False,True,left,0,219,219,219,2018-10-08 13:17:44.934096,2018-10-08 13:17:48.854321,0:00:03.920225,5,right,0,0.25036305976118456,28,m,2,14,2018_Oct_08_1254,MP_PerceptionTuring2,59.93472935970312,
221,resources/videos_generated\model(vcgpdm)-dataset(walking)-mode(ELBO)-parts(2)-dyn(23)-lvm(18)_final(2).mov,resources/videos_natural\training(2).mov,False,False,right,0,220,220,220,2018-10-08 13:17:50.222399,2018-10-08 13:17:54.159624,0:00:03.937225,5,right,1,0.31713112013949285,28,m,2,14,2018_Oct_08_1254,MP_PerceptionTuring2,59.93472935970312,
222,resources/videos_generated\model(vcgpdm)-dataset(walking)-mode(ELBO)-parts(1)-dyn(27)-lvm(26)_final(6).mov,resources/videos_natural\training(5).mov,False,True,left,0,221,221,221,2018-10-08 13:17:55.593706,2018-10-08 13:17:59.696941,0:00:04.103235,5,left,1,0.5339423983327833,28,m,2,14,2018_Oct_08_1254,MP_PerceptionTuring2,59.93472935970312,
223,resources/videos_generated\model(vcgpdm)-dataset(walking)-mode(ELBO)-parts(1)-dyn(23)-lvm(26)_final(2).mov,resources/videos_natural\training(18).mov,True,True,left,0,222,222,222,2018-10-08 13:18:01.349035,2018-10-08 13:18:05.252258,0:00:03.903223,5,right,0,0.15032420890292997,28,m,2,14,2018_Oct_08_1254,MP_PerceptionTuring2,59.93472935970312,
224,resources/videos_generated\model(vcgpdm)-dataset(walking)-mode(ELBO)-parts(2)-dyn(26)-lvm(21)_final(6).mov,resources/videos_natural\training(10).mov,True,False,right,0,223,223,223,2018-10-08 13:18:06.520331,2018-10-08 13:18:10.523560,0:00:04.003229,5,right,1,0.2171585265587055,28,m,2,14,2018_Oct_08_1254,MP_PerceptionTuring2,59.93472935970312,
225,resources/videos_generated\model(vcgpdm)-dataset(walking)-mode(ELBO)-parts(2)-dyn(24)-lvm(19)_final(8).mov,resources/videos_natural\training(7).mov,False,True,left,0,224,224,224,2018-10-08 13:18:11.857636,2018-10-08 13:18:15.844864,0:00:03.987228,5,right,0,0.23378307969824164,28,m,2,14,2018_Oct_08_1254,MP_PerceptionTuring2,59.93472935970312,
226,resources/videos_generated\model(vcgpdm)-dataset(walking)-mode(ELBO)-parts(2)-dyn(22)-lvm(19)_final(4).mov,resources/videos_natural\training(6).mov,True,False,right,0,225,225,225,2018-10-08 13:18:48.038706,2018-10-08 13:18:51.992932,0:00:03.954226,6,right,1,0.300497531916335,28,m,2,14,2018_Oct_08_1254,MP_PerceptionTuring2,59.93472935970312,
227,resources/videos_generated\model(vcgpdm)-dataset(walking)-mode(ELBO)-parts(1)-dyn(22)-lvm(22)_final(9).mov,resources/videos_natural\training(30).mov,False,True,left,0,226,226,226,2018-10-08 13:18:53.410013,2018-10-08 13:18:57.347238,0:00:03.937225,6,left,1,0.2837889525026185,28,m,2,14,2018_Oct_08_1254,MP_PerceptionTuring2,59.93472935970312,
228,resources/videos_generated\model(vcgpdm)-dataset(walking)-mode(ELBO)-parts(2)-dyn(23)-lvm(22)_final(6).mov,resources/videos_natural\training(9).mov,False,True,left,0,227,227,227,2018-10-08 13:18:58.748318,2018-10-08 13:19:02.818551,0:00:04.070233,6,left,1,0.23373820545157287,28,m,2,14,2018_Oct_08_1254,MP_PerceptionTuring2,59.93472935970312,
229,resources/videos_generated\model(vcgpdm)-dataset(walking)-mode(ELBO)-parts(2)-dyn(28)-lvm(17)_final(6).mov,resources/videos_natural\training(35).mov,False,False,right,0,228,228,228,2018-10-08 13:19:04.169628,2018-10-08 13:19:08.106854,0:00:03.937226,6,right,1,0.23386831065045044,28,m,2,14,2018_Oct_08_1254,MP_PerceptionTuring2,59.93472935970312,
230,resources/videos_generated\model(vcgpdm)-dataset(walking)-mode(ELBO)-parts(1)-dyn(26)-lvm(23)_final(6)_fail.mov,resources/videos_natural\training(19).mov,True,False,right,0,229,229,229,2018-10-08 13:19:09.457931,2018-10-08 13:19:13.411157,0:00:03.953226,6,right,1,0.28383894663011233,28,m,2,14,2018_Oct_08_1254,MP_PerceptionTuring2,59.93472935970312,
231,resources/videos_generated\model(vcgpdm)-dataset(walking)-mode(ELBO)-parts(1)-dyn(22)-lvm(23)_final(3)_fail.mov,resources/videos_natural\training(31).mov,True,True,left,0,230,230,230,2018-10-08 13:19:14.812237,2018-10-08 13:19:18.699459,0:00:03.887222,6,left,1,0.35064043681586554,28,m,2,14,2018_Oct_08_1254,MP_PerceptionTuring2,59.93472935970312,
232,resources/videos_generated\model(vcgpdm)-dataset(walking)-mode(ELBO)-parts(2)-dyn(24)-lvm(19)_final(6).mov,resources/videos_natural\training(26).mov,False,False,right,0,231,231,231,2018-10-08 13:19:20.166543,2018-10-08 13:19:24.220775,0:00:04.054232,6,left,0,0.2671442210098576,28,m,2,14,2018_Oct_08_1254,MP_PerceptionTuring2,59.93472935970312,
233,resources/videos_generated\model(vcgpdm)-dataset(walking)-mode(ELBO)-parts(2)-dyn(25)-lvm(18)_final(8).mov,resources/videos_natural\training(2).mov,True,False,right,0,232,232,232,2018-10-08 13:19:25.604854,2018-10-08 13:19:29.725090,0:00:04.120236,6,right,1,0.23380657091502144,28,m,2,14,2018_Oct_08_1254,MP_PerceptionTuring2,59.93472935970312,
234,resources/videos_generated\model(vcgpdm)-dataset(walking)-mode(ELBO)-parts(2)-dyn(27)-lvm(22)_final(2).mov,resources/videos_natural\training(41).mov,False,False,right,0,233,233,233,2018-10-08 13:19:31.076167,2018-10-08 13:19:35.129399,0:00:04.053232,6,right,1,0.2671345835883585,28,m,2,14,2018_Oct_08_1254,MP_PerceptionTuring2,59.93472935970312,
235,resources/videos_generated\model(vcgpdm)-dataset(walking)-mode(ELBO)-parts(1)-dyn(25)-lvm(28)_final(3).mov,resources/videos_natural\training(42).mov,True,False,right,0,234,234,234,2018-10-08 13:19:36.514478,2018-10-08 13:19:40.517707,0:00:04.003229,6,right,1,0.23363309731712434,28,m,2,14,2018_Oct_08_1254,MP_PerceptionTuring2,59.93472935970312,
236,resources/videos_generated\model(tmp)-dataset(walking)-numprim(12)_final(3).mov,resources/videos_natural\training(37).mov,True,False,right,0,235,235,235,2018-10-08 13:19:41.868785,2018-10-08 13:19:45.822011,0:00:03.953226,6,left,0,0.2672544490255859,28,m,2,14,2018_Oct_08_1254,MP_PerceptionTuring2,59.93472935970312,
237,resources/videos_generated\model(dmp)-dataset(walking)-npsi(60)_final(1).mov,resources/videos_natural\training(2).mov,False,False,right,0,236,236,236,2018-10-08 13:19:47.207090,2018-10-08 13:19:51.277323,0:00:04.070233,6,right,1,0.25042600417418726,28,m,2,14,2018_Oct_08_1254,MP_PerceptionTuring2,59.93472935970312,
238,resources/videos_generated\model(tmp)-dataset(walking)-numprim(13)_final(1).mov,resources/videos_natural\training(15).mov,False,True,left,0,237,237,237,2018-10-08 13:19:52.645401,2018-10-08 13:19:56.665631,0:00:04.020230,6,left,1,0.21709799150130493,28,m,2,14,2018_Oct_08_1254,MP_PerceptionTuring2,59.93472935970312,
239,resources/videos_generated\model(vcgpdm)-dataset(walking)-mode(ELBO)-parts(2)-dyn(28)-lvm(19)_final(8).mov,resources/videos_natural\training(46).mov,False,True,left,0,238,238,238,2018-10-08 13:19:57.999707,2018-10-08 13:20:02.052939,0:00:04.053232,6,right,0,0.03373459141857893,28,m,2,14,2018_Oct_08_1254,MP_PerceptionTuring2,59.93472935970312,
240,resources/videos_generated\model(vcgpdm)-dataset(walking)-mode(ELBO)-parts(2)-dyn(27)-lvm(22)_final(0).mov,resources/videos_natural\training(18).mov,False,True,left,0,239,239,239,2018-10-08 13:20:03.204005,2018-10-08 13:20:07.141230,0:00:03.937225,6,left,1,1.9352112251872313,28,m,2,14,2018_Oct_08_1254,MP_PerceptionTuring2,59.93472935970312,
241,resources/videos_generated\model(vcgpdm)-dataset(walking)-mode(ELBO)-parts(2)-dyn(27)-lvm(20)_final(4).mov,resources/videos_natural\training(12).mov,False,True,left,0,240,240,240,2018-10-08 13:20:10.193405,2018-10-08 13:20:14.096628,0:00:03.903223,6,right,0,0.26733576477454335,28,m,2,14,2018_Oct_08_1254,MP_PerceptionTuring2,59.93472935970312,
242,resources/videos_generated\model(vcgpdm)-dataset(walking)-mode(ELBO)-parts(2)-dyn(27)-lvm(18)_final(2).mov,resources/videos_natural\training(36).mov,True,False,right,0,241,241,241,2018-10-08 13:20:15.481707,2018-10-08 13:20:19.517938,0:00:04.036231,6,left,0,0.23365658853299465,28,m,2,14,2018_Oct_08_1254,MP_PerceptionTuring2,59.93472935970312,
243,resources/videos_generated\model(vcgpdm)-dataset(walking)-mode(ELBO)-parts(1)-dyn(26)-lvm(25)_final(8).mov,resources/videos_natural\training(35).mov,False,False,right,0,242,242,242,2018-10-08 13:20:20.869015,2018-10-08 13:20:24.989251,0:00:04.120236,6,right,1,0.4672791449197575,28,m,2,14,2018_Oct_08_1254,MP_PerceptionTuring2,59.93472935970312,
244,resources/videos_generated\model(tmp)-dataset(walking)-numprim(15)_final(7).mov,resources/videos_natural\training(46).mov,False,True,left,0,243,243,243,2018-10-08 13:20:26.574342,2018-10-08 13:20:30.511567,0:00:03.937225,6,right,0,0.4673511244159272,28,m,2,14,2018_Oct_08_1254,MP_PerceptionTuring2,59.93472935970312,
245,resources/videos_generated\model(vcgpdm)-dataset(walking)-mode(ELBO)-parts(2)-dyn(26)-lvm(19)_final(2).mov,resources/videos_natural\training(36).mov,True,False,right,0,244,244,244,2018-10-08 13:20:32.095657,2018-10-08 13:20:36.132888,0:00:04.037231,6,right,1,0.28384677703525085,28,m,2,14,2018_Oct_08_1254,MP_PerceptionTuring2,59.93472935970312,
246,resources/videos_generated\model(vcgpdm)-dataset(walking)-mode(ELBO)-parts(1)-dyn(28)-lvm(24)_final(5).mov,resources/videos_natural\training(47).mov,True,False,right,0,245,245,245,2018-10-08 13:20:37.533968,2018-10-08 13:20:41.621202,0:00:04.087234,6,right,1,0.36733335541885026,28,m,2,14,2018_Oct_08_1254,MP_PerceptionTuring2,59.93472935970312,
247,resources/videos_generated\model(dmp)-dataset(walking)-npsi(90)_final(5).mov,resources/videos_natural\training(40).mov,True,False,right,0,246,246,246,2018-10-08 13:20:43.105287,2018-10-08 13:20:47.025511,0:00:03.920224,6,left,0,0.26718518005418446,28,m,2,14,2018_Oct_08_1254,MP_PerceptionTuring2,59.93472935970312,
248,resources/videos_generated\model(vcgpdm)-dataset(walking)-mode(ELBO)-parts(1)-dyn(26)-lvm(27)_final(6).mov,resources/videos_natural\training(22).mov,True,False,right,0,247,247,247,2018-10-08 13:20:48.409591,2018-10-08 13:20:52.346816,0:00:03.937225,6,right,1,0.3171964739080977,28,m,2,14,2018_Oct_08_1254,MP_PerceptionTuring2,59.93472935970312,
249,resources/videos_generated\model(vcgpdm)-dataset(walking)-mode(ELBO)-parts(2)-dyn(26)-lvm(21)_final(2).mov,resources/videos_natural\training(25).mov,False,True,left,0,248,248,248,2018-10-08 13:20:53.780898,2018-10-08 13:20:57.701122,0:00:03.920224,6,right,0,0.4840115167194199,28,m,2,14,2018_Oct_08_1254,MP_PerceptionTuring2,59.93472935970312,
250,resources/videos_generated\model(vcgpdm)-dataset(walking)-mode(ELBO)-parts(2)-dyn(24)-lvm(17)_final(4).mov,resources/videos_natural\training(45).mov,False,False,right,0,249,249,249,2018-10-08 13:20:59.302214,2018-10-08 13:21:03.272441,0:00:03.970227,6,right,1,0.3339180036077778,28,m,2,14,2018_Oct_08_1254,MP_PerceptionTuring2,59.93472935970312,
251,resources/videos_generated\model(vcgpdm)-dataset(walking)-mode(ELBO)-parts(1)-dyn(28)-lvm(25)_final(8).mov,resources/videos_natural\training(48).mov,True,True,left,0,250,250,250,2018-10-08 13:21:04.723524,2018-10-08 13:21:08.643748,0:00:03.920224,6,left,1,0.5006460084505306,28,m,2,14,2018_Oct_08_1254,MP_PerceptionTuring2,59.93472935970312,
252,resources/videos_generated\model(tmp)-dataset(walking)-numprim(14)_final(7).mov,resources/videos_natural\training(31).mov,True,False,right,0,251,251,251,2018-10-08 13:21:10.261840,2018-10-08 13:21:14.349074,0:00:04.087234,6,left,0,0.38411301082078353,28,m,2,14,2018_Oct_08_1254,MP_PerceptionTuring2,59.93472935970312,
253,resources/videos_generated\model(vcgpdm)-dataset(walking)-mode(ELBO)-parts(1)-dyn(22)-lvm(27)_final(3)_fail.mov,resources/videos_natural\training(20).mov,True,False,right,0,252,252,252,2018-10-08 13:21:15.850160,2018-10-08 13:21:19.787385,0:00:03.937225,6,right,1,0.43404148307854484,28,m,2,14,2018_Oct_08_1254,MP_PerceptionTuring2,59.93472935970312,
254,resources/videos_generated\model(vcgpdm)-dataset(walking)-mode(ELBO)-parts(1)-dyn(27)-lvm(28)_final(4).mov,resources/videos_natural\training(28).mov,True,True,left,0,253,253,253,2018-10-08 13:21:21.338474,2018-10-08 13:21:25.241697,0:00:03.903223,6,left,1,0.5173434445955536,28,m,2,14,2018_Oct_08_1254,MP_PerceptionTuring2,59.93472935970312,
255,resources/videos_generated\model(vcgpdm)-dataset(walking)-mode(ELBO)-parts(1)-dyn(28)-lvm(27)_final(4).mov,resources/videos_natural\training(22).mov,True,False,right,0,254,254,254,2018-10-08 13:21:26.876791,2018-10-08 13:21:30.813016,0:00:03.936225,6,left,0,0.33398636907122636,28,m,2,14,2018_Oct_08_1254,MP_PerceptionTuring2,59.93472935970312,
256,resources/videos_generated\model(vcgpdm)-dataset(walking)-mode(ELBO)-parts(1)-dyn(25)-lvm(25)_final(0).mov,resources/videos_natural\training(45).mov,True,True,left,0,255,255,255,2018-10-08 13:21:32.264099,2018-10-08 13:21:36.201324,0:00:03.937225,6,right,0,0.4173196522096987,28,m,2,14,2018_Oct_08_1254,MP_PerceptionTuring2,59.93472935970312,
257,resources/videos_generated\model(vcgpdm)-dataset(walking)-mode(ELBO)-parts(1)-dyn(28)-lvm(27)_final(2).mov,resources/videos_natural\training(37).mov,True,True,left,0,256,256,256,2018-10-08 13:21:37.735412,2018-10-08 13:21:41.705639,0:00:03.970227,6,left,1,0.2838910489431328,28,m,2,14,2018_Oct_08_1254,MP_PerceptionTuring2,59.93472935970312,
258,resources/videos_generated\model(vcgpdm)-dataset(walking)-mode(ELBO)-parts(2)-dyn(28)-lvm(17)_final(8).mov,resources/videos_natural\training(23).mov,True,False,right,0,257,257,257,2018-10-08 13:21:43.106719,2018-10-08 13:21:47.043944,0:00:03.937225,6,right,1,0.31716786281094755,28,m,2,14,2018_Oct_08_1254,MP_PerceptionTuring2,59.93472935970312,
259,resources/videos_generated\model(vcgpdm)-dataset(walking)-mode(ELBO)-parts(2)-dyn(26)-lvm(17)_final(8).mov,resources/videos_natural\training(14).mov,True,True,left,0,258,258,258,2018-10-08 13:21:48.478026,2018-10-08 13:21:52.398250,0:00:03.920224,6,left,1,0.40054361084094126,28,m,2,14,2018_Oct_08_1254,MP_PerceptionTuring2,59.93472935970312,
260,resources/videos_generated\model(dmp)-dataset(walking)-npsi(50)_final(3).mov,resources/videos_natural\training(35).mov,True,False,right,0,259,259,259,2018-10-08 13:21:53.916337,2018-10-08 13:21:57.936567,0:00:04.020230,6,right,1,0.634143579519332,28,m,2,14,2018_Oct_08_1254,MP_PerceptionTuring2,59.93472935970312,
261,resources/videos_generated\model(vcgpdm)-dataset(walking)-mode(ELBO)-parts(2)-dyn(25)-lvm(20)_final(0).mov,resources/videos_natural\training(12).mov,False,False,right,0,260,260,260,2018-10-08 13:21:59.687667,2018-10-08 13:22:03.758900,0:00:04.071233,6,right,1,0.4839567038811765,28,m,2,14,2018_Oct_08_1254,MP_PerceptionTuring2,59.93472935970312,
262,resources/videos_generated\model(vcgpdm)-dataset(walking)-mode(ELBO)-parts(1)-dyn(22)-lvm(22)_final(5).mov,resources/videos_natural\training(29).mov,False,True,left,0,261,261,261,2018-10-08 13:22:05.359992,2018-10-08 13:22:09.380222,0:00:04.020230,6,left,1,0.2338156059981884,28,m,2,14,2018_Oct_08_1254,MP_PerceptionTuring2,59.93472935970312,
263,resources/videos_generated\model(vcgpdm)-dataset(walking)-mode(ELBO)-parts(1)-dyn(25)-lvm(28)_final(7).mov,resources/videos_natural\training(38).mov,False,True,left,0,262,262,262,2018-10-08 13:22:10.731299,2018-10-08 13:22:14.834534,0:00:04.103235,6,right,0,0.18374347591679907,28,m,2,14,2018_Oct_08_1254,MP_PerceptionTuring2,59.93472935970312,
264,resources/videos_generated\model(vcgpdm)-dataset(walking)-mode(ELBO)-parts(1)-dyn(26)-lvm(23)_final(2).mov,resources/videos_natural\training(8).mov,True,True,left,0,263,263,263,2018-10-08 13:22:16.135608,2018-10-08 13:22:20.222842,0:00:04.087234,6,left,1,0.3339282433689732,28,m,2,14,2018_Oct_08_1254,MP_PerceptionTuring2,59.93472935970312,
265,resources/videos_generated\model(vcgpdm)-dataset(walking)-mode(ELBO)-parts(2)-dyn(22)-lvm(21)_final(6).mov,resources/videos_natural\training(25).mov,False,True,left,0,264,264,264,2018-10-08 13:22:21.673925,2018-10-08 13:22:25.610150,0:00:03.936225,6,left,1,0.31706486286248037,28,m,2,14,2018_Oct_08_1254,MP_PerceptionTuring2,59.93472935970312,
266,resources/videos_generated\model(vcgpdm)-dataset(walking)-mode(ELBO)-parts(2)-dyn(24)-lvm(17)_final(2).mov,resources/videos_natural\training(28).mov,True,True,left,0,265,265,265,2018-10-08 13:22:27.045232,2018-10-08 13:22:31.065462,0:00:04.020230,6,right,0,0.43389451239181653,28,m,2,14,2018_Oct_08_1254,MP_PerceptionTuring2,59.93472935970312,
267,resources/videos_generated\model(vcgpdm)-dataset(walking)-mode(ELBO)-parts(1)-dyn(24)-lvm(27)_final(5).mov,resources/videos_natural\training(21).mov,False,True,left,0,266,266,266,2018-10-08 13:22:32.616551,2018-10-08 13:22:36.503773,0:00:03.887222,6,left,1,0.33379843934017117,28,m,2,14,2018_Oct_08_1254,MP_PerceptionTuring2,59.93472935970312,
268,resources/videos_generated\model(vcgpdm)-dataset(walking)-mode(ELBO)-parts(2)-dyn(25)-lvm(18)_final(2).mov,resources/videos_natural\training(20).mov,True,False,right,0,267,267,267,2018-10-08 13:22:37.954856,2018-10-08 13:22:41.858079,0:00:03.903223,6,right,1,0.21711485698961042,28,m,2,14,2018_Oct_08_1254,MP_PerceptionTuring2,59.93472935970312,
269,resources/videos_generated\model(vcgpdm)-dataset(walking)-mode(ELBO)-parts(2)-dyn(27)-lvm(20)_final(8).mov,resources/videos_natural\training(5).mov,True,True,left,0,268,268,268,2018-10-08 13:22:43.192156,2018-10-08 13:22:47.112380,0:00:03.920224,6,left,1,0.2838621366768166,28,m,2,14,2018_Oct_08_1254,MP_PerceptionTuring2,59.93472935970312,
270,resources/videos_generated\model(vcgpdm)-dataset(walking)-mode(ELBO)-parts(1)-dyn(22)-lvm(22)_final(3).mov,resources/videos_natural\training(23).mov,False,False,right,0,269,269,269,2018-10-08 13:22:48.513460,2018-10-08 13:22:52.416683,0:00:03.903223,6,right,1,0.35070548941530433,28,m,2,14,2018_Oct_08_1254,MP_PerceptionTuring2,59.93472935970312,
271,resources/videos_generated\model(dmp)-dataset(walking)-npsi(80)_final(5).mov,resources/videos_natural\training(33).mov,False,False,right,0,270,270,270,2018-10-08 13:23:24.644527,2018-10-08 13:23:28.564751,0:00:03.920224,7,right,1,0.3004857863079451,28,m,2,14,2018_Oct_08_1254,MP_PerceptionTuring2,59.93472935970312,
272,resources/videos_generated\model(vcgpdm)-dataset(walking)-mode(ELBO)-parts(2)-dyn(24)-lvm(23)_final(8).mov,resources/videos_natural\training(40).mov,True,False,right,0,271,271,271,2018-10-08 13:23:29.982832,2018-10-08 13:23:33.903056,0:00:03.920224,7,right,1,0.2672165016761028,28,m,2,14,2018_Oct_08_1254,MP_PerceptionTuring2,59.93472935970312,
273,resources/videos_generated\model(vcgpdm)-dataset(walking)-mode(ELBO)-parts(2)-dyn(28)-lvm(21)_final(6).mov,resources/videos_natural\training(45).mov,True,False,right,0,272,272,272,2018-10-08 13:23:35.287135,2018-10-08 13:23:39.207360,0:00:03.920225,7,right,1,0.6174295790556243,28,m,2,14,2018_Oct_08_1254,MP_PerceptionTuring2,59.93472935970312,
274,resources/videos_generated\model(vcgpdm)-dataset(walking)-mode(ELBO)-parts(2)-dyn(25)-lvm(20)_final(2).mov,resources/videos_natural\training(0).mov,False,False,right,0,273,273,273,2018-10-08 13:23:40.942459,2018-10-08 13:23:44.862683,0:00:03.920224,7,right,1,0.36725926773669926,28,m,2,14,2018_Oct_08_1254,MP_PerceptionTuring2,59.93472935970312,
275,resources/videos_generated\model(vcgpdm)-dataset(walking)-mode(ELBO)-parts(1)-dyn(27)-lvm(24)_final(0).mov,resources/videos_natural\training(48).mov,False,True,left,0,274,274,274,2018-10-08 13:23:46.346768,2018-10-08 13:23:50.266992,0:00:03.920224,7,right,0,0.3171350353422895,28,m,2,14,2018_Oct_08_1254,MP_PerceptionTuring2,59.93472935970312,
276,resources/videos_generated\model(vcgpdm)-dataset(walking)-mode(ELBO)-parts(1)-dyn(26)-lvm(27)_final(4).mov,resources/videos_natural\training(36).mov,True,False,right,0,275,275,275,2018-10-08 13:23:51.702074,2018-10-08 13:23:55.621298,0:00:03.919224,7,right,1,0.2504082351774741,28,m,2,14,2018_Oct_08_1254,MP_PerceptionTuring2,59.93472935970312,
277,resources/videos_generated\model(vcgpdm)-dataset(walking)-mode(ELBO)-parts(2)-dyn(26)-lvm(23)_final(0).mov,resources/videos_natural\training(13).mov,True,False,right,0,276,276,276,2018-10-08 13:23:56.989377,2018-10-08 13:24:00.959604,0:00:03.970227,7,right,1,0.3171000996871953,28,m,2,14,2018_Oct_08_1254,MP_PerceptionTuring2,59.93472935970312,
278,resources/videos_generated\model(vcgpdm)-dataset(walking)-mode(ELBO)-parts(1)-dyn(25)-lvm(26)_final(5).mov,resources/videos_natural\training(41).mov,True,True,left,0,277,277,277,2018-10-08 13:24:02.394686,2018-10-08 13:24:06.480920,0:00:04.086234,7,right,0,0.2171654534558911,28,m,2,14,2018_Oct_08_1254,MP_PerceptionTuring2,59.93472935970312,
279,resources/videos_generated\model(vcgpdm)-dataset(walking)-mode(ELBO)-parts(1)-dyn(24)-lvm(25)_final(5).mov,resources/videos_natural\training(43).mov,True,False,right,0,278,278,278,2018-10-08 13:24:07.815996,2018-10-08 13:24:11.719219,0:00:03.903223,7,right,1,0.21704558801820895,28,m,2,14,2018_Oct_08_1254,MP_PerceptionTuring2,59.93472935970312,
280,resources/videos_generated\model(dmp)-dataset(walking)-npsi(100)_final(5).mov,resources/videos_natural\training(21).mov,False,True,left,0,279,279,279,2018-10-08 13:24:13.053295,2018-10-08 13:24:17.073525,0:00:04.020230,7,right,0,0.18367872448743583,28,m,2,14,2018_Oct_08_1254,MP_PerceptionTuring2,59.93472935970312,
281,resources/videos_generated\model(dmp)-dataset(walking)-npsi(80)_final(7).mov,resources/videos_natural\training(7).mov,True,True,left,0,280,280,280,2018-10-08 13:24:18.374600,2018-10-08 13:24:22.444833,0:00:04.070233,7,right,0,0.25041907727700163,28,m,2,14,2018_Oct_08_1254,MP_PerceptionTuring2,59.93472935970312,
282,resources/videos_generated\model(vcgpdm)-dataset(walking)-mode(ELBO)-parts(1)-dyn(28)-lvm(23)_final(0).mov,resources/videos_natural\training(17).mov,False,True,left,0,281,281,281,2018-10-08 13:24:23.812911,2018-10-08 13:24:27.916146,0:00:04.103235,7,left,1,0.25048563572318017,28,m,2,14,2018_Oct_08_1254,MP_PerceptionTuring2,59.93472935970312,
283,resources/videos_generated\model(vcgpdm)-dataset(walking)-mode(ELBO)-parts(2)-dyn(22)-lvm(19)_final(6).mov,resources/videos_natural\training(19).mov,False,True,left,0,282,282,282,2018-10-08 13:24:29.284224,2018-10-08 13:24:33.371458,0:00:04.087234,7,left,1,0.2671457268575068,28,m,2,14,2018_Oct_08_1254,MP_PerceptionTuring2,59.93472935970312,
284,resources/videos_generated\model(vcgpdm)-dataset(walking)-mode(ELBO)-parts(1)-dyn(27)-lvm(26)_final(4).mov,resources/videos_natural\training(48).mov,True,False,right,0,283,283,283,2018-10-08 13:24:34.755537,2018-10-08 13:24:38.708763,0:00:03.953226,7,right,1,0.3004644032780561,28,m,2,14,2018_Oct_08_1254,MP_PerceptionTuring2,59.93472935970312,
285,resources/videos_generated\model(vcgpdm)-dataset(walking)-mode(ELBO)-parts(2)-dyn(26)-lvm(19)_final(8).mov,resources/videos_natural\training(20).mov,False,False,right,0,284,284,284,2018-10-08 13:24:40.126844,2018-10-08 13:24:44.230079,0:00:04.103235,7,right,1,0.20038429220676335,28,m,2,14,2018_Oct_08_1254,MP_PerceptionTuring2,59.93472935970312,
286,resources/videos_generated\model(vcgpdm)-dataset(walking)-mode(ELBO)-parts(2)-dyn(26)-lvm(23)_final(4).mov,resources/videos_natural\training(30).mov,False,False,right,0,285,285,285,2018-10-08 13:24:45.548154,2018-10-08 13:24:49.668390,0:00:04.120236,7,right,1,0.23369664406891388,28,m,2,14,2018_Oct_08_1254,MP_PerceptionTuring2,59.93472935970312,
287,resources/videos_generated\model(tmp)-dataset(walking)-numprim(15)_final(5).mov,resources/videos_natural\training(25).mov,True,True,left,0,286,286,286,2018-10-08 13:24:51.019467,2018-10-08 13:24:55.139703,0:00:04.120236,7,left,1,0.30043127463977726,28,m,2,14,2018_Oct_08_1254,MP_PerceptionTuring2,59.93472935970312,
288,resources/videos_generated\model(dmp)-dataset(walking)-npsi(60)_final(7).mov,resources/videos_natural\training(17).mov,True,True,left,0,287,287,287,2018-10-08 13:24:56.557784,2018-10-08 13:25:00.461007,0:00:03.903223,7,right,0,0.4842271540387628,28,m,2,14,2018_Oct_08_1254,MP_PerceptionTuring2,59.93472935970312,
289,resources/videos_generated\model(vcgpdm)-dataset(walking)-mode(ELBO)-parts(1)-dyn(22)-lvm(25)_final(1).mov,resources/videos_natural\training(20).mov,True,True,left,0,288,288,288,2018-10-08 13:25:02.062099,2018-10-08 13:25:05.982323,0:00:03.920224,7,left,1,0.21716876631944615,28,m,2,14,2018_Oct_08_1254,MP_PerceptionTuring2,59.93472935970312,
290,resources/videos_generated\model(vcgpdm)-dataset(walking)-mode(ELBO)-parts(2)-dyn(24)-lvm(21)_final(8).mov,resources/videos_natural\training(28).mov,True,True,left,0,289,289,289,2018-10-08 13:25:07.317399,2018-10-08 13:25:11.236623,0:00:03.919224,7,left,1,0.43392553284411406,28,m,2,14,2018_Oct_08_1254,MP_PerceptionTuring2,59.93472935970312,
291,resources/videos_generated\model(vcgpdm)-dataset(walking)-mode(ELBO)-parts(2)-dyn(27)-lvm(20)_final(2).mov,resources/videos_natural\training(24).mov,False,False,right,0,290,290,290,2018-10-08 13:25:12.788712,2018-10-08 13:25:16.724937,0:00:03.936225,7,right,1,0.28393321266503335,28,m,2,14,2018_Oct_08_1254,MP_PerceptionTuring2,59.93472935970312,
