n_trial,mov_file_generated,mov_file_natural,mirrored,switch_stim_pos,correct_answer,trials.thisRepN,trials.thisTrialN,trials.thisN,trials.thisIndex,stimulus_onset,stimulus_off,stimulus_length,block,response.keys,response.corr,response.rt,age,gender,condition,participant,date,expName,frameRate,
1,resources/videos_generated\model(vcgpdm)-dataset(walking)-mode(ELBO)-parts(1)-dyn(23)-lvm(22)_final(5)_fail.mov,resources/videos_natural\training(32).mov,True,True,left,0,0,0,0,2018-10-09 13:19:20.589582,2018-10-09 13:19:25.827882,0:00:05.238300,1,left,1,3.4195657653917806,28,m,1,14,2018_Oct_09_1318,MP_PerceptionTuring2,59.9231373115326,
2,resources/videos_generated\model(dmp)-dataset(walking)-npsi(60)_final(8).mov,resources/videos_natural\training(37).mov,True,False,right,0,1,1,1,2018-10-09 13:19:30.381142,2018-10-09 13:19:34.318367,0:00:03.937225,1,left,0,0.7341007977722711,28,m,1,14,2018_Oct_09_1318,MP_PerceptionTuring2,59.9231373115326,
3,resources/videos_generated\model(tmp)-dataset(walking)-numprim(14)_final(4).mov,resources/videos_natural\training(40).mov,False,True,left,0,2,2,2,2018-10-09 13:19:36.169473,2018-10-09 13:19:40.223705,0:00:04.054232,1,right,0,0.5506987020427232,28,m,1,14,2018_Oct_09_1318,MP_PerceptionTuring2,59.9231373115326,
4,resources/videos_generated\model(vcgpdm)-dataset(walking)-mode(ELBO)-parts(1)-dyn(27)-lvm(22)_final(9).mov,resources/videos_natural\training(41).mov,True,False,right,0,3,3,3,2018-10-09 13:19:41.957804,2018-10-09 13:19:45.845027,0:00:03.887223,1,left,0,0.4506071761257999,28,m,1,14,2018_Oct_09_1318,MP_PerceptionTuring2,59.9231373115326,
5,resources/videos_generated\model(vcgpdm)-dataset(walking)-mode(ELBO)-parts(1)-dyn(24)-lvm(25)_final(0).mov,resources/videos_natural\training(36).mov,True,False,right,0,4,4,4,2018-10-09 13:19:47.413116,2018-10-09 13:19:51.483349,0:00:04.070233,1,left,0,0.3838724648541074,28,m,1,14,2018_Oct_09_1318,MP_PerceptionTuring2,59.9231373115326,
6,resources/videos_generated\model(vcgpdm)-dataset(walking)-mode(ELBO)-parts(2)-dyn(24)-lvm(17)_final(5).mov,resources/videos_natural\training(33).mov,False,False,right,0,5,5,5,2018-10-09 13:19:52.984435,2018-10-09 13:19:57.054668,0:00:04.070233,1,left,0,0.3171847362840481,28,m,1,14,2018_Oct_09_1318,MP_PerceptionTuring2,59.9231373115326,
7,resources/videos_generated\model(vcgpdm)-dataset(walking)-mode(ELBO)-parts(1)-dyn(26)-lvm(23)_final(7).mov,resources/videos_natural\training(4).mov,False,True,left,0,6,6,6,2018-10-09 13:19:58.488750,2018-10-09 13:20:02.575984,0:00:04.087234,1,right,0,0.500690736065394,28,m,1,14,2018_Oct_09_1318,MP_PerceptionTuring2,59.9231373115326,
8,resources/videos_generated\model(vcgpdm)-dataset(walking)-mode(ELBO)-parts(2)-dyn(23)-lvm(20)_final(3).mov,resources/videos_natural\training(11).mov,False,True,left,0,7,7,7,2018-10-09 13:20:04.194076,2018-10-09 13:20:08.281310,0:00:04.087234,1,right,0,0.5338231781929608,28,m,1,14,2018_Oct_09_1318,MP_PerceptionTuring2,59.9231373115326,
9,resources/videos_generated\model(vcgpdm)-dataset(walking)-mode(ELBO)-parts(2)-dyn(26)-lvm(21)_final(9).mov,resources/videos_natural\training(4).mov,True,False,right,0,8,8,8,2018-10-09 13:20:09.932404,2018-10-09 13:20:13.952634,0:00:04.020230,1,right,1,0.28371166956947036,28,m,1,14,2018_Oct_09_1318,MP_PerceptionTuring2,59.9231373115326,
10,resources/videos_generated\model(vcgpdm)-dataset(walking)-mode(ELBO)-parts(2)-dyn(24)-lvm(21)_final(7).mov,resources/videos_natural\training(0).mov,True,True,left,0,9,9,9,2018-10-09 13:20:15.353714,2018-10-09 13:20:19.290940,0:00:03.937226,1,right,0,0.767501583407352,28,m,1,14,2018_Oct_09_1318,MP_PerceptionTuring2,59.9231373115326,
11,resources/videos_generated\model(dmp)-dataset(walking)-npsi(100)_final(2).mov,resources/videos_natural\training(11).mov,False,False,right,0,10,10,10,2018-10-09 13:20:21.175047,2018-10-09 13:20:25.078271,0:00:03.903224,1,right,1,0.23382176268853527,28,m,1,14,2018_Oct_09_1318,MP_PerceptionTuring2,59.9231373115326,
12,resources/videos_generated\model(vcgpdm)-dataset(walking)-mode(ELBO)-parts(2)-dyn(27)-lvm(18)_final(5).mov,resources/videos_natural\training(10).mov,True,False,right,0,11,11,11,2018-10-09 13:20:26.430348,2018-10-09 13:20:30.350572,0:00:03.920224,1,left,0,0.26713912391107897,28,m,1,14,2018_Oct_09_1318,MP_PerceptionTuring2,59.9231373115326,
13,resources/videos_generated\model(vcgpdm)-dataset(walking)-mode(ELBO)-parts(1)-dyn(22)-lvm(25)_final(8).mov,resources/videos_natural\training(37).mov,False,True,left,0,12,12,12,2018-10-09 13:20:31.734651,2018-10-09 13:20:35.620874,0:00:03.886223,1,left,1,0.30046280972817385,28,m,1,14,2018_Oct_09_1318,MP_PerceptionTuring2,59.9231373115326,
14,resources/videos_generated\model(vcgpdm)-dataset(walking)-mode(ELBO)-parts(2)-dyn(23)-lvm(18)_final(1).mov,resources/videos_natural\training(13).mov,True,True,left,0,13,13,13,2018-10-09 13:20:37.038955,2018-10-09 13:20:41.126189,0:00:04.087234,1,left,1,0.3338066740132035,28,m,1,14,2018_Oct_09_1318,MP_PerceptionTuring2,59.9231373115326,
15,resources/videos_generated\model(vcgpdm)-dataset(walking)-mode(ELBO)-parts(1)-dyn(26)-lvm(27)_final(7).mov,resources/videos_natural\training(33).mov,True,False,right,0,14,14,14,2018-10-09 13:20:42.577272,2018-10-09 13:20:46.497496,0:00:03.920224,1,left,0,0.41737715454087265,28,m,1,14,2018_Oct_09_1318,MP_PerceptionTuring2,59.9231373115326,
16,resources/videos_generated\model(vcgpdm)-dataset(walking)-mode(ELBO)-parts(1)-dyn(25)-lvm(22)_final(8).mov,resources/videos_natural\training(33).mov,True,True,left,0,15,15,15,2018-10-09 13:20:48.031584,2018-10-09 13:20:52.101816,0:00:04.070232,1,left,1,0.3173497780820753,28,m,1,14,2018_Oct_09_1318,MP_PerceptionTuring2,59.9231373115326,
17,resources/videos_generated\model(vcgpdm)-dataset(walking)-mode(ELBO)-parts(1)-dyn(22)-lvm(25)_final(0).mov,resources/videos_natural\training(2).mov,True,True,left,0,16,16,16,2018-10-09 13:20:53.536898,2018-10-09 13:20:57.624132,0:00:04.087234,1,left,1,0.2838468954222435,28,m,1,14,2018_Oct_09_1318,MP_PerceptionTuring2,59.9231373115326,
18,resources/videos_generated\model(tmp)-dataset(walking)-numprim(11)_final(6).mov,resources/videos_natural\training(41).mov,True,True,left,0,17,17,17,2018-10-09 13:20:59.024212,2018-10-09 13:21:03.111446,0:00:04.087234,1,left,1,0.4839386923930533,28,m,1,14,2018_Oct_09_1318,MP_PerceptionTuring2,59.9231373115326,
19,resources/videos_generated\model(vcgpdm)-dataset(walking)-mode(ELBO)-parts(2)-dyn(26)-lvm(17)_final(5).mov,resources/videos_natural\training(47).mov,True,True,left,0,18,18,18,2018-10-09 13:21:04.712538,2018-10-09 13:21:08.782770,0:00:04.070232,1,left,1,0.3838116282788633,28,m,1,14,2018_Oct_09_1318,MP_PerceptionTuring2,59.9231373115326,
20,resources/videos_generated\model(vcgpdm)-dataset(walking)-mode(ELBO)-parts(2)-dyn(25)-lvm(22)_final(7).mov,resources/videos_natural\training(29).mov,False,False,right,0,19,19,19,2018-10-09 13:21:10.284856,2018-10-09 13:21:14.355089,0:00:04.070233,1,right,1,0.40070973996580506,28,m,1,14,2018_Oct_09_1318,MP_PerceptionTuring2,59.9231373115326,
21,resources/videos_generated\model(vcgpdm)-dataset(walking)-mode(ELBO)-parts(1)-dyn(24)-lvm(23)_final(2).mov,resources/videos_natural\training(42).mov,True,True,left,0,20,20,20,2018-10-09 13:21:15.873176,2018-10-09 13:21:19.776399,0:00:03.903223,1,left,1,0.40066697366046355,28,m,1,14,2018_Oct_09_1318,MP_PerceptionTuring2,59.9231373115326,
22,resources/videos_generated\model(vcgpdm)-dataset(walking)-mode(ELBO)-parts(2)-dyn(28)-lvm(21)_final(7).mov,resources/videos_natural\training(15).mov,True,False,right,0,21,21,21,2018-10-09 13:21:21.294486,2018-10-09 13:21:25.380720,0:00:04.086234,1,left,0,0.31723292367018985,28,m,1,14,2018_Oct_09_1318,MP_PerceptionTuring2,59.9231373115326,
23,resources/videos_generated\model(vcgpdm)-dataset(walking)-mode(ELBO)-parts(1)-dyn(25)-lvm(24)_final(9).mov,resources/videos_natural\training(41).mov,False,False,right,0,22,22,22,2018-10-09 13:21:26.815802,2018-10-09 13:21:30.819031,0:00:04.003229,1,right,1,0.3504990857949224,28,m,1,14,2018_Oct_09_1318,MP_PerceptionTuring2,59.9231373115326,
24,resources/videos_generated\model(vcgpdm)-dataset(walking)-mode(ELBO)-parts(1)-dyn(28)-lvm(23)_final(3)_fail.mov,resources/videos_natural\training(46).mov,False,True,left,0,23,23,23,2018-10-09 13:21:32.287115,2018-10-09 13:21:36.207339,0:00:03.920224,1,left,1,0.2171672984735551,28,m,1,14,2018_Oct_09_1318,MP_PerceptionTuring2,59.9231373115326,
25,resources/videos_generated\model(dmp)-dataset(walking)-npsi(80)_final(8).mov,resources/videos_natural\training(23).mov,True,False,right,0,24,24,24,2018-10-09 13:21:37.541415,2018-10-09 13:21:41.444639,0:00:03.903224,1,left,0,0.28374299137055914,28,m,1,14,2018_Oct_09_1318,MP_PerceptionTuring2,59.9231373115326,
26,resources/videos_generated\model(vcgpdm)-dataset(walking)-mode(ELBO)-parts(1)-dyn(23)-lvm(28)_final(8).mov,resources/videos_natural\training(34).mov,True,True,left,0,25,25,25,2018-10-09 13:21:42.845719,2018-10-09 13:21:46.932952,0:00:04.087233,1,left,1,0.26717044571216775,28,m,1,14,2018_Oct_09_1318,MP_PerceptionTuring2,59.9231373115326,
27,resources/videos_generated\model(dmp)-dataset(walking)-npsi(80)_final(0).mov,resources/videos_natural\training(10).mov,True,True,left,0,26,26,26,2018-10-09 13:21:48.317032,2018-10-09 13:21:52.404265,0:00:04.087233,1,left,1,0.3004146223419184,28,m,1,14,2018_Oct_09_1318,MP_PerceptionTuring2,59.9231373115326,
28,resources/videos_generated\model(vcgpdm)-dataset(walking)-mode(ELBO)-parts(1)-dyn(25)-lvm(22)_final(4).mov,resources/videos_natural\training(34).mov,False,True,left,0,27,27,27,2018-10-09 13:21:53.822347,2018-10-09 13:21:57.742571,0:00:03.920224,1,left,1,0.4006088476256764,28,m,1,14,2018_Oct_09_1318,MP_PerceptionTuring2,59.9231373115326,
29,resources/videos_generated\model(vcgpdm)-dataset(walking)-mode(ELBO)-parts(2)-dyn(24)-lvm(23)_final(5).mov,resources/videos_natural\training(9).mov,True,True,left,0,28,28,28,2018-10-09 13:21:59.260658,2018-10-09 13:22:03.346891,0:00:04.086233,1,left,1,0.2336482880979247,28,m,1,14,2018_Oct_09_1318,MP_PerceptionTuring2,59.9231373115326,
30,resources/videos_generated\model(vcgpdm)-dataset(walking)-mode(ELBO)-parts(2)-dyn(24)-lvm(21)_final(9).mov,resources/videos_natural\training(18).mov,False,True,left,0,29,29,29,2018-10-09 13:22:04.697969,2018-10-09 13:22:08.768201,0:00:04.070232,1,right,0,0.283942969023542,28,m,1,14,2018_Oct_09_1318,MP_PerceptionTuring2,59.9231373115326,
31,resources/videos_generated\model(vcgpdm)-dataset(walking)-mode(ELBO)-parts(1)-dyn(25)-lvm(24)_final(7).mov,resources/videos_natural\training(21).mov,True,False,right,0,30,30,30,2018-10-09 13:22:10.169282,2018-10-09 13:22:14.089506,0:00:03.920224,1,right,1,0.267048170219482,28,m,1,14,2018_Oct_09_1318,MP_PerceptionTuring2,59.9231373115326,
32,resources/videos_generated\model(vcgpdm)-dataset(walking)-mode(ELBO)-parts(1)-dyn(22)-lvm(23)_final(6)_fail.mov,resources/videos_natural\training(27).mov,False,False,right,0,31,31,31,2018-10-09 13:22:15.474585,2018-10-09 13:22:19.377808,0:00:03.903223,1,right,1,0.333789206085612,28,m,1,14,2018_Oct_09_1318,MP_PerceptionTuring2,59.9231373115326,
33,resources/videos_generated\model(vcgpdm)-dataset(walking)-mode(ELBO)-parts(2)-dyn(24)-lvm(23)_final(1).mov,resources/videos_natural\training(22).mov,False,False,right,0,32,32,32,2018-10-09 13:22:20.828891,2018-10-09 13:22:24.932126,0:00:04.103235,1,right,1,0.33385787311112836,28,m,1,14,2018_Oct_09_1318,MP_PerceptionTuring2,59.9231373115326,
34,resources/videos_generated\model(vcgpdm)-dataset(walking)-mode(ELBO)-parts(2)-dyn(22)-lvm(19)_final(9).mov,resources/videos_natural\training(42).mov,False,False,right,0,33,33,33,2018-10-09 13:22:26.383209,2018-10-09 13:22:30.337435,0:00:03.954226,1,right,1,0.2672074897654966,28,m,1,14,2018_Oct_09_1318,MP_PerceptionTuring2,59.9231373115326,
35,resources/videos_generated\model(vcgpdm)-dataset(walking)-mode(ELBO)-parts(1)-dyn(26)-lvm(27)_final(3).mov,resources/videos_natural\training(0).mov,True,True,left,0,34,34,34,2018-10-09 13:22:31.721514,2018-10-09 13:22:35.641738,0:00:03.920224,1,left,1,0.2504780339304489,28,m,1,14,2018_Oct_09_1318,MP_PerceptionTuring2,59.9231373115326,
36,resources/videos_generated\model(vcgpdm)-dataset(walking)-mode(ELBO)-parts(1)-dyn(22)-lvm(28)_final(0).mov,resources/videos_natural\training(21).mov,True,True,left,0,35,35,35,2018-10-09 13:22:37.009817,2018-10-09 13:22:41.030047,0:00:04.020230,1,left,1,0.3339744263516877,28,m,1,14,2018_Oct_09_1318,MP_PerceptionTuring2,59.9231373115326,
37,resources/videos_generated\model(vcgpdm)-dataset(walking)-mode(ELBO)-parts(2)-dyn(28)-lvm(17)_final(3).mov,resources/videos_natural\training(29).mov,False,False,right,0,36,36,36,2018-10-09 13:22:42.481130,2018-10-09 13:22:46.501360,0:00:04.020230,1,right,1,0.2504506273546667,28,m,1,14,2018_Oct_09_1318,MP_PerceptionTuring2,59.9231373115326,
38,resources/videos_generated\model(vcgpdm)-dataset(walking)-mode(ELBO)-parts(1)-dyn(23)-lvm(22)_final(1)_fail.mov,resources/videos_natural\training(5).mov,False,False,right,0,37,37,37,2018-10-09 13:22:47.868438,2018-10-09 13:22:51.938671,0:00:04.070233,1,right,1,0.2671472555325636,28,m,1,14,2018_Oct_09_1318,MP_PerceptionTuring2,59.9231373115326,
39,resources/videos_generated\model(vcgpdm)-dataset(walking)-mode(ELBO)-parts(1)-dyn(28)-lvm(25)_final(3).mov,resources/videos_natural\training(5).mov,True,True,left,0,38,38,38,2018-10-09 13:22:53.323750,2018-10-09 13:22:57.393983,0:00:04.070233,1,left,1,0.133716081727016,28,m,1,14,2018_Oct_09_1318,MP_PerceptionTuring2,59.9231373115326,
40,resources/videos_generated\model(vcgpdm)-dataset(walking)-mode(ELBO)-parts(2)-dyn(25)-lvm(20)_final(7).mov,resources/videos_natural\training(18).mov,True,False,right,0,39,39,39,2018-10-09 13:22:58.645054,2018-10-09 13:23:02.731288,0:00:04.086234,1,left,0,0.2670484713908081,28,m,1,14,2018_Oct_09_1318,MP_PerceptionTuring2,59.9231373115326,
41,resources/videos_generated\model(dmp)-dataset(walking)-npsi(50)_final(8).mov,resources/videos_natural\training(18).mov,False,True,left,0,40,40,40,2018-10-09 13:23:04.116367,2018-10-09 13:23:08.053592,0:00:03.937225,1,right,0,0.3004146223418047,28,m,1,14,2018_Oct_09_1318,MP_PerceptionTuring2,59.9231373115326,
42,resources/videos_generated\model(vcgpdm)-dataset(walking)-mode(ELBO)-parts(1)-dyn(27)-lvm(26)_final(5).mov,resources/videos_natural\training(25).mov,False,False,right,0,41,41,41,2018-10-09 13:23:09.470673,2018-10-09 13:23:13.557907,0:00:04.087234,1,right,1,0.26717496327955814,28,m,1,14,2018_Oct_09_1318,MP_PerceptionTuring2,59.9231373115326,
43,resources/videos_generated\model(vcgpdm)-dataset(walking)-mode(ELBO)-parts(1)-dyn(22)-lvm(27)_final(2)_hip-corrected.mov,resources/videos_natural\training(38).mov,False,False,right,0,42,42,42,2018-10-09 13:23:14.941986,2018-10-09 13:23:18.962216,0:00:04.020230,1,right,1,0.3338681129307588,28,m,1,14,2018_Oct_09_1318,MP_PerceptionTuring2,59.9231373115326,
44,resources/videos_generated\model(vcgpdm)-dataset(walking)-mode(ELBO)-parts(2)-dyn(27)-lvm(18)_final(9).mov,resources/videos_natural\training(12).mov,False,False,right,0,43,43,43,2018-10-09 13:23:20.413299,2018-10-09 13:23:24.500533,0:00:04.087234,1,right,1,0.5341586828699292,28,m,1,14,2018_Oct_09_1318,MP_PerceptionTuring2,59.9231373115326,
45,resources/videos_generated\model(vcgpdm)-dataset(walking)-mode(ELBO)-parts(1)-dyn(28)-lvm(27)_final(7).mov,resources/videos_natural\training(22).mov,True,False,right,0,44,44,44,2018-10-09 13:23:26.152628,2018-10-09 13:23:30.221860,0:00:04.069232,1,right,1,0.25038888726589903,28,m,1,14,2018_Oct_09_1318,MP_PerceptionTuring2,59.9231373115326,
46,resources/videos_generated\model(vcgpdm)-dataset(walking)-mode(ELBO)-parts(1)-dyn(25)-lvm(24)_final(3).mov,resources/videos_natural\training(23).mov,False,True,left,0,45,45,45,2018-10-09 13:24:02.449704,2018-10-09 13:24:06.369928,0:00:03.920224,2,left,1,0.3171627507890662,28,m,1,14,2018_Oct_09_1318,MP_PerceptionTuring2,59.9231373115326,
47,resources/videos_generated\model(vcgpdm)-dataset(walking)-mode(ELBO)-parts(2)-dyn(25)-lvm(18)_final(1).mov,resources/videos_natural\training(14).mov,True,False,right,0,46,46,46,2018-10-09 13:24:07.805010,2018-10-09 13:24:11.891244,0:00:04.086234,2,right,1,0.2838339450622698,28,m,1,14,2018_Oct_09_1318,MP_PerceptionTuring2,59.9231373115326,
48,resources/videos_generated\model(vcgpdm)-dataset(walking)-mode(ELBO)-parts(1)-dyn(25)-lvm(22)_final(2).mov,resources/videos_natural\training(14).mov,False,False,right,0,47,47,47,2018-10-09 13:24:13.293324,2018-10-09 13:24:17.212548,0:00:03.919224,2,right,1,0.30047064017844605,28,m,1,14,2018_Oct_09_1318,MP_PerceptionTuring2,59.9231373115326,
49,resources/videos_generated\model(vcgpdm)-dataset(walking)-mode(ELBO)-parts(2)-dyn(23)-lvm(20)_final(1).mov,resources/videos_natural\training(16).mov,False,False,right,0,48,48,48,2018-10-09 13:24:18.630629,2018-10-09 13:24:22.700862,0:00:04.070233,2,right,1,0.2671683375140219,28,m,1,14,2018_Oct_09_1318,MP_PerceptionTuring2,59.9231373115326,
50,resources/videos_generated\model(vcgpdm)-dataset(walking)-mode(ELBO)-parts(1)-dyn(23)-lvm(26)_final(9).mov,resources/videos_natural\training(40).mov,True,False,right,0,49,49,49,2018-10-09 13:24:24.084941,2018-10-09 13:24:27.989164,0:00:03.904223,2,right,1,0.6175096096189918,28,m,1,14,2018_Oct_09_1318,MP_PerceptionTuring2,59.9231373115326,
51,resources/videos_generated\model(vcgpdm)-dataset(walking)-mode(ELBO)-parts(1)-dyn(27)-lvm(22)_final(3).mov,resources/videos_natural\training(2).mov,False,True,left,0,50,50,50,2018-10-09 13:24:29.723264,2018-10-09 13:24:33.643488,0:00:03.920224,2,right,0,0.00018973783335241023,28,m,1,14,2018_Oct_09_1318,MP_PerceptionTuring2,59.9231373115326,
52,resources/videos_generated\model(dmp)-dataset(walking)-npsi(70)_final(6).mov,resources/videos_natural\training(17).mov,True,True,left,0,51,51,51,2018-10-09 13:24:34.761552,2018-10-09 13:24:38.697777,0:00:03.936225,2,left,1,0.8844403230843909,28,m,1,14,2018_Oct_09_1318,MP_PerceptionTuring2,59.9231373115326,
53,resources/videos_generated\model(dmp)-dataset(walking)-npsi(60)_final(0).mov,resources/videos_natural\training(22).mov,False,False,right,0,52,52,52,2018-10-09 13:24:40.699891,2018-10-09 13:24:44.770124,0:00:04.070233,2,right,1,0.3838309032335019,28,m,1,14,2018_Oct_09_1318,MP_PerceptionTuring2,59.9231373115326,
54,resources/videos_generated\model(vcgpdm)-dataset(walking)-mode(ELBO)-parts(2)-dyn(22)-lvm(21)_final(9).mov,resources/videos_natural\training(9).mov,False,False,right,0,53,53,53,2018-10-09 13:24:46.271210,2018-10-09 13:24:50.391446,0:00:04.120236,2,right,1,0.25047170933612506,28,m,1,14,2018_Oct_09_1318,MP_PerceptionTuring2,59.9231373115326,
55,resources/videos_generated\model(vcgpdm)-dataset(walking)-mode(ELBO)-parts(2)-dyn(28)-lvm(17)_final(1).mov,resources/videos_natural\training(21).mov,True,False,right,0,54,54,54,2018-10-09 13:24:51.759524,2018-10-09 13:24:55.645746,0:00:03.886222,2,right,1,0.26719152769373977,28,m,1,14,2018_Oct_09_1318,MP_PerceptionTuring2,59.9231373115326,
56,resources/videos_generated\model(vcgpdm)-dataset(walking)-mode(ELBO)-parts(1)-dyn(26)-lvm(23)_final(3)_fail.mov,resources/videos_natural\training(35).mov,False,False,right,0,55,55,55,2018-10-09 13:24:57.030825,2018-10-09 13:25:01.101058,0:00:04.070233,2,right,1,0.283815272450056,28,m,1,14,2018_Oct_09_1318,MP_PerceptionTuring2,59.9231373115326,
57,resources/videos_generated\model(vcgpdm)-dataset(walking)-mode(ELBO)-parts(1)-dyn(22)-lvm(28)_final(7).mov,resources/videos_natural\training(20).mov,False,False,right,0,56,56,56,2018-10-09 13:25:02.502138,2018-10-09 13:25:06.555370,0:00:04.053232,2,right,1,0.283881228934888,28,m,1,14,2018_Oct_09_1318,MP_PerceptionTuring2,59.9231373115326,
58,resources/videos_generated\model(dmp)-dataset(walking)-npsi(70)_final(4).mov,resources/videos_natural\training(35).mov,True,True,left,0,57,57,57,2018-10-09 13:25:07.956450,2018-10-09 13:25:12.026683,0:00:04.070233,2,left,1,0.28382972866575074,28,m,1,14,2018_Oct_09_1318,MP_PerceptionTuring2,59.9231373115326,
59,resources/videos_generated\model(dmp)-dataset(walking)-npsi(50)_final(2).mov,resources/videos_natural\training(15).mov,True,True,left,0,58,58,58,2018-10-09 13:25:13.427763,2018-10-09 13:25:17.331987,0:00:03.904224,2,right,0,1.1681140450871226,28,m,1,14,2018_Oct_09_1318,MP_PerceptionTuring2,59.9231373115326,
60,resources/videos_generated\model(vcgpdm)-dataset(walking)-mode(ELBO)-parts(1)-dyn(22)-lvm(22)_final(8).mov,resources/videos_natural\training(18).mov,True,True,left,0,59,59,59,2018-10-09 13:25:19.617117,2018-10-09 13:25:23.537342,0:00:03.920225,2,left,1,0.3171907597072732,28,m,1,14,2018_Oct_09_1318,MP_PerceptionTuring2,59.9231373115326,
61,resources/videos_generated\model(dmp)-dataset(walking)-npsi(60)_final(2).mov,resources/videos_natural\training(10).mov,False,True,left,0,60,60,60,2018-10-09 13:25:24.971424,2018-10-09 13:25:28.874647,0:00:03.903223,2,right,0,0.23374707223979385,28,m,1,14,2018_Oct_09_1318,MP_PerceptionTuring2,59.9231373115326,
62,resources/videos_generated\model(dmp)-dataset(walking)-npsi(60)_final(6).mov,resources/videos_natural\training(17).mov,False,True,left,0,61,61,61,2018-10-09 13:25:30.225724,2018-10-09 13:25:34.129947,0:00:03.904223,2,right,0,0.5507279156456661,28,m,1,14,2018_Oct_09_1318,MP_PerceptionTuring2,59.9231373115326,
63,resources/videos_generated\model(dmp)-dataset(walking)-npsi(80)_final(4).mov,resources/videos_natural\training(32).mov,False,False,right,0,62,62,62,2018-10-09 13:25:35.797043,2018-10-09 13:25:39.901278,0:00:04.104235,2,right,1,0.28375594173053287,28,m,1,14,2018_Oct_09_1318,MP_PerceptionTuring2,59.9231373115326,
64,resources/videos_generated\model(vcgpdm)-dataset(walking)-mode(ELBO)-parts(2)-dyn(22)-lvm(21)_final(7).mov,resources/videos_natural\training(13).mov,True,True,left,0,63,63,63,2018-10-09 13:25:41.302358,2018-10-09 13:25:45.355589,0:00:04.053231,2,left,1,0.384072743678189,28,m,1,14,2018_Oct_09_1318,MP_PerceptionTuring2,59.9231373115326,
65,resources/videos_generated\model(vcgpdm)-dataset(walking)-mode(ELBO)-parts(2)-dyn(24)-lvm(21)_final(1).mov,resources/videos_natural\training(20).mov,True,True,left,0,64,64,64,2018-10-09 13:25:46.856675,2018-10-09 13:25:50.793901,0:00:03.937226,2,left,1,0.36714541838864534,28,m,1,14,2018_Oct_09_1318,MP_PerceptionTuring2,59.9231373115326,
66,resources/videos_generated\model(vcgpdm)-dataset(walking)-mode(ELBO)-parts(1)-dyn(25)-lvm(26)_final(4)_fail.mov,resources/videos_natural\training(45).mov,False,False,right,0,65,65,65,2018-10-09 13:25:52.277985,2018-10-09 13:25:56.182209,0:00:03.904224,2,right,1,0.4006552279849984,28,m,1,14,2018_Oct_09_1318,MP_PerceptionTuring2,59.9231373115326,
67,resources/videos_generated\model(vcgpdm)-dataset(walking)-mode(ELBO)-parts(2)-dyn(24)-lvm(17)_final(7).mov,resources/videos_natural\training(39).mov,True,True,left,0,66,66,66,2018-10-09 13:25:57.699295,2018-10-09 13:26:01.786529,0:00:04.087234,2,left,1,0.5173912794684838,28,m,1,14,2018_Oct_09_1318,MP_PerceptionTuring2,59.9231373115326,
68,resources/videos_generated\model(vcgpdm)-dataset(walking)-mode(ELBO)-parts(1)-dyn(23)-lvm(26)_final(1)_hip-corrected.mov,resources/videos_natural\training(0).mov,True,False,right,0,67,67,67,2018-10-09 13:26:03.421623,2018-10-09 13:26:07.508857,0:00:04.087234,2,right,1,0.45064391900791634,28,m,1,14,2018_Oct_09_1318,MP_PerceptionTuring2,59.9231373115326,
69,resources/videos_generated\model(vcgpdm)-dataset(walking)-mode(ELBO)-parts(1)-dyn(23)-lvm(24)_final(7).mov,resources/videos_natural\training(26).mov,True,True,left,0,68,68,68,2018-10-09 13:26:09.075946,2018-10-09 13:26:13.096176,0:00:04.020230,2,left,1,0.2834195335399272,28,m,1,14,2018_Oct_09_1318,MP_PerceptionTuring2,59.9231373115326,
70,resources/videos_generated\model(dmp)-dataset(walking)-npsi(50)_final(6).mov,resources/videos_natural\training(7).mov,False,False,right,0,69,69,69,2018-10-09 13:26:14.497256,2018-10-09 13:26:18.567489,0:00:04.070233,2,right,1,0.20040049741419352,28,m,1,14,2018_Oct_09_1318,MP_PerceptionTuring2,59.9231373115326,
71,resources/videos_generated\model(vcgpdm)-dataset(walking)-mode(ELBO)-parts(1)-dyn(23)-lvm(26)_final(5)_hip-corrected.mov,resources/videos_natural\training(32).mov,True,False,right,0,70,70,70,2018-10-09 13:26:19.885564,2018-10-09 13:26:23.905794,0:00:04.020230,2,left,0,0.5340839924213014,28,m,1,14,2018_Oct_09_1318,MP_PerceptionTuring2,59.9231373115326,
72,resources/videos_generated\model(vcgpdm)-dataset(walking)-mode(ELBO)-parts(2)-dyn(26)-lvm(17)_final(9).mov,resources/videos_natural\training(47).mov,True,True,left,0,71,71,71,2018-10-09 13:26:25.556889,2018-10-09 13:26:29.477113,0:00:03.920224,2,left,1,0.4172515661653051,28,m,1,14,2018_Oct_09_1318,MP_PerceptionTuring2,59.9231373115326,
73,resources/videos_generated\model(vcgpdm)-dataset(walking)-mode(ELBO)-parts(2)-dyn(23)-lvm(18)_final(9).mov,resources/videos_natural\training(17).mov,False,True,left,0,72,72,72,2018-10-09 13:26:31.012201,2018-10-09 13:26:35.032431,0:00:04.020230,2,left,1,0.3669755578519016,28,m,1,14,2018_Oct_09_1318,MP_PerceptionTuring2,59.9231373115326,
74,resources/videos_generated\model(tmp)-dataset(walking)-numprim(15)_final(8).mov,resources/videos_natural\training(26).mov,True,False,right,0,73,73,73,2018-10-09 13:26:36.516516,2018-10-09 13:26:40.453741,0:00:03.937225,2,right,1,0.3177373853704921,28,m,1,14,2018_Oct_09_1318,MP_PerceptionTuring2,59.9231373115326,
75,resources/videos_generated\model(tmp)-dataset(walking)-numprim(13)_final(6).mov,resources/videos_natural\training(20).mov,True,False,right,0,74,74,74,2018-10-09 13:26:41.887823,2018-10-09 13:26:45.875051,0:00:03.987228,2,left,0,0.400604330058286,28,m,1,14,2018_Oct_09_1318,MP_PerceptionTuring2,59.9231373115326,
76,resources/videos_generated\model(vcgpdm)-dataset(walking)-mode(ELBO)-parts(1)-dyn(27)-lvm(26)_final(9).mov,resources/videos_natural\training(44).mov,True,True,left,0,75,75,75,2018-10-09 13:26:47.393138,2018-10-09 13:26:51.479372,0:00:04.086234,2,left,1,0.23367238179116612,28,m,1,14,2018_Oct_09_1318,MP_PerceptionTuring2,59.9231373115326,
77,resources/videos_generated\model(vcgpdm)-dataset(walking)-mode(ELBO)-parts(1)-dyn(25)-lvm(22)_final(0).mov,resources/videos_natural\training(48).mov,False,True,left,0,76,76,76,2018-10-09 13:26:52.830449,2018-10-09 13:26:56.934684,0:00:04.104235,2,left,1,0.33380396347274655,28,m,1,14,2018_Oct_09_1318,MP_PerceptionTuring2,59.9231373115326,
78,resources/videos_generated\model(vcgpdm)-dataset(walking)-mode(ELBO)-parts(1)-dyn(28)-lvm(25)_final(7).mov,resources/videos_natural\training(20).mov,True,False,right,0,77,77,77,2018-10-09 13:26:58.385767,2018-10-09 13:27:02.305991,0:00:03.920224,2,right,1,0.3171232973663791,28,m,1,14,2018_Oct_09_1318,MP_PerceptionTuring2,59.9231373115326,
79,resources/videos_generated\model(vcgpdm)-dataset(walking)-mode(ELBO)-parts(1)-dyn(25)-lvm(23)_final(7).mov,resources/videos_natural\training(1).mov,False,True,left,0,78,78,78,2018-10-09 13:27:03.740073,2018-10-09 13:27:07.810306,0:00:04.070233,2,left,1,0.21710043847497218,28,m,1,14,2018_Oct_09_1318,MP_PerceptionTuring2,59.9231373115326,
80,resources/videos_generated\model(vcgpdm)-dataset(walking)-mode(ELBO)-parts(2)-dyn(27)-lvm(22)_final(7).mov,resources/videos_natural\training(24).mov,True,False,right,0,79,79,79,2018-10-09 13:27:09.145382,2018-10-09 13:27:13.165612,0:00:04.020230,2,right,1,0.30055828098738857,28,m,1,14,2018_Oct_09_1318,MP_PerceptionTuring2,59.9231373115326,
81,resources/videos_generated\model(dmp)-dataset(walking)-npsi(70)_final(8).mov,resources/videos_natural\training(24).mov,False,True,left,0,80,80,80,2018-10-09 13:27:14.582693,2018-10-09 13:27:18.486916,0:00:03.904223,2,right,0,0.250394308346813,28,m,1,14,2018_Oct_09_1318,MP_PerceptionTuring2,59.9231373115326,
82,resources/videos_generated\model(vcgpdm)-dataset(walking)-mode(ELBO)-parts(1)-dyn(25)-lvm(25)_final(2).mov,resources/videos_natural\training(34).mov,False,False,right,0,81,81,81,2018-10-09 13:27:19.853994,2018-10-09 13:27:23.741217,0:00:03.887223,2,right,1,0.21702243514369002,28,m,1,14,2018_Oct_09_1318,MP_PerceptionTuring2,59.9231373115326,
83,resources/videos_generated\model(vcgpdm)-dataset(walking)-mode(ELBO)-parts(1)-dyn(23)-lvm(28)_final(2).mov,resources/videos_natural\training(29).mov,True,False,right,0,82,82,82,2018-10-09 13:27:25.075293,2018-10-09 13:27:28.995517,0:00:03.920224,2,left,0,0.28376979560403015,28,m,1,14,2018_Oct_09_1318,MP_PerceptionTuring2,59.9231373115326,
84,resources/videos_generated\model(vcgpdm)-dataset(walking)-mode(ELBO)-parts(2)-dyn(28)-lvm(23)_final(1).mov,resources/videos_natural\training(6).mov,False,False,right,0,83,83,83,2018-10-09 13:27:30.396597,2018-10-09 13:27:34.299821,0:00:03.903224,2,right,1,0.2670451585079263,28,m,1,14,2018_Oct_09_1318,MP_PerceptionTuring2,59.9231373115326,
85,resources/videos_generated\model(vcgpdm)-dataset(walking)-mode(ELBO)-parts(1)-dyn(25)-lvm(26)_final(8).mov,resources/videos_natural\training(27).mov,False,False,right,0,84,84,84,2018-10-09 13:27:35.684900,2018-10-09 13:27:39.555121,0:00:03.870221,2,right,1,0.23380037953575084,28,m,1,14,2018_Oct_09_1318,MP_PerceptionTuring2,59.9231373115326,
86,resources/videos_generated\model(vcgpdm)-dataset(walking)-mode(ELBO)-parts(2)-dyn(22)-lvm(21)_final(5).mov,resources/videos_natural\training(13).mov,True,True,left,0,85,85,85,2018-10-09 13:27:40.905199,2018-10-09 13:27:44.825423,0:00:03.920224,2,left,1,0.23374406052812446,28,m,1,14,2018_Oct_09_1318,MP_PerceptionTuring2,59.9231373115326,
87,resources/videos_generated\model(vcgpdm)-dataset(walking)-mode(ELBO)-parts(1)-dyn(24)-lvm(25)_final(4).mov,resources/videos_natural\training(25).mov,True,False,right,0,86,86,86,2018-10-09 13:27:46.176500,2018-10-09 13:27:50.113725,0:00:03.937225,2,left,0,0.3504421644449849,28,m,1,14,2018_Oct_09_1318,MP_PerceptionTuring2,59.9231373115326,
88,resources/videos_generated\model(vcgpdm)-dataset(walking)-mode(ELBO)-parts(2)-dyn(25)-lvm(18)_final(7).mov,resources/videos_natural\training(30).mov,True,True,left,0,87,87,87,2018-10-09 13:27:51.581809,2018-10-09 13:27:55.502033,0:00:03.920224,2,left,1,0.23360160656739026,28,m,1,14,2018_Oct_09_1318,MP_PerceptionTuring2,59.9231373115326,
89,resources/videos_generated\model(vcgpdm)-dataset(walking)-mode(ELBO)-parts(1)-dyn(26)-lvm(25)_final(1).mov,resources/videos_natural\training(7).mov,True,True,left,0,88,88,88,2018-10-09 13:27:56.853111,2018-10-09 13:28:00.739333,0:00:03.886222,2,left,1,0.2504187032111531,28,m,1,14,2018_Oct_09_1318,MP_PerceptionTuring2,59.9231373115326,
90,resources/videos_generated\model(vcgpdm)-dataset(walking)-mode(ELBO)-parts(2)-dyn(22)-lvm(21)_final(1).mov,resources/videos_natural\training(32).mov,True,True,left,0,89,89,89,2018-10-09 13:28:02.107411,2018-10-09 13:28:06.027635,0:00:03.920224,2,left,1,0.267119547785569,28,m,1,14,2018_Oct_09_1318,MP_PerceptionTuring2,59.9231373115326,
91,resources/videos_generated\model(tmp)-dataset(walking)-numprim(11)_final(8).mov,resources/videos_natural\training(8).mov,False,True,left,0,90,90,90,2018-10-09 13:28:38.205476,2018-10-09 13:28:42.091698,0:00:03.886222,3,right,0,0.38396944196915683,28,m,1,14,2018_Oct_09_1318,MP_PerceptionTuring2,59.9231373115326,
92,resources/videos_generated\model(vcgpdm)-dataset(walking)-mode(ELBO)-parts(1)-dyn(23)-lvm(24)_final(1).mov,resources/videos_natural\training(26).mov,False,True,left,0,91,91,91,2018-10-09 13:28:43.593784,2018-10-09 13:28:47.513008,0:00:03.919224,3,left,1,0.3005655090953496,28,m,1,14,2018_Oct_09_1318,MP_PerceptionTuring2,59.9231373115326,
93,resources/videos_generated\model(vcgpdm)-dataset(walking)-mode(ELBO)-parts(2)-dyn(22)-lvm(23)_final(9).mov,resources/videos_natural\training(3).mov,True,False,right,0,92,92,92,2018-10-09 13:28:48.931089,2018-10-09 13:28:52.818312,0:00:03.887223,3,right,1,0.5006726657954914,28,m,1,14,2018_Oct_09_1318,MP_PerceptionTuring2,59.9231373115326,
94,resources/videos_generated\model(vcgpdm)-dataset(walking)-mode(ELBO)-parts(2)-dyn(27)-lvm(20)_final(7).mov,resources/videos_natural\training(36).mov,True,True,left,0,93,93,93,2018-10-09 13:28:54.436404,2018-10-09 13:28:58.372629,0:00:03.936225,3,left,1,0.4506448225213262,28,m,1,14,2018_Oct_09_1318,MP_PerceptionTuring2,59.9231373115326,
95,resources/videos_generated\model(vcgpdm)-dataset(walking)-mode(ELBO)-parts(2)-dyn(25)-lvm(20)_final(9).mov,resources/videos_natural\training(43).mov,False,True,left,0,94,94,94,2018-10-09 13:28:59.940719,2018-10-09 13:29:03.843942,0:00:03.903223,3,left,1,0.45080805729230633,28,m,1,14,2018_Oct_09_1318,MP_PerceptionTuring2,59.9231373115326,
96,resources/videos_generated\model(vcgpdm)-dataset(walking)-mode(ELBO)-parts(2)-dyn(24)-lvm(19)_final(1).mov,resources/videos_natural\training(39).mov,False,True,left,0,95,95,95,2018-10-09 13:29:05.412032,2018-10-09 13:29:09.515267,0:00:04.103235,3,right,0,0.5843512667711366,28,m,1,14,2018_Oct_09_1318,MP_PerceptionTuring2,59.9231373115326,
97,resources/videos_generated\model(tmp)-dataset(walking)-numprim(11)_final(2).mov,resources/videos_natural\training(32).mov,True,False,right,0,96,96,96,2018-10-09 13:29:11.217364,2018-10-09 13:29:15.137588,0:00:03.920224,3,left,0,0.2670906353537248,28,m,1,14,2018_Oct_09_1318,MP_PerceptionTuring2,59.9231373115326,
98,resources/videos_generated\model(dmp)-dataset(walking)-npsi(80)_final(2).mov,resources/videos_natural\training(44).mov,False,False,right,0,97,97,97,2018-10-09 13:29:16.521667,2018-10-09 13:29:20.441892,0:00:03.920225,3,right,1,0.5173370686588896,28,m,1,14,2018_Oct_09_1318,MP_PerceptionTuring2,59.9231373115326,
99,resources/videos_generated\model(tmp)-dataset(walking)-numprim(12)_final(2).mov,resources/videos_natural\training(2).mov,True,False,right,0,98,98,98,2018-10-09 13:29:22.076985,2018-10-09 13:29:26.180220,0:00:04.103235,3,left,0,0.3673610569421726,28,m,1,14,2018_Oct_09_1318,MP_PerceptionTuring2,59.9231373115326,
100,resources/videos_generated\model(tmp)-dataset(walking)-numprim(12)_final(4).mov,resources/videos_natural\training(11).mov,False,True,left,0,99,99,99,2018-10-09 13:29:27.664305,2018-10-09 13:29:31.601530,0:00:03.937225,3,right,0,0.31731875745208526,28,m,1,14,2018_Oct_09_1318,MP_PerceptionTuring2,59.9231373115326,
101,resources/videos_generated\model(vcgpdm)-dataset(walking)-mode(ELBO)-parts(1)-dyn(27)-lvm(24)_final(3).mov,resources/videos_natural\training(27).mov,False,True,left,0,100,100,100,2018-10-09 13:29:33.035612,2018-10-09 13:29:37.105845,0:00:04.070233,3,left,1,0.4173268589563577,28,m,1,14,2018_Oct_09_1318,MP_PerceptionTuring2,59.9231373115326,
102,resources/videos_generated\model(dmp)-dataset(walking)-npsi(90)_final(0).mov,resources/videos_natural\training(28).mov,True,False,right,0,101,101,101,2018-10-09 13:29:38.640933,2018-10-09 13:29:42.744167,0:00:04.103234,3,left,0,0.3172892426780436,28,m,1,14,2018_Oct_09_1318,MP_PerceptionTuring2,59.9231373115326,
103,resources/videos_generated\model(vcgpdm)-dataset(walking)-mode(ELBO)-parts(1)-dyn(26)-lvm(23)_final(5).mov,resources/videos_natural\training(38).mov,True,False,right,0,102,102,102,2018-10-09 13:29:44.179249,2018-10-09 13:29:48.099474,0:00:03.920225,3,right,1,0.4839781458156267,28,m,1,14,2018_Oct_09_1318,MP_PerceptionTuring2,59.9231373115326,
104,resources/videos_generated\model(vcgpdm)-dataset(walking)-mode(ELBO)-parts(1)-dyn(25)-lvm(23)_final(0).mov,resources/videos_natural\training(36).mov,False,False,right,0,103,103,103,2018-10-09 13:29:49.700565,2018-10-09 13:29:53.620789,0:00:03.920224,3,right,1,0.4839944090585959,28,m,1,14,2018_Oct_09_1318,MP_PerceptionTuring2,59.9231373115326,
105,resources/videos_generated\model(vcgpdm)-dataset(walking)-mode(ELBO)-parts(2)-dyn(25)-lvm(22)_final(9).mov,resources/videos_natural\training(5).mov,False,False,right,0,104,104,104,2018-10-09 13:29:55.221881,2018-10-09 13:29:59.125104,0:00:03.903223,3,right,1,0.26709665877706357,28,m,1,14,2018_Oct_09_1318,MP_PerceptionTuring2,59.9231373115326,
106,resources/videos_generated\model(vcgpdm)-dataset(walking)-mode(ELBO)-parts(2)-dyn(22)-lvm(17)_final(1).mov,resources/videos_natural\training(41).mov,True,True,left,0,105,105,105,2018-10-09 13:30:00.510183,2018-10-09 13:30:04.413407,0:00:03.903224,3,left,1,0.3004290785579542,28,m,1,14,2018_Oct_09_1318,MP_PerceptionTuring2,59.9231373115326,
107,resources/videos_generated\model(vcgpdm)-dataset(walking)-mode(ELBO)-parts(2)-dyn(28)-lvm(23)_final(7).mov,resources/videos_natural\training(3).mov,True,True,left,0,106,106,106,2018-10-09 13:30:05.831488,2018-10-09 13:30:09.767713,0:00:03.936225,3,left,1,0.35057919732457776,28,m,1,14,2018_Oct_09_1318,MP_PerceptionTuring2,59.9231373115326,
108,resources/videos_generated\model(tmp)-dataset(walking)-numprim(11)_final(0).mov,resources/videos_natural\training(47).mov,True,True,left,0,107,107,107,2018-10-09 13:30:11.235797,2018-10-09 13:30:15.123019,0:00:03.887222,3,right,0,0.2671352086861134,28,m,1,14,2018_Oct_09_1318,MP_PerceptionTuring2,59.9231373115326,
109,resources/videos_generated\model(vcgpdm)-dataset(walking)-mode(ELBO)-parts(2)-dyn(28)-lvm(23)_final(9).mov,resources/videos_natural\training(31).mov,False,True,left,0,108,108,108,2018-10-09 13:30:16.507098,2018-10-09 13:30:20.393321,0:00:03.886223,3,right,0,0.2670267870666976,28,m,1,14,2018_Oct_09_1318,MP_PerceptionTuring2,59.9231373115326,
110,resources/videos_generated\model(vcgpdm)-dataset(walking)-mode(ELBO)-parts(1)-dyn(25)-lvm(22)_final(6).mov,resources/videos_natural\training(7).mov,False,False,right,0,109,109,109,2018-10-09 13:30:21.778400,2018-10-09 13:30:25.681623,0:00:03.903223,3,right,1,0.2506340405936953,28,m,1,14,2018_Oct_09_1318,MP_PerceptionTuring2,59.9231373115326,
111,resources/videos_generated\model(vcgpdm)-dataset(walking)-mode(ELBO)-parts(2)-dyn(27)-lvm(20)_final(5).mov,resources/videos_natural\training(37).mov,False,False,right,0,110,110,110,2018-10-09 13:30:27.049701,2018-10-09 13:30:30.935924,0:00:03.886223,3,right,1,0.30047877179981697,28,m,1,14,2018_Oct_09_1318,MP_PerceptionTuring2,59.9231373115326,
112,resources/videos_generated\model(vcgpdm)-dataset(walking)-mode(ELBO)-parts(1)-dyn(26)-lvm(23)_final(9).mov,resources/videos_natural\training(22).mov,False,True,left,0,111,111,111,2018-10-09 13:30:32.354005,2018-10-09 13:30:36.424238,0:00:04.070233,3,right,0,0.2838357520890895,28,m,1,14,2018_Oct_09_1318,MP_PerceptionTuring2,59.9231373115326,
113,resources/videos_generated\model(vcgpdm)-dataset(walking)-mode(ELBO)-parts(2)-dyn(26)-lvm(19)_final(5).mov,resources/videos_natural\training(29).mov,False,True,left,0,112,112,112,2018-10-09 13:30:37.825318,2018-10-09 13:30:41.762543,0:00:03.937225,3,right,0,0.35059847227921637,28,m,1,14,2018_Oct_09_1318,MP_PerceptionTuring2,59.9231373115326,
114,resources/videos_generated\model(vcgpdm)-dataset(walking)-mode(ELBO)-parts(2)-dyn(28)-lvm(17)_final(7).mov,resources/videos_natural\training(29).mov,True,False,right,0,113,113,113,2018-10-09 13:30:43.229627,2018-10-09 13:30:47.316861,0:00:04.087234,3,right,1,0.233711232871201,28,m,1,14,2018_Oct_09_1318,MP_PerceptionTuring2,59.9231373115326,
115,resources/videos_generated\model(vcgpdm)-dataset(walking)-mode(ELBO)-parts(1)-dyn(25)-lvm(26)_final(6)_fail.mov,resources/videos_natural\training(21).mov,False,True,left,0,114,114,114,2018-10-09 13:30:48.667938,2018-10-09 13:30:52.605163,0:00:03.937225,3,left,1,0.2505448939291455,28,m,1,14,2018_Oct_09_1318,MP_PerceptionTuring2,59.9231373115326,
116,resources/videos_generated\model(vcgpdm)-dataset(walking)-mode(ELBO)-parts(2)-dyn(23)-lvm(18)_final(5).mov,resources/videos_natural\training(39).mov,False,False,right,0,115,115,115,2018-10-09 13:30:53.972241,2018-10-09 13:30:57.859464,0:00:03.887223,3,right,1,0.26709756229047343,28,m,1,14,2018_Oct_09_1318,MP_PerceptionTuring2,59.9231373115326,
117,resources/videos_generated\model(vcgpdm)-dataset(walking)-mode(ELBO)-parts(1)-dyn(25)-lvm(24)_final(1).mov,resources/videos_natural\training(19).mov,False,True,left,0,116,116,116,2018-10-09 13:30:59.243543,2018-10-09 13:31:03.330777,0:00:04.087234,3,left,1,0.35044818786832366,28,m,1,14,2018_Oct_09_1318,MP_PerceptionTuring2,59.9231373115326,
118,resources/videos_generated\model(vcgpdm)-dataset(walking)-mode(ELBO)-parts(1)-dyn(25)-lvm(28)_final(0).mov,resources/videos_natural\training(30).mov,False,False,right,0,117,117,117,2018-10-09 13:31:04.798861,2018-10-09 13:31:08.735086,0:00:03.936225,3,right,1,0.23378682683369334,28,m,1,14,2018_Oct_09_1318,MP_PerceptionTuring2,59.9231373115326,
119,resources/videos_generated\model(vcgpdm)-dataset(walking)-mode(ELBO)-parts(2)-dyn(26)-lvm(19)_final(3).mov,resources/videos_natural\training(40).mov,True,False,right,0,118,118,118,2018-10-09 13:31:10.086163,2018-10-09 13:31:14.106393,0:00:04.020230,3,left,0,0.3003911309911018,28,m,1,14,2018_Oct_09_1318,MP_PerceptionTuring2,59.9231373115326,
120,resources/videos_generated\model(vcgpdm)-dataset(walking)-mode(ELBO)-parts(2)-dyn(22)-lvm(23)_final(1).mov,resources/videos_natural\training(37).mov,False,True,left,0,119,119,119,2018-10-09 13:31:15.524474,2018-10-09 13:31:19.444698,0:00:03.920224,3,left,1,0.4673679537618227,28,m,1,14,2018_Oct_09_1318,MP_PerceptionTuring2,59.9231373115326,
121,resources/videos_generated\model(vcgpdm)-dataset(walking)-mode(ELBO)-parts(1)-dyn(27)-lvm(28)_final(1).mov,resources/videos_natural\training(24).mov,False,True,left,0,120,120,120,2018-10-09 13:31:21.029789,2018-10-09 13:31:24.933012,0:00:03.903223,3,right,0,0.3173491757397642,28,m,1,14,2018_Oct_09_1318,MP_PerceptionTuring2,59.9231373115326,
122,resources/videos_generated\model(vcgpdm)-dataset(walking)-mode(ELBO)-parts(1)-dyn(24)-lvm(27)_final(6).mov,resources/videos_natural\training(24).mov,False,False,right,0,121,121,121,2018-10-09 13:31:26.367094,2018-10-09 13:31:30.337321,0:00:03.970227,3,right,1,0.3171961807881871,28,m,1,14,2018_Oct_09_1318,MP_PerceptionTuring2,59.9231373115326,
123,resources/videos_generated\model(vcgpdm)-dataset(walking)-mode(ELBO)-parts(2)-dyn(27)-lvm(22)_final(9).mov,resources/videos_natural\training(36).mov,True,False,right,0,122,122,122,2018-10-09 13:31:31.772403,2018-10-09 13:31:35.675627,0:00:03.903224,3,right,1,0.6176990462813592,28,m,1,14,2018_Oct_09_1318,MP_PerceptionTuring2,59.9231373115326,
124,resources/videos_generated\model(vcgpdm)-dataset(walking)-mode(ELBO)-parts(2)-dyn(26)-lvm(19)_final(7).mov,resources/videos_natural\training(12).mov,False,True,left,0,123,123,123,2018-10-09 13:31:37.410726,2018-10-09 13:31:41.446957,0:00:04.036231,3,right,0,0.2670903341825124,28,m,1,14,2018_Oct_09_1318,MP_PerceptionTuring2,59.9231373115326,
125,resources/videos_generated\model(vcgpdm)-dataset(walking)-mode(ELBO)-parts(2)-dyn(25)-lvm(18)_final(3).mov,resources/videos_natural\training(12).mov,True,True,left,0,124,124,124,2018-10-09 13:31:42.832036,2018-10-09 13:31:46.902269,0:00:04.070233,3,left,1,0.283802623261181,28,m,1,14,2018_Oct_09_1318,MP_PerceptionTuring2,59.9231373115326,
126,resources/videos_generated\model(vcgpdm)-dataset(walking)-mode(ELBO)-parts(2)-dyn(22)-lvm(19)_final(5).mov,resources/videos_natural\training(1).mov,True,True,left,0,125,125,125,2018-10-09 13:31:48.303349,2018-10-09 13:31:52.356581,0:00:04.053232,3,left,1,0.2671129220198054,28,m,1,14,2018_Oct_09_1318,MP_PerceptionTuring2,59.9231373115326,
127,resources/videos_generated\model(vcgpdm)-dataset(walking)-mode(ELBO)-parts(2)-dyn(24)-lvm(21)_final(3).mov,resources/videos_natural\training(18).mov,True,False,right,0,126,126,126,2018-10-09 13:31:53.740660,2018-10-09 13:31:57.694886,0:00:03.954226,3,left,0,0.2670864189574331,28,m,1,14,2018_Oct_09_1318,MP_PerceptionTuring2,59.9231373115326,
128,resources/videos_generated\model(vcgpdm)-dataset(walking)-mode(ELBO)-parts(1)-dyn(25)-lvm(28)_final(6).mov,resources/videos_natural\training(1).mov,False,False,right,0,127,127,127,2018-10-09 13:31:59.078965,2018-10-09 13:32:03.032191,0:00:03.953226,3,right,1,0.23385639737261954,28,m,1,14,2018_Oct_09_1318,MP_PerceptionTuring2,59.9231373115326,
129,resources/videos_generated\model(vcgpdm)-dataset(walking)-mode(ELBO)-parts(2)-dyn(25)-lvm(18)_final(9).mov,resources/videos_natural\training(20).mov,True,False,right,0,128,128,128,2018-10-09 13:32:04.383269,2018-10-09 13:32:08.470502,0:00:04.087233,3,right,1,0.30052153810515847,28,m,1,14,2018_Oct_09_1318,MP_PerceptionTuring2,59.9231373115326,
130,resources/videos_generated\model(vcgpdm)-dataset(walking)-mode(ELBO)-parts(1)-dyn(23)-lvm(22)_final(3)_fail.mov,resources/videos_natural\training(14).mov,True,False,right,0,129,129,129,2018-10-09 13:32:09.888584,2018-10-09 13:32:13.958816,0:00:04.070232,3,right,1,0.4005193997900278,28,m,1,14,2018_Oct_09_1318,MP_PerceptionTuring2,59.9231373115326,
131,resources/videos_generated\model(vcgpdm)-dataset(walking)-mode(ELBO)-parts(1)-dyn(27)-lvm(26)_final(1).mov,resources/videos_natural\training(30).mov,False,True,left,0,130,130,130,2018-10-09 13:32:15.476903,2018-10-09 13:32:19.380126,0:00:03.903223,3,left,1,0.33377866509499654,28,m,1,14,2018_Oct_09_1318,MP_PerceptionTuring2,59.9231373115326,
132,resources/videos_generated\model(vcgpdm)-dataset(walking)-mode(ELBO)-parts(2)-dyn(27)-lvm(22)_final(1).mov,resources/videos_natural\training(42).mov,False,True,left,0,131,131,131,2018-10-09 13:32:20.831209,2018-10-09 13:32:24.934444,0:00:04.103235,3,left,1,0.23381513692288536,28,m,1,14,2018_Oct_09_1318,MP_PerceptionTuring2,59.9231373115326,
133,resources/videos_generated\model(vcgpdm)-dataset(walking)-mode(ELBO)-parts(2)-dyn(22)-lvm(23)_final(3).mov,resources/videos_natural\training(0).mov,True,True,left,0,132,132,132,2018-10-09 13:32:26.285521,2018-10-09 13:32:30.322752,0:00:04.037231,3,left,1,0.30054563179851357,28,m,1,14,2018_Oct_09_1318,MP_PerceptionTuring2,59.9231373115326,
134,resources/videos_generated\model(vcgpdm)-dataset(walking)-mode(ELBO)-parts(1)-dyn(27)-lvm(24)_final(9).mov,resources/videos_natural\training(45).mov,False,False,right,0,133,133,133,2018-10-09 13:32:31.740833,2018-10-09 13:32:35.711060,0:00:03.970227,3,right,1,0.2671632176043204,28,m,1,14,2018_Oct_09_1318,MP_PerceptionTuring2,59.9231373115326,
135,resources/videos_generated\model(vcgpdm)-dataset(walking)-mode(ELBO)-parts(1)-dyn(26)-lvm(25)_final(9).mov,resources/videos_natural\training(29).mov,False,False,right,0,134,134,134,2018-10-09 13:32:37.095140,2018-10-09 13:32:41.165372,0:00:04.070232,3,right,1,0.6508992519209187,28,m,1,14,2018_Oct_09_1318,MP_PerceptionTuring2,59.9231373115326,
136,resources/videos_generated\model(vcgpdm)-dataset(walking)-mode(ELBO)-parts(1)-dyn(23)-lvm(28)_final(4)_hip-corrected.mov,resources/videos_natural\training(44).mov,True,True,left,0,135,135,135,2018-10-09 13:33:14.360271,2018-10-09 13:33:18.314497,0:00:03.954226,4,left,1,0.2837815412794953,28,m,1,14,2018_Oct_09_1318,MP_PerceptionTuring2,59.9231373115326,
137,resources/videos_generated\model(vcgpdm)-dataset(walking)-mode(ELBO)-parts(1)-dyn(22)-lvm(23)_final(2).mov,resources/videos_natural\training(39).mov,False,False,right,0,136,136,136,2018-10-09 13:33:19.715577,2018-10-09 13:33:23.635802,0:00:03.920225,4,right,1,0.28379870803587437,28,m,1,14,2018_Oct_09_1318,MP_PerceptionTuring2,59.9231373115326,
138,resources/videos_generated\model(vcgpdm)-dataset(walking)-mode(ELBO)-parts(2)-dyn(24)-lvm(23)_final(3).mov,resources/videos_natural\training(18).mov,True,False,right,0,137,137,137,2018-10-09 13:33:25.036882,2018-10-09 13:33:29.073113,0:00:04.036231,4,left,0,0.26711081382177326,28,m,1,14,2018_Oct_09_1318,MP_PerceptionTuring2,59.9231373115326,
139,resources/videos_generated\model(vcgpdm)-dataset(walking)-mode(ELBO)-parts(1)-dyn(27)-lvm(28)_final(7).mov,resources/videos_natural\training(43).mov,True,True,left,0,138,138,138,2018-10-09 13:33:30.458192,2018-10-09 13:33:34.344414,0:00:03.886222,4,left,1,0.2838661703767684,28,m,1,14,2018_Oct_09_1318,MP_PerceptionTuring2,59.9231373115326,
140,resources/videos_generated\model(vcgpdm)-dataset(walking)-mode(ELBO)-parts(2)-dyn(26)-lvm(23)_final(1).mov,resources/videos_natural\training(8).mov,True,False,right,0,139,139,139,2018-10-09 13:33:35.745494,2018-10-09 13:33:39.665718,0:00:03.920224,4,right,1,0.300460701530028,28,m,1,14,2018_Oct_09_1318,MP_PerceptionTuring2,59.9231373115326,
141,resources/videos_generated\model(vcgpdm)-dataset(walking)-mode(ELBO)-parts(1)-dyn(28)-lvm(24)_final(2).mov,resources/videos_natural\training(21).mov,False,True,left,0,140,140,140,2018-10-09 13:33:41.083800,2018-10-09 13:33:45.021025,0:00:03.937225,4,right,0,0.3006049625178093,28,m,1,14,2018_Oct_09_1318,MP_PerceptionTuring2,59.9231373115326,
142,resources/videos_generated\model(vcgpdm)-dataset(walking)-mode(ELBO)-parts(1)-dyn(25)-lvm(28)_final(2).mov,resources/videos_natural\training(44).mov,False,False,right,0,141,141,141,2018-10-09 13:33:46.438106,2018-10-09 13:33:50.525340,0:00:04.087234,4,right,1,0.2504090657339475,28,m,1,14,2018_Oct_09_1318,MP_PerceptionTuring2,59.9231373115326,
143,resources/videos_generated\model(dmp)-dataset(walking)-npsi(100)_final(4).mov,resources/videos_natural\training(8).mov,False,True,left,0,142,142,142,2018-10-09 13:33:51.893418,2018-10-09 13:33:55.846644,0:00:03.953226,4,right,0,0.1005315369877735,28,m,1,14,2018_Oct_09_1318,MP_PerceptionTuring2,59.9231373115326,
144,resources/videos_generated\model(vcgpdm)-dataset(walking)-mode(ELBO)-parts(1)-dyn(28)-lvm(24)_final(7).mov,resources/videos_natural\training(47).mov,True,True,left,0,143,143,143,2018-10-09 13:33:57.064714,2018-10-09 13:34:01.050942,0:00:03.986228,4,left,1,0.6674989029841072,28,m,1,14,2018_Oct_09_1318,MP_PerceptionTuring2,59.9231373115326,
145,resources/videos_generated\model(vcgpdm)-dataset(walking)-mode(ELBO)-parts(1)-dyn(26)-lvm(23)_final(1).mov,resources/videos_natural\training(5).mov,True,False,right,0,144,144,144,2018-10-09 13:34:02.836044,2018-10-09 13:34:06.889276,0:00:04.053232,4,right,1,0.2670921412095595,28,m,1,14,2018_Oct_09_1318,MP_PerceptionTuring2,59.9231373115326,
146,resources/videos_generated\model(vcgpdm)-dataset(walking)-mode(ELBO)-parts(2)-dyn(28)-lvm(19)_final(9).mov,resources/videos_natural\training(45).mov,False,True,left,0,145,145,145,2018-10-09 13:34:08.274355,2018-10-09 13:34:12.377589,0:00:04.103234,4,right,0,0.3671701144239705,28,m,1,14,2018_Oct_09_1318,MP_PerceptionTuring2,59.9231373115326,
147,resources/videos_generated\model(vcgpdm)-dataset(walking)-mode(ELBO)-parts(1)-dyn(28)-lvm(25)_final(9).mov,resources/videos_natural\training(28).mov,False,True,left,0,146,146,146,2018-10-09 13:34:13.862674,2018-10-09 13:34:17.848902,0:00:03.986228,4,left,1,0.46731283943881863,28,m,1,14,2018_Oct_09_1318,MP_PerceptionTuring2,59.9231373115326,
148,resources/videos_generated\model(vcgpdm)-dataset(walking)-mode(ELBO)-parts(2)-dyn(24)-lvm(17)_final(1).mov,resources/videos_natural\training(48).mov,False,True,left,0,147,147,147,2018-10-09 13:34:19.433993,2018-10-09 13:34:23.404220,0:00:03.970227,4,right,0,0.23380037953575084,28,m,1,14,2018_Oct_09_1318,MP_PerceptionTuring2,59.9231373115326,
149,resources/videos_generated\model(vcgpdm)-dataset(walking)-mode(ELBO)-parts(2)-dyn(23)-lvm(18)_final(3).mov,resources/videos_natural\training(2).mov,False,False,right,0,148,148,148,2018-10-09 13:34:24.755297,2018-10-09 13:34:28.775527,0:00:04.020230,4,right,1,0.31712841727630803,28,m,1,14,2018_Oct_09_1318,MP_PerceptionTuring2,59.9231373115326,
150,resources/videos_generated\model(vcgpdm)-dataset(walking)-mode(ELBO)-parts(1)-dyn(22)-lvm(25)_final(2).mov,resources/videos_natural\training(12).mov,False,True,left,0,149,149,149,2018-10-09 13:34:30.209609,2018-10-09 13:34:34.246840,0:00:04.037231,4,left,1,0.2838170794771031,28,m,1,14,2018_Oct_09_1318,MP_PerceptionTuring2,59.9231373115326,
151,resources/videos_generated\model(vcgpdm)-dataset(walking)-mode(ELBO)-parts(1)-dyn(22)-lvm(25)_final(4).mov,resources/videos_natural\training(36).mov,False,False,right,0,150,150,150,2018-10-09 13:34:35.647920,2018-10-09 13:34:39.601147,0:00:03.953227,4,right,1,0.2504030423108361,28,m,1,14,2018_Oct_09_1318,MP_PerceptionTuring2,59.9231373115326,
152,resources/videos_generated\model(vcgpdm)-dataset(walking)-mode(ELBO)-parts(1)-dyn(26)-lvm(22)_final(0).mov,resources/videos_natural\training(4).mov,True,True,left,0,151,151,151,2018-10-09 13:34:40.969225,2018-10-09 13:34:44.972454,0:00:04.003229,4,left,1,0.2836393884899735,28,m,1,14,2018_Oct_09_1318,MP_PerceptionTuring2,59.9231373115326,
153,resources/videos_generated\model(vcgpdm)-dataset(walking)-mode(ELBO)-parts(1)-dyn(22)-lvm(22)_final(4).mov,resources/videos_natural\training(25).mov,True,True,left,0,152,152,152,2018-10-09 13:34:46.373534,2018-10-09 13:34:50.343761,0:00:03.970227,4,left,1,0.31721876862548015,28,m,1,14,2018_Oct_09_1318,MP_PerceptionTuring2,59.9231373115326,
154,resources/videos_generated\model(vcgpdm)-dataset(walking)-mode(ELBO)-parts(2)-dyn(26)-lvm(19)_final(1).mov,resources/videos_natural\training(14).mov,True,False,right,0,153,153,153,2018-10-09 13:34:51.778843,2018-10-09 13:34:55.849076,0:00:04.070233,4,left,0,0.2671177407585219,28,m,1,14,2018_Oct_09_1318,MP_PerceptionTuring2,59.9231373115326,
155,resources/videos_generated\model(vcgpdm)-dataset(walking)-mode(ELBO)-parts(2)-dyn(25)-lvm(22)_final(1).mov,resources/videos_natural\training(26).mov,True,False,right,0,154,154,154,2018-10-09 13:34:57.233155,2018-10-09 13:35:01.186381,0:00:03.953226,4,right,1,0.2671873112974481,28,m,1,14,2018_Oct_09_1318,MP_PerceptionTuring2,59.9231373115326,
156,resources/videos_generated\model(dmp)-dataset(walking)-npsi(90)_final(4).mov,resources/videos_natural\training(5).mov,True,False,right,0,155,155,155,2018-10-09 13:35:02.571460,2018-10-09 13:35:06.491685,0:00:03.920225,4,left,0,0.2504440015889031,28,m,1,14,2018_Oct_09_1318,MP_PerceptionTuring2,59.9231373115326,
157,resources/videos_generated\model(vcgpdm)-dataset(walking)-mode(ELBO)-parts(2)-dyn(26)-lvm(21)_final(5).mov,resources/videos_natural\training(0).mov,False,False,right,0,156,156,156,2018-10-09 13:35:07.858763,2018-10-09 13:35:11.761986,0:00:03.903223,4,right,1,0.25037141933830753,28,m,1,14,2018_Oct_09_1318,MP_PerceptionTuring2,59.9231373115326,
158,resources/videos_generated\model(vcgpdm)-dataset(walking)-mode(ELBO)-parts(2)-dyn(25)-lvm(20)_final(3).mov,resources/videos_natural\training(7).mov,False,False,right,0,157,157,157,2018-10-09 13:35:13.130064,2018-10-09 13:35:17.100291,0:00:03.970227,4,right,1,0.3004923245023292,28,m,1,14,2018_Oct_09_1318,MP_PerceptionTuring2,59.9231373115326,
159,resources/videos_generated\model(vcgpdm)-dataset(walking)-mode(ELBO)-parts(1)-dyn(23)-lvm(24)_final(3).mov,resources/videos_natural\training(20).mov,False,False,right,0,158,158,158,2018-10-09 13:35:18.518373,2018-10-09 13:35:22.454598,0:00:03.936225,4,right,1,0.2838164771344509,28,m,1,14,2018_Oct_09_1318,MP_PerceptionTuring2,59.9231373115326,
160,resources/videos_generated\model(vcgpdm)-dataset(walking)-mode(ELBO)-parts(1)-dyn(23)-lvm(26)_final(7).mov,resources/videos_natural\training(44).mov,True,False,right,0,159,159,159,2018-10-09 13:35:23.855678,2018-10-09 13:35:27.825905,0:00:03.970227,4,left,0,0.4338960917318673,28,m,1,14,2018_Oct_09_1318,MP_PerceptionTuring2,59.9231373115326,
161,resources/videos_generated\model(vcgpdm)-dataset(walking)-mode(ELBO)-parts(1)-dyn(26)-lvm(27)_final(9).mov,resources/videos_natural\training(35).mov,True,True,left,0,160,160,160,2018-10-09 13:35:29.377994,2018-10-09 13:35:33.464227,0:00:04.086233,4,left,1,0.3671318656859057,28,m,1,14,2018_Oct_09_1318,MP_PerceptionTuring2,59.9231373115326,
162,resources/videos_generated\model(vcgpdm)-dataset(walking)-mode(ELBO)-parts(1)-dyn(23)-lvm(28)_final(0).mov,resources/videos_natural\training(16).mov,False,False,right,0,161,161,161,2018-10-09 13:35:34.949312,2018-10-09 13:35:38.902538,0:00:03.953226,4,right,1,0.31726936538120754,28,m,1,14,2018_Oct_09_1318,MP_PerceptionTuring2,59.9231373115326,
163,resources/videos_generated\model(vcgpdm)-dataset(walking)-mode(ELBO)-parts(1)-dyn(26)-lvm(27)_final(1).mov,resources/videos_natural\training(3).mov,False,True,left,0,162,162,162,2018-10-09 13:35:40.336620,2018-10-09 13:35:44.406853,0:00:04.070233,4,right,0,0.3504632464264432,28,m,1,14,2018_Oct_09_1318,MP_PerceptionTuring2,59.9231373115326,
164,resources/videos_generated\model(tmp)-dataset(walking)-numprim(15)_final(4).mov,resources/videos_natural\training(1).mov,True,True,left,0,163,163,163,2018-10-09 13:35:45.874937,2018-10-09 13:35:49.812162,0:00:03.937225,4,left,1,0.21718085117618102,28,m,1,14,2018_Oct_09_1318,MP_PerceptionTuring2,59.9231373115326,
165,resources/videos_generated\model(vcgpdm)-dataset(walking)-mode(ELBO)-parts(2)-dyn(28)-lvm(19)_final(1).mov,resources/videos_natural\training(40).mov,True,True,left,0,164,164,164,2018-10-09 13:35:51.146239,2018-10-09 13:35:55.033461,0:00:03.887222,4,left,1,0.2337606249423061,28,m,1,14,2018_Oct_09_1318,MP_PerceptionTuring2,59.9231373115326,
166,resources/videos_generated\model(tmp)-dataset(walking)-numprim(15)_final(0).mov,resources/videos_natural\training(43).mov,False,False,right,0,165,165,165,2018-10-09 13:35:56.384538,2018-10-09 13:36:00.470772,0:00:04.086234,4,left,0,0.38380771305355665,28,m,1,14,2018_Oct_09_1318,MP_PerceptionTuring2,59.9231373115326,
167,resources/videos_generated\model(vcgpdm)-dataset(walking)-mode(ELBO)-parts(1)-dyn(22)-lvm(27)_final(4)_fail.mov,resources/videos_natural\training(16).mov,True,False,right,0,166,166,166,2018-10-09 13:36:01.972858,2018-10-09 13:36:05.876081,0:00:03.903223,4,right,1,0.2672029721979925,28,m,1,14,2018_Oct_09_1318,MP_PerceptionTuring2,59.9231373115326,
168,resources/videos_generated\model(vcgpdm)-dataset(walking)-mode(ELBO)-parts(2)-dyn(28)-lvm(19)_final(5).mov,resources/videos_natural\training(35).mov,True,True,left,0,167,167,167,2018-10-09 13:36:07.260160,2018-10-09 13:36:11.163384,0:00:03.903224,4,left,1,0.2837848541623771,28,m,1,14,2018_Oct_09_1318,MP_PerceptionTuring2,59.9231373115326,
169,resources/videos_generated\model(vcgpdm)-dataset(walking)-mode(ELBO)-parts(1)-dyn(27)-lvm(24)_final(5).mov,resources/videos_natural\training(48).mov,False,True,left,0,168,168,168,2018-10-09 13:36:12.564464,2018-10-09 13:36:16.651698,0:00:04.087234,4,left,1,0.4005880668153168,28,m,1,14,2018_Oct_09_1318,MP_PerceptionTuring2,59.9231373115326,
170,resources/videos_generated\model(tmp)-dataset(walking)-numprim(13)_final(2).mov,resources/videos_natural\training(6).mov,False,False,right,0,169,169,169,2018-10-09 13:36:18.169784,2018-10-09 13:36:22.073008,0:00:03.903224,4,left,0,0.20039266696403502,28,m,1,14,2018_Oct_09_1318,MP_PerceptionTuring2,59.9231373115326,
171,resources/videos_generated\model(vcgpdm)-dataset(walking)-mode(ELBO)-parts(1)-dyn(26)-lvm(25)_final(3).mov,resources/videos_natural\training(23).mov,False,False,right,0,170,170,170,2018-10-09 13:36:23.391083,2018-10-09 13:36:27.494318,0:00:04.103235,4,right,1,0.433977709117471,28,m,1,14,2018_Oct_09_1318,MP_PerceptionTuring2,59.9231373115326,
172,resources/videos_generated\model(tmp)-dataset(walking)-numprim(12)_final(6).mov,resources/videos_natural\training(5).mov,False,False,right,0,171,171,171,2018-10-09 13:36:29.045406,2018-10-09 13:36:33.032634,0:00:03.987228,4,left,0,0.28384147434144325,28,m,1,14,2018_Oct_09_1318,MP_PerceptionTuring2,59.9231373115326,
173,resources/videos_generated\model(vcgpdm)-dataset(walking)-mode(ELBO)-parts(1)-dyn(28)-lvm(23)_final(1).mov,resources/videos_natural\training(7).mov,False,True,left,0,172,172,172,2018-10-09 13:36:34.433715,2018-10-09 13:36:38.486946,0:00:04.053231,4,left,1,0.2838197900173327,28,m,1,14,2018_Oct_09_1318,MP_PerceptionTuring2,59.9231373115326,
174,resources/videos_generated\model(vcgpdm)-dataset(walking)-mode(ELBO)-parts(1)-dyn(23)-lvm(27)_final(2).mov,resources/videos_natural\training(2).mov,True,False,right,0,173,173,173,2018-10-09 13:36:39.889027,2018-10-09 13:36:43.842253,0:00:03.953226,4,left,0,0.2338335083641141,28,m,1,14,2018_Oct_09_1318,MP_PerceptionTuring2,59.9231373115326,
175,resources/videos_generated\model(vcgpdm)-dataset(walking)-mode(ELBO)-parts(2)-dyn(26)-lvm(23)_final(5).mov,resources/videos_natural\training(27).mov,False,True,left,0,174,174,174,2018-10-09 13:36:45.193330,2018-10-09 13:36:49.113554,0:00:03.920224,4,left,1,0.28382039235975753,28,m,1,14,2018_Oct_09_1318,MP_PerceptionTuring2,59.9231373115326,
176,resources/videos_generated\model(vcgpdm)-dataset(walking)-mode(ELBO)-parts(1)-dyn(28)-lvm(23)_final(7).mov,resources/videos_natural\training(46).mov,True,False,right,0,175,175,175,2018-10-09 13:36:50.514634,2018-10-09 13:36:54.417858,0:00:03.903224,4,left,0,0.41720488463488437,28,m,1,14,2018_Oct_09_1318,MP_PerceptionTuring2,59.9231373115326,
177,resources/videos_generated\model(vcgpdm)-dataset(walking)-mode(ELBO)-parts(2)-dyn(27)-lvm(18)_final(7).mov,resources/videos_natural\training(48).mov,True,False,right,0,176,176,176,2018-10-09 13:36:55.951945,2018-10-09 13:36:59.856169,0:00:03.904224,4,left,0,0.4338807320025353,28,m,1,14,2018_Oct_09_1318,MP_PerceptionTuring2,59.9231373115326,
178,resources/videos_generated\model(vcgpdm)-dataset(walking)-mode(ELBO)-parts(2)-dyn(28)-lvm(17)_final(5).mov,resources/videos_natural\training(35).mov,False,True,left,0,177,177,177,2018-10-09 13:37:01.407257,2018-10-09 13:37:05.343483,0:00:03.936226,4,left,1,0.2838134654230089,28,m,1,14,2018_Oct_09_1318,MP_PerceptionTuring2,59.9231373115326,
179,resources/videos_generated\model(vcgpdm)-dataset(walking)-mode(ELBO)-parts(1)-dyn(22)-lvm(27)_final(0)_hip-correted.mov,resources/videos_natural\training(38).mov,False,True,left,0,178,178,178,2018-10-09 13:37:06.744563,2018-10-09 13:37:10.648786,0:00:03.904223,4,right,0,0.11696584508172236,28,m,1,14,2018_Oct_09_1318,MP_PerceptionTuring2,59.9231373115326,
180,resources/videos_generated\model(vcgpdm)-dataset(walking)-mode(ELBO)-parts(1)-dyn(24)-lvm(23)_final(4)_fail.mov,resources/videos_natural\training(31).mov,True,True,left,0,179,179,179,2018-10-09 13:37:11.882857,2018-10-09 13:37:15.803081,0:00:03.920224,4,left,1,0.30053238026698637,28,m,1,14,2018_Oct_09_1318,MP_PerceptionTuring2,59.9231373115326,
181,resources/videos_generated\model(vcgpdm)-dataset(walking)-mode(ELBO)-parts(1)-dyn(28)-lvm(23)_final(9).mov,resources/videos_natural\training(15).mov,True,True,left,0,180,180,180,2018-10-09 13:37:49.298997,2018-10-09 13:37:53.202220,0:00:03.903223,5,left,1,0.20046404453000832,28,m,1,14,2018_Oct_09_1318,MP_PerceptionTuring2,59.9231373115326,
182,resources/videos_generated\model(vcgpdm)-dataset(walking)-mode(ELBO)-parts(2)-dyn(26)-lvm(23)_final(9).mov,resources/videos_natural\training(39).mov,True,False,right,0,181,181,181,2018-10-09 13:37:54.519295,2018-10-09 13:37:58.456520,0:00:03.937225,5,right,1,0.3673737061310476,28,m,1,14,2018_Oct_09_1318,MP_PerceptionTuring2,59.9231373115326,
183,resources/videos_generated\model(vcgpdm)-dataset(walking)-mode(ELBO)-parts(2)-dyn(24)-lvm(17)_final(9).mov,resources/videos_natural\training(12).mov,True,True,left,0,182,182,182,2018-10-09 13:37:59.940605,2018-10-09 13:38:03.994837,0:00:04.054232,5,left,1,0.26700781328349876,28,m,1,14,2018_Oct_09_1318,MP_PerceptionTuring2,59.9231373115326,
184,resources/videos_generated\model(vcgpdm)-dataset(walking)-mode(ELBO)-parts(2)-dyn(22)-lvm(17)_final(3).mov,resources/videos_natural\training(6).mov,False,False,right,0,183,183,183,2018-10-09 13:38:05.378916,2018-10-09 13:38:09.332142,0:00:03.953226,5,right,1,0.26691595607826457,28,m,1,14,2018_Oct_09_1318,MP_PerceptionTuring2,59.9231373115326,
185,resources/videos_generated\model(vcgpdm)-dataset(walking)-mode(ELBO)-parts(2)-dyn(27)-lvm(20)_final(3).mov,resources/videos_natural\training(35).mov,True,False,right,0,184,184,184,2018-10-09 13:38:10.717222,2018-10-09 13:38:14.653447,0:00:03.936225,5,left,0,0.2170868857726873,28,m,1,14,2018_Oct_09_1318,MP_PerceptionTuring2,59.9231373115326,
186,resources/videos_generated\model(vcgpdm)-dataset(walking)-mode(ELBO)-parts(1)-dyn(24)-lvm(27)_final(4).mov,resources/videos_natural\training(15).mov,True,False,right,0,185,185,185,2018-10-09 13:38:15.988523,2018-10-09 13:38:19.891746,0:00:03.903223,5,left,0,0.3172308154721577,28,m,1,14,2018_Oct_09_1318,MP_PerceptionTuring2,59.9231373115326,
187,resources/videos_generated\model(vcgpdm)-dataset(walking)-mode(ELBO)-parts(2)-dyn(26)-lvm(19)_final(9).mov,resources/videos_natural\training(45).mov,False,False,right,0,186,186,186,2018-10-09 13:38:21.325828,2018-10-09 13:38:25.213051,0:00:03.887223,5,right,1,0.2671460508479413,28,m,1,14,2018_Oct_09_1318,MP_PerceptionTuring2,59.9231373115326,
188,resources/videos_generated\model(vcgpdm)-dataset(walking)-mode(ELBO)-parts(1)-dyn(22)-lvm(27)_final(6)_fail.mov,resources/videos_natural\training(17).mov,False,False,right,0,187,187,187,2018-10-09 13:38:26.597130,2018-10-09 13:38:30.534355,0:00:03.937225,5,right,1,0.28391676713226843,28,m,1,14,2018_Oct_09_1318,MP_PerceptionTuring2,59.9231373115326,
189,resources/videos_generated\model(tmp)-dataset(walking)-numprim(14)_final(2).mov,resources/videos_natural\training(25).mov,False,True,left,0,188,188,188,2018-10-09 13:38:31.935435,2018-10-09 13:38:35.888661,0:00:03.953226,5,right,0,0.21709290919602608,28,m,1,14,2018_Oct_09_1318,MP_PerceptionTuring2,59.9231373115326,
190,resources/videos_generated\model(vcgpdm)-dataset(walking)-mode(ELBO)-parts(1)-dyn(25)-lvm(26)_final(0).mov,resources/videos_natural\training(19).mov,False,False,right,0,189,189,189,2018-10-09 13:38:37.223738,2018-10-09 13:38:41.109960,0:00:03.886222,5,right,1,0.20045290119696801,28,m,1,14,2018_Oct_09_1318,MP_PerceptionTuring2,59.9231373115326,
191,resources/videos_generated\model(vcgpdm)-dataset(walking)-mode(ELBO)-parts(2)-dyn(28)-lvm(21)_final(9).mov,resources/videos_natural\training(28).mov,False,True,left,0,190,190,190,2018-10-09 13:38:42.428035,2018-10-09 13:38:46.331259,0:00:03.903224,5,left,1,0.23376423899617294,28,m,1,14,2018_Oct_09_1318,MP_PerceptionTuring2,59.9231373115326,
192,resources/videos_generated\model(dmp)-dataset(walking)-npsi(90)_final(6).mov,resources/videos_natural\training(26).mov,False,True,left,0,191,191,191,2018-10-09 13:38:47.682336,2018-10-09 13:38:51.619561,0:00:03.937225,5,right,0,0.25040996924735737,28,m,1,14,2018_Oct_09_1318,MP_PerceptionTuring2,59.9231373115326,
193,resources/videos_generated\model(vcgpdm)-dataset(walking)-mode(ELBO)-parts(2)-dyn(22)-lvm(23)_final(5).mov,resources/videos_natural\training(26).mov,True,True,left,0,192,192,192,2018-10-09 13:38:52.986639,2018-10-09 13:38:56.873862,0:00:03.887223,5,left,1,0.31730460240737557,28,m,1,14,2018_Oct_09_1318,MP_PerceptionTuring2,59.9231373115326,
194,resources/videos_generated\model(vcgpdm)-dataset(walking)-mode(ELBO)-parts(2)-dyn(26)-lvm(17)_final(1).mov,resources/videos_natural\training(41).mov,True,True,left,0,193,193,193,2018-10-09 13:38:58.307944,2018-10-09 13:39:02.295172,0:00:03.987228,5,left,1,0.23379917485112856,28,m,1,14,2018_Oct_09_1318,MP_PerceptionTuring2,59.9231373115326,
195,resources/videos_generated\model(vcgpdm)-dataset(walking)-mode(ELBO)-parts(2)-dyn(27)-lvm(20)_final(1).mov,resources/videos_natural\training(39).mov,False,False,right,0,194,194,194,2018-10-09 13:39:03.646249,2018-10-09 13:39:07.633477,0:00:03.987228,5,right,1,0.23376484133859776,28,m,1,14,2018_Oct_09_1318,MP_PerceptionTuring2,59.9231373115326,
196,resources/videos_generated\model(vcgpdm)-dataset(walking)-mode(ELBO)-parts(1)-dyn(28)-lvm(27)_final(1).mov,resources/videos_natural\training(10).mov,False,True,left,0,195,195,195,2018-10-09 13:39:08.984554,2018-10-09 13:39:13.070788,0:00:04.086234,5,right,0,0.2170522510889441,28,m,1,14,2018_Oct_09_1318,MP_PerceptionTuring2,59.9231373115326,
197,resources/videos_generated\model(vcgpdm)-dataset(walking)-mode(ELBO)-parts(2)-dyn(28)-lvm(21)_final(5).mov,resources/videos_natural\training(12).mov,False,True,left,0,196,196,196,2018-10-09 13:39:14.405865,2018-10-09 13:39:18.309088,0:00:03.903223,5,right,0,0.21720494486908137,28,m,1,14,2018_Oct_09_1318,MP_PerceptionTuring2,59.9231373115326,
198,resources/videos_generated\model(vcgpdm)-dataset(walking)-mode(ELBO)-parts(1)-dyn(24)-lvm(25)_final(6).mov,resources/videos_natural\training(46).mov,True,False,right,0,197,197,197,2018-10-09 13:39:19.643164,2018-10-09 13:39:23.596390,0:00:03.953226,5,left,0,0.3505770891265456,28,m,1,14,2018_Oct_09_1318,MP_PerceptionTuring2,59.9231373115326,
199,resources/videos_generated\model(vcgpdm)-dataset(walking)-mode(ELBO)-parts(1)-dyn(25)-lvm(28)_final(8).mov,resources/videos_natural\training(34).mov,True,True,left,0,198,198,198,2018-10-09 13:39:25.064474,2018-10-09 13:39:28.951696,0:00:03.887222,5,left,1,0.35054275561378745,28,m,1,14,2018_Oct_09_1318,MP_PerceptionTuring2,59.9231373115326,
200,resources/videos_generated\model(vcgpdm)-dataset(walking)-mode(ELBO)-parts(1)-dyn(25)-lvm(24)_final(5).mov,resources/videos_natural\training(1).mov,False,True,left,0,199,199,199,2018-10-09 13:39:30.418780,2018-10-09 13:39:34.473012,0:00:04.054232,5,left,1,0.183785185450688,28,m,1,14,2018_Oct_09_1318,MP_PerceptionTuring2,59.9231373115326,
201,resources/videos_generated\model(tmp)-dataset(walking)-numprim(13)_final(0).mov,resources/videos_natural\training(7).mov,True,False,right,0,200,200,200,2018-10-09 13:39:35.774087,2018-10-09 13:39:39.810318,0:00:04.036231,5,left,0,0.2504683964530159,28,m,1,14,2018_Oct_09_1318,MP_PerceptionTuring2,59.9231373115326,
202,resources/videos_generated\model(dmp)-dataset(walking)-npsi(90)_final(2).mov,resources/videos_natural\training(42).mov,False,True,left,0,201,201,201,2018-10-09 13:39:41.178396,2018-10-09 13:39:45.282631,0:00:04.104235,5,right,0,0.16715662195565528,28,m,1,14,2018_Oct_09_1318,MP_PerceptionTuring2,59.9231373115326,
203,resources/videos_generated\model(vcgpdm)-dataset(walking)-mode(ELBO)-parts(2)-dyn(24)-lvm(19)_final(5).mov,resources/videos_natural\training(38).mov,False,False,right,0,202,202,202,2018-10-09 13:39:46.566704,2018-10-09 13:39:50.452926,0:00:03.886222,5,right,1,0.2838649656923735,28,m,1,14,2018_Oct_09_1318,MP_PerceptionTuring2,59.9231373115326,
204,resources/videos_generated\model(vcgpdm)-dataset(walking)-mode(ELBO)-parts(1)-dyn(26)-lvm(27)_final(5).mov,resources/videos_natural\training(45).mov,True,True,left,0,203,203,203,2018-10-09 13:39:51.854006,2018-10-09 13:39:55.774231,0:00:03.920225,5,left,1,0.2838330415488599,28,m,1,14,2018_Oct_09_1318,MP_PerceptionTuring2,59.9231373115326,
205,resources/videos_generated\model(vcgpdm)-dataset(walking)-mode(ELBO)-parts(2)-dyn(26)-lvm(17)_final(7).mov,resources/videos_natural\training(6).mov,True,False,right,0,204,204,204,2018-10-09 13:39:57.175311,2018-10-09 13:40:01.029531,0:00:03.854220,5,left,0,0.23370129422301034,28,m,1,14,2018_Oct_09_1318,MP_PerceptionTuring2,59.9231373115326,
206,resources/videos_generated\model(dmp)-dataset(walking)-npsi(100)_final(0).mov,resources/videos_natural\training(4).mov,True,True,left,0,205,205,205,2018-10-09 13:40:02.380609,2018-10-09 13:40:06.266831,0:00:03.886222,5,left,1,0.3172518974538434,28,m,1,14,2018_Oct_09_1318,MP_PerceptionTuring2,59.9231373115326,
207,resources/videos_generated\model(vcgpdm)-dataset(walking)-mode(ELBO)-parts(2)-dyn(27)-lvm(18)_final(3).mov,resources/videos_natural\training(30).mov,True,False,right,0,206,206,206,2018-10-09 13:40:07.701913,2018-10-09 13:40:11.755145,0:00:04.053232,5,right,1,0.2838544247010759,28,m,1,14,2018_Oct_09_1318,MP_PerceptionTuring2,59.9231373115326,
208,resources/videos_generated\model(vcgpdm)-dataset(walking)-mode(ELBO)-parts(2)-dyn(25)-lvm(18)_final(5).mov,resources/videos_natural\training(30).mov,False,False,right,0,207,207,207,2018-10-09 13:40:13.156225,2018-10-09 13:40:17.226458,0:00:04.070233,5,right,1,0.23382748494077532,28,m,1,14,2018_Oct_09_1318,MP_PerceptionTuring2,59.9231373115326,
209,resources/videos_generated\model(vcgpdm)-dataset(walking)-mode(ELBO)-parts(1)-dyn(24)-lvm(23)_final(6)_fail.mov,resources/videos_natural\training(14).mov,True,True,left,0,208,208,208,2018-10-09 13:40:18.577535,2018-10-09 13:40:22.664769,0:00:04.087234,5,left,1,0.23393952061405798,28,m,1,14,2018_Oct_09_1318,MP_PerceptionTuring2,59.9231373115326,
210,resources/videos_generated\model(vcgpdm)-dataset(walking)-mode(ELBO)-parts(1)-dyn(22)-lvm(23)_final(4)_fail.mov,resources/videos_natural\training(48).mov,True,False,right,0,209,209,209,2018-10-09 13:40:24.015846,2018-10-09 13:40:28.069078,0:00:04.053232,5,right,1,0.30043660783712767,28,m,1,14,2018_Oct_09_1318,MP_PerceptionTuring2,59.9231373115326,
211,resources/videos_generated\model(vcgpdm)-dataset(walking)-mode(ELBO)-parts(2)-dyn(25)-lvm(22)_final(3).mov,resources/videos_natural\training(11).mov,True,True,left,0,210,210,210,2018-10-09 13:40:29.487159,2018-10-09 13:40:33.390382,0:00:03.903223,5,left,1,0.2505075487047179,28,m,1,14,2018_Oct_09_1318,MP_PerceptionTuring2,59.9231373115326,
212,resources/videos_generated\model(vcgpdm)-dataset(walking)-mode(ELBO)-parts(2)-dyn(23)-lvm(18)_final(7).mov,resources/videos_natural\training(46).mov,False,False,right,0,211,211,211,2018-10-09 13:40:34.758460,2018-10-09 13:40:38.811692,0:00:04.053232,5,right,1,0.06690427063722382,28,m,1,14,2018_Oct_09_1318,MP_PerceptionTuring2,59.9231373115326,
213,resources/videos_generated\model(vcgpdm)-dataset(walking)-mode(ELBO)-parts(2)-dyn(28)-lvm(19)_final(3).mov,resources/videos_natural\training(6).mov,True,False,right,0,212,212,212,2018-10-09 13:40:39.995760,2018-10-09 13:40:43.899983,0:00:03.904223,5,left,0,0.2671535801268874,28,m,1,14,2018_Oct_09_1318,MP_PerceptionTuring2,59.9231373115326,
214,resources/videos_generated\model(vcgpdm)-dataset(walking)-mode(ELBO)-parts(2)-dyn(28)-lvm(23)_final(5).mov,resources/videos_natural\training(27).mov,True,True,left,0,213,213,213,2018-10-09 13:40:45.284062,2018-10-09 13:40:49.271290,0:00:03.987228,5,left,1,0.23378682683369334,28,m,1,14,2018_Oct_09_1318,MP_PerceptionTuring2,59.9231373115326,
215,resources/videos_generated\model(vcgpdm)-dataset(walking)-mode(ELBO)-parts(1)-dyn(27)-lvm(24)_final(7).mov,resources/videos_natural\training(45).mov,True,False,right,0,214,214,214,2018-10-09 13:40:50.622368,2018-10-09 13:40:54.658599,0:00:04.036231,5,right,1,0.2004128454318561,28,m,1,14,2018_Oct_09_1318,MP_PerceptionTuring2,59.9231373115326,
216,resources/videos_generated\model(vcgpdm)-dataset(walking)-mode(ELBO)-parts(1)-dyn(27)-lvm(26)_final(7).mov,resources/videos_natural\training(43).mov,False,True,left,0,215,215,215,2018-10-09 13:40:55.976674,2018-10-09 13:41:00.029906,0:00:04.053232,5,left,1,0.28374781010916195,28,m,1,14,2018_Oct_09_1318,MP_PerceptionTuring2,59.9231373115326,
217,resources/videos_generated\model(vcgpdm)-dataset(walking)-mode(ELBO)-parts(2)-dyn(25)-lvm(22)_final(5).mov,resources/videos_natural\training(12).mov,True,False,right,0,216,216,216,2018-10-09 13:41:01.430986,2018-10-09 13:41:05.335209,0:00:03.904223,5,left,0,0.23380971584174404,28,m,1,14,2018_Oct_09_1318,MP_PerceptionTuring2,59.9231373115326,
218,resources/videos_generated\model(tmp)-dataset(walking)-numprim(13)_final(4).mov,resources/videos_natural\training(42).mov,True,False,right,0,217,217,217,2018-10-09 13:41:06.686287,2018-10-09 13:41:10.622512,0:00:03.936225,5,left,0,0.5673835845450412,28,m,1,14,2018_Oct_09_1318,MP_PerceptionTuring2,59.9231373115326,
219,resources/videos_generated\model(vcgpdm)-dataset(walking)-mode(ELBO)-parts(2)-dyn(22)-lvm(19)_final(7).mov,resources/videos_natural\training(22).mov,True,False,right,0,218,218,218,2018-10-09 13:41:12.307608,2018-10-09 13:41:16.210831,0:00:03.903223,5,right,1,0.23379315142801715,28,m,1,14,2018_Oct_09_1318,MP_PerceptionTuring2,59.9231373115326,
220,resources/videos_generated\model(vcgpdm)-dataset(walking)-mode(ELBO)-parts(1)-dyn(23)-lvm(24)_final(5).mov,resources/videos_natural\training(29).mov,True,True,left,0,219,219,219,2018-10-09 13:41:17.561909,2018-10-09 13:41:21.665143,0:00:04.103234,5,left,1,0.36713457622681744,28,m,1,14,2018_Oct_09_1318,MP_PerceptionTuring2,59.9231373115326,
221,resources/videos_generated\model(tmp)-dataset(walking)-numprim(12)_final(8).mov,resources/videos_natural\training(5).mov,True,False,right,0,220,220,220,2018-10-09 13:41:23.150228,2018-10-09 13:41:27.153457,0:00:04.003229,5,right,1,0.20070166857885852,28,m,1,14,2018_Oct_09_1318,MP_PerceptionTuring2,59.9231373115326,
222,resources/videos_generated\model(vcgpdm)-dataset(walking)-mode(ELBO)-parts(2)-dyn(22)-lvm(21)_final(3).mov,resources/videos_natural\training(1).mov,False,True,left,0,221,221,221,2018-10-09 13:41:28.471533,2018-10-09 13:41:32.507763,0:00:04.036230,5,right,0,0.26711683724488466,28,m,1,14,2018_Oct_09_1318,MP_PerceptionTuring2,59.9231373115326,
223,resources/videos_generated\model(vcgpdm)-dataset(walking)-mode(ELBO)-parts(1)-dyn(27)-lvm(28)_final(9).mov,resources/videos_natural\training(32).mov,False,True,left,0,222,222,222,2018-10-09 13:41:33.892843,2018-10-09 13:41:37.813067,0:00:03.920224,5,right,0,0.3338822679752411,28,m,1,14,2018_Oct_09_1318,MP_PerceptionTuring2,59.9231373115326,
224,resources/videos_generated\model(vcgpdm)-dataset(walking)-mode(ELBO)-parts(2)-dyn(23)-lvm(22)_final(1).mov,resources/videos_natural\training(40).mov,True,False,right,0,223,223,223,2018-10-09 13:41:39.264150,2018-10-09 13:41:43.334383,0:00:04.070233,5,right,1,0.23370611296149946,28,m,1,14,2018_Oct_09_1318,MP_PerceptionTuring2,59.9231373115326,
225,resources/videos_generated\model(vcgpdm)-dataset(walking)-mode(ELBO)-parts(2)-dyn(26)-lvm(23)_final(7).mov,resources/videos_natural\training(4).mov,False,False,right,0,224,224,224,2018-10-09 13:41:44.685460,2018-10-09 13:41:48.672688,0:00:03.987228,5,right,1,0.3171639554734611,28,m,1,14,2018_Oct_09_1318,MP_PerceptionTuring2,59.9231373115326,
226,resources/videos_generated\model(vcgpdm)-dataset(walking)-mode(ELBO)-parts(1)-dyn(28)-lvm(25)_final(5).mov,resources/videos_natural\training(15).mov,True,False,right,0,225,225,225,2018-10-09 13:42:21.950591,2018-10-09 13:42:26.054826,0:00:04.104235,6,left,0,0.2837896729010936,28,m,1,14,2018_Oct_09_1318,MP_PerceptionTuring2,59.9231373115326,
227,resources/videos_generated\model(vcgpdm)-dataset(walking)-mode(ELBO)-parts(2)-dyn(23)-lvm(20)_final(5).mov,resources/videos_natural\training(43).mov,True,True,left,0,226,226,226,2018-10-09 13:42:27.455906,2018-10-09 13:42:31.359130,0:00:03.903224,6,left,1,0.26722074129656903,28,m,1,14,2018_Oct_09_1318,MP_PerceptionTuring2,59.9231373115326,
228,resources/videos_generated\model(vcgpdm)-dataset(walking)-mode(ELBO)-parts(2)-dyn(26)-lvm(21)_final(1).mov,resources/videos_natural\training(23).mov,False,True,left,0,227,227,227,2018-10-09 13:42:32.743209,2018-10-09 13:42:36.647432,0:00:03.904223,6,left,1,0.26712225832625336,28,m,1,14,2018_Oct_09_1318,MP_PerceptionTuring2,59.9231373115326,
229,resources/videos_generated\model(vcgpdm)-dataset(walking)-mode(ELBO)-parts(2)-dyn(28)-lvm(21)_final(3).mov,resources/videos_natural\training(9).mov,True,True,left,0,228,228,228,2018-10-09 13:42:38.031511,2018-10-09 13:42:41.918734,0:00:03.887223,6,left,1,0.21722211162568783,28,m,1,14,2018_Oct_09_1318,MP_PerceptionTuring2,59.9231373115326,
230,resources/videos_generated\model(dmp)-dataset(walking)-npsi(70)_final(2).mov,resources/videos_natural\training(3).mov,True,False,right,0,229,229,229,2018-10-09 13:42:43.252810,2018-10-09 13:42:47.189035,0:00:03.936225,6,right,1,0.3839317955730621,28,m,1,14,2018_Oct_09_1318,MP_PerceptionTuring2,59.9231373115326,
231,resources/videos_generated\model(vcgpdm)-dataset(walking)-mode(ELBO)-parts(2)-dyn(22)-lvm(19)_final(3).mov,resources/videos_natural\training(27).mov,True,True,left,0,230,230,230,2018-10-09 13:42:48.691121,2018-10-09 13:42:52.711351,0:00:04.020230,6,left,1,0.28390140740293646,28,m,1,14,2018_Oct_09_1318,MP_PerceptionTuring2,59.9231373115326,
232,resources/videos_generated\model(tmp)-dataset(walking)-numprim(15)_final(6).mov,resources/videos_natural\training(47).mov,True,True,left,0,231,231,231,2018-10-09 13:42:54.112431,2018-10-09 13:42:57.998653,0:00:03.886222,6,left,1,0.23358383746881373,28,m,1,14,2018_Oct_09_1318,MP_PerceptionTuring2,59.9231373115326,
233,resources/videos_generated\model(vcgpdm)-dataset(walking)-mode(ELBO)-parts(1)-dyn(24)-lvm(27)_final(0).mov,resources/videos_natural\training(28).mov,True,True,left,0,232,232,232,2018-10-09 13:42:59.349731,2018-10-09 13:43:03.453965,0:00:04.104234,6,left,1,0.38386644143065496,28,m,1,14,2018_Oct_09_1318,MP_PerceptionTuring2,59.9231373115326,
234,resources/videos_generated\model(vcgpdm)-dataset(walking)-mode(ELBO)-parts(2)-dyn(27)-lvm(22)_final(3).mov,resources/videos_natural\training(33).mov,False,True,left,0,233,233,233,2018-10-09 13:43:04.955051,2018-10-09 13:43:08.858274,0:00:03.903223,6,left,1,0.23380971584219878,28,m,1,14,2018_Oct_09_1318,MP_PerceptionTuring2,59.9231373115326,
235,resources/videos_generated\model(dmp)-dataset(walking)-npsi(80)_final(6).mov,resources/videos_natural\training(19).mov,False,True,left,0,234,234,234,2018-10-09 13:43:10.209352,2018-10-09 13:43:14.279584,0:00:04.070232,6,right,0,0.15038168927503648,28,m,1,14,2018_Oct_09_1318,MP_PerceptionTuring2,59.9231373115326,
236,resources/videos_generated\model(vcgpdm)-dataset(walking)-mode(ELBO)-parts(1)-dyn(22)-lvm(25)_final(6).mov,resources/videos_natural\training(15).mov,False,True,left,0,235,235,235,2018-10-09 13:43:15.547657,2018-10-09 13:43:19.467881,0:00:03.920224,6,left,1,0.23368262161056919,28,m,1,14,2018_Oct_09_1318,MP_PerceptionTuring2,59.9231373115326,
237,resources/videos_generated\model(vcgpdm)-dataset(walking)-mode(ELBO)-parts(1)-dyn(28)-lvm(23)_final(5).mov,resources/videos_natural\training(14).mov,True,False,right,0,236,236,236,2018-10-09 13:43:20.818959,2018-10-09 13:43:24.738183,0:00:03.919224,6,right,1,0.3671192164970307,28,m,1,14,2018_Oct_09_1318,MP_PerceptionTuring2,59.9231373115326,
238,resources/videos_generated\model(vcgpdm)-dataset(walking)-mode(ELBO)-parts(2)-dyn(23)-lvm(22)_final(3).mov,resources/videos_natural\training(23).mov,True,False,right,0,237,237,237,2018-10-09 13:43:26.223268,2018-10-09 13:43:30.193495,0:00:03.970227,6,right,1,0.23378291160815934,28,m,1,14,2018_Oct_09_1318,MP_PerceptionTuring2,59.9231373115326,
239,resources/videos_generated\model(vcgpdm)-dataset(walking)-mode(ELBO)-parts(2)-dyn(27)-lvm(18)_final(1).mov,resources/videos_natural\training(34).mov,True,True,left,0,238,238,238,2018-10-09 13:43:31.544572,2018-10-09 13:43:35.464796,0:00:03.920224,6,left,1,0.3171154669162206,28,m,1,14,2018_Oct_09_1318,MP_PerceptionTuring2,59.9231373115326,
240,resources/videos_generated\model(vcgpdm)-dataset(walking)-mode(ELBO)-parts(2)-dyn(24)-lvm(21)_final(5).mov,resources/videos_natural\training(10).mov,True,True,left,0,239,239,239,2018-10-09 13:43:36.898878,2018-10-09 13:43:40.986112,0:00:04.087234,6,left,1,0.18372404770434514,28,m,1,14,2018_Oct_09_1318,MP_PerceptionTuring2,59.9231373115326,
241,resources/videos_generated\model(vcgpdm)-dataset(walking)-mode(ELBO)-parts(2)-dyn(24)-lvm(23)_final(7).mov,resources/videos_natural\training(31).mov,False,True,left,0,240,240,240,2018-10-09 13:43:42.287186,2018-10-09 13:43:46.240413,0:00:03.953227,6,left,1,0.23369346377285183,28,m,1,14,2018_Oct_09_1318,MP_PerceptionTuring2,59.9231373115326,
242,resources/videos_generated\model(vcgpdm)-dataset(walking)-mode(ELBO)-parts(2)-dyn(24)-lvm(19)_final(7).mov,resources/videos_natural\training(2).mov,True,False,right,0,241,241,241,2018-10-09 13:43:47.591490,2018-10-09 13:43:51.561717,0:00:03.970227,6,left,0,0.0836557119673671,28,m,1,14,2018_Oct_09_1318,MP_PerceptionTuring2,59.9231373115326,
243,resources/videos_generated\model(vcgpdm)-dataset(walking)-mode(ELBO)-parts(1)-dyn(22)-lvm(22)_final(2).mov,resources/videos_natural\training(3).mov,False,True,left,0,242,242,242,2018-10-09 13:43:52.762786,2018-10-09 13:43:56.750014,0:00:03.987228,6,left,1,0.30060195080613994,28,m,1,14,2018_Oct_09_1318,MP_PerceptionTuring2,59.9231373115326,
244,resources/videos_generated\model(tmp)-dataset(walking)-numprim(14)_final(6).mov,resources/videos_natural\training(9).mov,False,True,left,0,243,243,243,2018-10-09 13:43:58.167095,2018-10-09 13:44:02.271329,0:00:04.104234,6,left,1,0.33386058365158533,28,m,1,14,2018_Oct_09_1318,MP_PerceptionTuring2,59.9231373115326,
245,resources/videos_generated\model(vcgpdm)-dataset(walking)-mode(ELBO)-parts(1)-dyn(27)-lvm(28)_final(5).mov,resources/videos_natural\training(18).mov,False,False,right,0,244,244,244,2018-10-09 13:44:03.722412,2018-10-09 13:44:07.675639,0:00:03.953227,6,right,1,0.18385565950302407,28,m,1,14,2018_Oct_09_1318,MP_PerceptionTuring2,59.9231373115326,
246,resources/videos_generated\model(vcgpdm)-dataset(walking)-mode(ELBO)-parts(1)-dyn(23)-lvm(26)_final(3)_hip-corrected.mov,resources/videos_natural\training(4).mov,True,False,right,0,245,245,245,2018-10-09 13:44:08.976713,2018-10-09 13:44:13.063947,0:00:04.087234,6,right,1,0.3172922543894856,28,m,1,14,2018_Oct_09_1318,MP_PerceptionTuring2,59.9231373115326,
247,resources/videos_generated\model(vcgpdm)-dataset(walking)-mode(ELBO)-parts(2)-dyn(24)-lvm(19)_final(9).mov,resources/videos_natural\training(11).mov,True,True,left,0,246,246,246,2018-10-09 13:44:14.498029,2018-10-09 13:44:18.435254,0:00:03.937225,6,left,1,1.1011573706673516,28,m,1,14,2018_Oct_09_1318,MP_PerceptionTuring2,59.9231373115326,
248,resources/videos_generated\model(vcgpdm)-dataset(walking)-mode(ELBO)-parts(1)-dyn(22)-lvm(23)_final(8).mov,resources/videos_natural\training(13).mov,False,False,right,0,247,247,247,2018-10-09 13:44:20.653381,2018-10-09 13:44:24.623608,0:00:03.970227,6,right,1,0.20040561732412243,28,m,1,14,2018_Oct_09_1318,MP_PerceptionTuring2,59.9231373115326,
249,resources/videos_generated\model(dmp)-dataset(walking)-npsi(90)_final(8).mov,resources/videos_natural\training(37).mov,True,False,right,0,248,248,248,2018-10-09 13:44:25.941683,2018-10-09 13:44:29.844907,0:00:03.903224,6,left,0,0.350535527505599,28,m,1,14,2018_Oct_09_1318,MP_PerceptionTuring2,59.9231373115326,
250,resources/videos_generated\model(vcgpdm)-dataset(walking)-mode(ELBO)-parts(2)-dyn(24)-lvm(17)_final(3).mov,resources/videos_natural\training(45).mov,True,True,left,0,249,249,249,2018-10-09 13:44:31.312991,2018-10-09 13:44:35.316220,0:00:04.003229,6,left,1,0.066932881898083,28,m,1,14,2018_Oct_09_1318,MP_PerceptionTuring2,59.9231373115326,
251,resources/videos_generated\model(vcgpdm)-dataset(walking)-mode(ELBO)-parts(1)-dyn(26)-lvm(25)_final(7).mov,resources/videos_natural\training(16).mov,True,True,left,0,250,250,250,2018-10-09 13:44:36.500287,2018-10-09 13:44:40.420511,0:00:03.920224,6,left,1,0.3672902817183967,28,m,1,14,2018_Oct_09_1318,MP_PerceptionTuring2,59.9231373115326,
252,resources/videos_generated\model(vcgpdm)-dataset(walking)-mode(ELBO)-parts(2)-dyn(25)-lvm(20)_final(5).mov,resources/videos_natural\training(31).mov,True,False,right,0,251,251,251,2018-10-09 13:44:41.905596,2018-10-09 13:44:45.841822,0:00:03.936226,6,left,0,0.467315851150488,28,m,1,14,2018_Oct_09_1318,MP_PerceptionTuring2,59.9231373115326,
253,resources/videos_generated\model(vcgpdm)-dataset(walking)-mode(ELBO)-parts(1)-dyn(28)-lvm(27)_final(9).mov,resources/videos_natural\training(45).mov,True,True,left,0,252,252,252,2018-10-09 13:44:47.426912,2018-10-09 13:44:51.347136,0:00:03.920224,6,right,0,0.25063644996316725,28,m,1,14,2018_Oct_09_1318,MP_PerceptionTuring2,59.9231373115326,
254,resources/videos_generated\model(vcgpdm)-dataset(walking)-mode(ELBO)-parts(2)-dyn(25)-lvm(20)_final(1).mov,resources/videos_natural\training(38).mov,False,False,right,0,253,253,253,2018-10-09 13:44:52.714215,2018-10-09 13:44:56.784447,0:00:04.070232,6,right,1,0.26709485175024383,28,m,1,14,2018_Oct_09_1318,MP_PerceptionTuring2,59.9231373115326,
255,resources/videos_generated\model(vcgpdm)-dataset(walking)-mode(ELBO)-parts(1)-dyn(27)-lvm(24)_final(1).mov,resources/videos_natural\training(26).mov,False,False,right,0,254,254,254,2018-10-09 13:44:58.169527,2018-10-09 13:45:02.072750,0:00:03.903223,6,right,1,0.3004766636017848,28,m,1,14,2018_Oct_09_1318,MP_PerceptionTuring2,59.9231373115326,
256,resources/videos_generated\model(vcgpdm)-dataset(walking)-mode(ELBO)-parts(2)-dyn(26)-lvm(23)_final(3).mov,resources/videos_natural\training(40).mov,True,True,left,0,255,255,255,2018-10-09 13:45:03.490831,2018-10-09 13:45:07.394054,0:00:03.903223,6,left,1,0.00026472945319255814,28,m,1,14,2018_Oct_09_1318,MP_PerceptionTuring2,59.9231373115326,
257,resources/videos_generated\model(vcgpdm)-dataset(walking)-mode(ELBO)-parts(1)-dyn(28)-lvm(27)_final(5).mov,resources/videos_natural\training(34).mov,True,False,right,0,256,256,256,2018-10-09 13:45:08.512118,2018-10-09 13:45:12.415341,0:00:03.903223,6,right,1,0.15028139927744633,28,m,1,14,2018_Oct_09_1318,MP_PerceptionTuring2,59.9231373115326,
258,resources/videos_generated\model(dmp)-dataset(walking)-npsi(50)_final(0).mov,resources/videos_natural\training(37).mov,True,False,right,0,257,257,257,2018-10-09 13:45:13.682414,2018-10-09 13:45:17.586637,0:00:03.904223,6,left,0,0.3507321922761548,28,m,1,14,2018_Oct_09_1318,MP_PerceptionTuring2,59.9231373115326,
259,resources/videos_generated\model(vcgpdm)-dataset(walking)-mode(ELBO)-parts(1)-dyn(22)-lvm(27)_final(8)_fail.mov,resources/videos_natural\training(34).mov,True,True,left,0,258,258,258,2018-10-09 13:45:19.053721,2018-10-09 13:45:22.990946,0:00:03.937225,6,left,1,0.2837679885774378,28,m,1,14,2018_Oct_09_1318,MP_PerceptionTuring2,59.9231373115326,
260,resources/videos_generated\model(vcgpdm)-dataset(walking)-mode(ELBO)-parts(1)-dyn(23)-lvm(22)_final(7).mov,resources/videos_natural\training(8).mov,False,False,right,0,259,259,259,2018-10-09 13:45:24.392027,2018-10-09 13:45:28.312251,0:00:03.920224,6,right,1,0.2838228017290021,28,m,1,14,2018_Oct_09_1318,MP_PerceptionTuring2,59.9231373115326,
261,resources/videos_generated\model(dmp)-dataset(walking)-npsi(70)_final(0).mov,resources/videos_natural\training(17).mov,False,False,right,0,260,260,260,2018-10-09 13:45:29.713331,2018-10-09 13:45:33.633555,0:00:03.920224,6,right,1,0.40058113987834076,28,m,1,14,2018_Oct_09_1318,MP_PerceptionTuring2,59.9231373115326,
262,resources/videos_generated\model(dmp)-dataset(walking)-npsi(100)_final(6).mov,resources/videos_natural\training(4).mov,False,False,right,0,261,261,261,2018-10-09 13:45:35.151642,2018-10-09 13:45:39.071866,0:00:03.920224,6,right,1,0.2505090545605526,28,m,1,14,2018_Oct_09_1318,MP_PerceptionTuring2,59.9231373115326,
263,resources/videos_generated\model(vcgpdm)-dataset(walking)-mode(ELBO)-parts(1)-dyn(24)-lvm(27)_final(2).mov,resources/videos_natural\training(24).mov,False,True,left,0,262,262,262,2018-10-09 13:45:40.438944,2018-10-09 13:45:44.376170,0:00:03.937226,6,right,0,0.41730728283073404,28,m,1,14,2018_Oct_09_1318,MP_PerceptionTuring2,59.9231373115326,
264,resources/videos_generated\model(vcgpdm)-dataset(walking)-mode(ELBO)-parts(1)-dyn(23)-lvm(28)_final(6)_hip-corrected.mov,resources/videos_natural\training(23).mov,True,True,left,0,263,263,263,2018-10-09 13:45:45.910257,2018-10-09 13:45:49.830481,0:00:03.920224,6,left,1,0.4006115581660197,28,m,1,14,2018_Oct_09_1318,MP_PerceptionTuring2,59.9231373115326,
265,resources/videos_generated\model(vcgpdm)-dataset(walking)-mode(ELBO)-parts(1)-dyn(24)-lvm(27)_final(8).mov,resources/videos_natural\training(10).mov,False,True,left,0,264,264,264,2018-10-09 13:45:51.348568,2018-10-09 13:45:55.268793,0:00:03.920225,6,left,1,0.3838679472869444,28,m,1,14,2018_Oct_09_1318,MP_PerceptionTuring2,59.9231373115326,
266,resources/videos_generated\model(vcgpdm)-dataset(walking)-mode(ELBO)-parts(1)-dyn(25)-lvm(28)_final(4).mov,resources/videos_natural\training(16).mov,False,True,left,0,265,265,265,2018-10-09 13:45:56.769878,2018-10-09 13:46:00.657101,0:00:03.887223,6,right,0,0.45061982531433387,28,m,1,14,2018_Oct_09_1318,MP_PerceptionTuring2,59.9231373115326,
267,resources/videos_generated\model(vcgpdm)-dataset(walking)-mode(ELBO)-parts(1)-dyn(28)-lvm(25)_final(1).mov,resources/videos_natural\training(7).mov,True,True,left,0,266,266,266,2018-10-09 13:46:02.224190,2018-10-09 13:46:06.144415,0:00:03.920225,6,right,0,0.3505481766947014,28,m,1,14,2018_Oct_09_1318,MP_PerceptionTuring2,59.9231373115326,
268,resources/videos_generated\model(dmp)-dataset(walking)-npsi(100)_final(8).mov,resources/videos_natural\training(34).mov,True,True,left,0,267,267,267,2018-10-09 13:46:07.612499,2018-10-09 13:46:11.666730,0:00:04.054231,6,left,1,0.20040140092805814,28,m,1,14,2018_Oct_09_1318,MP_PerceptionTuring2,59.9231373115326,
269,resources/videos_generated\model(dmp)-dataset(walking)-npsi(50)_final(4).mov,resources/videos_natural\training(43).mov,True,True,left,0,268,268,268,2018-10-09 13:46:12.983806,2018-10-09 13:46:17.054039,0:00:04.070233,6,right,0,0.23376905773466206,28,m,1,14,2018_Oct_09_1318,MP_PerceptionTuring2,59.9231373115326,
270,resources/videos_generated\model(vcgpdm)-dataset(walking)-mode(ELBO)-parts(2)-dyn(28)-lvm(19)_final(7).mov,resources/videos_natural\training(46).mov,True,False,right,0,269,269,269,2018-10-09 13:46:18.405116,2018-10-09 13:46:22.442347,0:00:04.037231,6,right,1,0.26714846021741323,28,m,1,14,2018_Oct_09_1318,MP_PerceptionTuring2,59.9231373115326,
271,resources/videos_generated\model(vcgpdm)-dataset(walking)-mode(ELBO)-parts(2)-dyn(23)-lvm(22)_final(5).mov,resources/videos_natural\training(19).mov,False,False,right,0,270,270,270,2018-10-09 13:46:54.620187,2018-10-09 13:46:58.523411,0:00:03.903224,7,right,1,0.2170263503685419,28,m,1,14,2018_Oct_09_1318,MP_PerceptionTuring2,59.9231373115326,
272,resources/videos_generated\model(vcgpdm)-dataset(walking)-mode(ELBO)-parts(2)-dyn(23)-lvm(22)_final(7).mov,resources/videos_natural\training(9).mov,False,True,left,0,271,271,271,2018-10-09 13:46:59.857487,2018-10-09 13:47:03.911719,0:00:04.054232,7,left,1,0.2672812767009418,28,m,1,14,2018_Oct_09_1318,MP_PerceptionTuring2,59.9231373115326,
273,resources/videos_generated\model(vcgpdm)-dataset(walking)-mode(ELBO)-parts(2)-dyn(28)-lvm(23)_final(3).mov,resources/videos_natural\training(39).mov,True,True,left,0,272,272,272,2018-10-09 13:47:05.295798,2018-10-09 13:47:09.199021,0:00:03.903223,7,left,1,0.2671743609371333,28,m,1,14,2018_Oct_09_1318,MP_PerceptionTuring2,59.9231373115326,
274,resources/videos_generated\model(vcgpdm)-dataset(walking)-mode(ELBO)-parts(2)-dyn(26)-lvm(17)_final(3).mov,resources/videos_natural\training(10).mov,False,False,right,0,273,273,273,2018-10-09 13:47:10.584100,2018-10-09 13:47:14.670334,0:00:04.086234,7,right,1,0.30060345666197463,28,m,1,14,2018_Oct_09_1318,MP_PerceptionTuring2,59.9231373115326,
275,resources/videos_generated\model(vcgpdm)-dataset(walking)-mode(ELBO)-parts(1)-dyn(26)-lvm(25)_final(5).mov,resources/videos_natural\training(6).mov,True,True,left,0,274,274,274,2018-10-09 13:47:16.088415,2018-10-09 13:47:20.025640,0:00:03.937225,7,left,1,0.2505153791548764,28,m,1,14,2018_Oct_09_1318,MP_PerceptionTuring2,59.9231373115326,
276,resources/videos_generated\model(dmp)-dataset(walking)-npsi(60)_final(4).mov,resources/videos_natural\training(12).mov,True,True,left,0,275,275,275,2018-10-09 13:47:21.392719,2018-10-09 13:47:25.312943,0:00:03.920224,7,left,1,0.36714270784841574,28,m,1,14,2018_Oct_09_1318,MP_PerceptionTuring2,59.9231373115326,
277,resources/videos_generated\model(vcgpdm)-dataset(walking)-mode(ELBO)-parts(2)-dyn(24)-lvm(23)_final(9).mov,resources/videos_natural\training(14).mov,False,True,left,0,276,276,276,2018-10-09 13:47:26.798028,2018-10-09 13:47:30.718252,0:00:03.920224,7,left,1,0.2837981056936769,28,m,1,14,2018_Oct_09_1318,MP_PerceptionTuring2,59.9231373115326,
278,resources/videos_generated\model(tmp)-dataset(walking)-numprim(14)_final(8).mov,resources/videos_natural\training(30).mov,False,True,left,0,277,277,277,2018-10-09 13:47:32.119332,2018-10-09 13:47:36.205566,0:00:04.086234,7,right,0,0.2172133776616647,28,m,1,14,2018_Oct_09_1318,MP_PerceptionTuring2,59.9231373115326,
279,resources/videos_generated\model(vcgpdm)-dataset(walking)-mode(ELBO)-parts(1)-dyn(24)-lvm(25)_final(8).mov,resources/videos_natural\training(47).mov,False,True,left,0,278,278,278,2018-10-09 13:47:37.540642,2018-10-09 13:47:41.460866,0:00:03.920224,7,right,0,0.2838170794771031,28,m,1,14,2018_Oct_09_1318,MP_PerceptionTuring2,59.9231373115326,
280,resources/videos_generated\model(vcgpdm)-dataset(walking)-mode(ELBO)-parts(1)-dyn(22)-lvm(22)_final(6).mov,resources/videos_natural\training(1).mov,True,True,left,0,279,279,279,2018-10-09 13:47:42.861947,2018-10-09 13:47:46.782171,0:00:03.920224,7,left,1,0.3171994936710689,28,m,1,14,2018_Oct_09_1318,MP_PerceptionTuring2,59.9231373115326,
281,resources/videos_generated\model(vcgpdm)-dataset(walking)-mode(ELBO)-parts(2)-dyn(22)-lvm(17)_final(9).mov,resources/videos_natural\training(44).mov,True,False,right,0,280,280,280,2018-10-09 13:47:48.216253,2018-10-09 13:47:52.169479,0:00:03.953226,7,right,1,0.38390499133993217,28,m,1,14,2018_Oct_09_1318,MP_PerceptionTuring2,59.9231373115326,
282,resources/videos_generated\model(vcgpdm)-dataset(walking)-mode(ELBO)-parts(2)-dyn(23)-lvm(20)_final(9).mov,resources/videos_natural\training(19).mov,True,False,right,0,281,281,281,2018-10-09 13:47:53.670565,2018-10-09 13:47:57.757799,0:00:04.087234,7,right,1,0.2170932103672385,28,m,1,14,2018_Oct_09_1318,MP_PerceptionTuring2,59.9231373115326,
283,resources/videos_generated\model(vcgpdm)-dataset(walking)-mode(ELBO)-parts(1)-dyn(27)-lvm(28)_final(3).mov,resources/videos_natural\training(42).mov,True,True,left,0,282,282,282,2018-10-09 13:47:59.091875,2018-10-09 13:48:02.996098,0:00:03.904223,7,left,1,0.2506737951875948,28,m,1,14,2018_Oct_09_1318,MP_PerceptionTuring2,59.9231373115326,
284,resources/videos_generated\model(vcgpdm)-dataset(walking)-mode(ELBO)-parts(1)-dyn(22)-lvm(23)_final(0).mov,resources/videos_natural\training(19).mov,False,False,right,0,283,283,283,2018-10-09 13:48:04.363176,2018-10-09 13:48:08.267400,0:00:03.904224,7,right,1,0.23377538232944062,28,m,1,14,2018_Oct_09_1318,MP_PerceptionTuring2,59.9231373115326,
285,resources/videos_generated\model(vcgpdm)-dataset(walking)-mode(ELBO)-parts(1)-dyn(27)-lvm(22)_final(5).mov,resources/videos_natural\training(28).mov,True,True,left,0,284,284,284,2018-10-09 13:48:09.618477,2018-10-09 13:48:13.654708,0:00:04.036231,7,right,0,0.4171633230143925,28,m,1,14,2018_Oct_09_1318,MP_PerceptionTuring2,59.9231373115326,
286,resources/videos_generated\model(vcgpdm)-dataset(walking)-mode(ELBO)-parts(1)-dyn(27)-lvm(26)_final(3).mov,resources/videos_natural\training(33).mov,True,False,right,0,285,285,285,2018-10-09 13:48:15.189796,2018-10-09 13:48:19.076018,0:00:03.886222,7,right,1,0.31717148475263457,28,m,1,14,2018_Oct_09_1318,MP_PerceptionTuring2,59.9231373115326,
287,resources/videos_generated\model(vcgpdm)-dataset(walking)-mode(ELBO)-parts(1)-dyn(28)-lvm(27)_final(3).mov,resources/videos_natural\training(31).mov,True,False,right,0,286,286,286,2018-10-09 13:48:20.511100,2018-10-09 13:48:24.598334,0:00:04.087234,7,right,1,0.3171606425908067,28,m,1,14,2018_Oct_09_1318,MP_PerceptionTuring2,59.9231373115326,
288,resources/videos_generated\model(vcgpdm)-dataset(walking)-mode(ELBO)-parts(1)-dyn(24)-lvm(23)_final(8).mov,resources/videos_natural\training(17).mov,True,True,left,0,287,287,287,2018-10-09 13:48:26.032416,2018-10-09 13:48:29.968641,0:00:03.936225,7,left,1,0.38391673701516993,28,m,1,14,2018_Oct_09_1318,MP_PerceptionTuring2,59.9231373115326,
289,resources/videos_generated\model(vcgpdm)-dataset(walking)-mode(ELBO)-parts(1)-dyn(27)-lvm(22)_final(7).mov,resources/videos_natural\training(35).mov,False,False,right,0,288,288,288,2018-10-09 13:48:31.470727,2018-10-09 13:48:35.390951,0:00:03.920224,7,right,1,0.21705917802546537,28,m,1,14,2018_Oct_09_1318,MP_PerceptionTuring2,59.9231373115326,
290,resources/videos_generated\model(vcgpdm)-dataset(walking)-mode(ELBO)-parts(2)-dyn(22)-lvm(19)_final(1).mov,resources/videos_natural\training(16).mov,False,False,right,0,289,289,289,2018-10-09 13:48:36.725027,2018-10-09 13:48:40.812261,0:00:04.087234,7,right,1,0.30042937972893924,28,m,1,14,2018_Oct_09_1318,MP_PerceptionTuring2,59.9231373115326,
291,resources/videos_generated\model(vcgpdm)-dataset(walking)-mode(ELBO)-parts(1)-dyn(27)-lvm(22)_final(1).mov,resources/videos_natural\training(38).mov,False,False,right,0,290,290,290,2018-10-09 13:48:42.229342,2018-10-09 13:48:46.316576,0:00:04.087234,7,right,1,0.2670081144547112,28,m,1,14,2018_Oct_09_1318,MP_PerceptionTuring2,59.9231373115326,
292,resources/videos_generated\model(vcgpdm)-dataset(walking)-mode(ELBO)-parts(2)-dyn(22)-lvm(17)_final(5).mov,resources/videos_natural\training(13).mov,False,True,left,0,291,291,291,2018-10-09 13:48:47.700655,2018-10-09 13:48:51.804890,0:00:04.104235,7,right,0,0.43392108893840486,28,m,1,14,2018_Oct_09_1318,MP_PerceptionTuring2,59.9231373115326,
