n_trial,mov_file_generated,mov_file_natural,mirrored,switch_stim_pos,correct_answer,trials.thisRepN,trials.thisTrialN,trials.thisN,trials.thisIndex,stimulus_onset,stimulus_off,stimulus_length,block,response.keys,response.corr,response.rt,age,gender,condition,participant,date,expName,frameRate,
1,resources/videos_generated\model(vcgpdm)-dataset(walking)-mode(ELBO)-parts(1)-dyn(25)-lvm(26)_final(1).mov,resources/videos_natural\training(30).mov,True,True,left,0,0,0,0,2018-10-09 17:04:39.065805,2018-10-09 17:04:43.569063,0:00:04.503258,1,left,1,3.620034207329809,21,f,2,15,2018_Oct_09_1703,MP_PerceptionTuring2,59.91902739032799,
2,resources/videos_generated\model(vcgpdm)-dataset(walking)-mode(ELBO)-parts(2)-dyn(25)-lvm(20)_final(8).mov,resources/videos_natural\training(5).mov,False,True,left,0,1,1,1,2018-10-09 17:04:48.390339,2018-10-09 17:04:52.343565,0:00:03.953226,1,left,1,0.550826857843731,21,f,2,15,2018_Oct_09_1703,MP_PerceptionTuring2,59.91902739032799,
3,resources/videos_generated\model(tmp)-dataset(walking)-numprim(14)_final(7).mov,resources/videos_natural\training(9).mov,True,True,left,0,2,2,2,2018-10-09 17:04:54.011660,2018-10-09 17:04:57.931884,0:00:03.920224,1,right,0,0.5506389253391717,21,f,2,15,2018_Oct_09_1703,MP_PerceptionTuring2,59.91902739032799,
4,resources/videos_generated\model(vcgpdm)-dataset(walking)-mode(ELBO)-parts(1)-dyn(23)-lvm(22)_final(0).mov,resources/videos_natural\training(40).mov,False,True,left,0,3,3,3,2018-10-09 17:04:59.599980,2018-10-09 17:05:03.503203,0:00:03.903223,1,right,0,1.6849998238130866,21,f,2,15,2018_Oct_09_1703,MP_PerceptionTuring2,59.91902739032799,
5,resources/videos_generated\model(dmp)-dataset(walking)-npsi(90)_final(1).mov,resources/videos_natural\training(11).mov,False,False,right,0,4,4,4,2018-10-09 17:05:06.305363,2018-10-09 17:05:10.392597,0:00:04.087234,1,right,1,0.4672959795393581,21,f,2,15,2018_Oct_09_1703,MP_PerceptionTuring2,59.91902739032799,
6,resources/videos_generated\model(vcgpdm)-dataset(walking)-mode(ELBO)-parts(2)-dyn(28)-lvm(19)_final(6).mov,resources/videos_natural\training(28).mov,True,True,left,0,5,5,5,2018-10-09 17:05:11.977688,2018-10-09 17:05:16.047921,0:00:04.070233,1,left,1,0.3671131971086652,21,f,2,15,2018_Oct_09_1703,MP_PerceptionTuring2,59.91902739032799,
7,resources/videos_generated\model(vcgpdm)-dataset(walking)-mode(ELBO)-parts(1)-dyn(22)-lvm(27)_final(1)_fail.mov,resources/videos_natural\training(33).mov,False,False,right,0,6,6,6,2018-10-09 17:05:17.532006,2018-10-09 17:05:21.585237,0:00:04.053231,1,right,1,0.43416745448757865,21,f,2,15,2018_Oct_09_1703,MP_PerceptionTuring2,59.91902739032799,
8,resources/videos_generated\model(dmp)-dataset(walking)-npsi(90)_final(7).mov,resources/videos_natural\training(10).mov,True,False,right,0,7,7,7,2018-10-09 17:05:23.137326,2018-10-09 17:05:27.223560,0:00:04.086234,1,left,0,0.5174086035140135,21,f,2,15,2018_Oct_09_1703,MP_PerceptionTuring2,59.91902739032799,
9,resources/videos_generated\model(vcgpdm)-dataset(walking)-mode(ELBO)-parts(1)-dyn(27)-lvm(26)_final(4).mov,resources/videos_natural\training(28).mov,True,False,right,0,8,8,8,2018-10-09 17:05:28.858653,2018-10-09 17:05:32.778878,0:00:03.920225,1,right,1,0.7176238826073131,21,f,2,15,2018_Oct_09_1703,MP_PerceptionTuring2,59.91902739032799,
10,resources/videos_generated\model(vcgpdm)-dataset(walking)-mode(ELBO)-parts(1)-dyn(25)-lvm(26)_final(3)_fail.mov,resources/videos_natural\training(48).mov,True,False,right,0,9,9,9,2018-10-09 17:05:34.612982,2018-10-09 17:05:38.533207,0:00:03.920225,1,left,0,1.96868634878183,21,f,2,15,2018_Oct_09_1703,MP_PerceptionTuring2,59.91902739032799,
11,resources/videos_generated\model(vcgpdm)-dataset(walking)-mode(ELBO)-parts(1)-dyn(27)-lvm(22)_final(0).mov,resources/videos_natural\training(17).mov,False,True,left,0,10,10,10,2018-10-09 17:05:41.619383,2018-10-09 17:05:45.689616,0:00:04.070233,1,right,0,0.5507413244599775,21,f,2,15,2018_Oct_09_1703,MP_PerceptionTuring2,59.91902739032799,
12,resources/videos_generated\model(vcgpdm)-dataset(walking)-mode(ELBO)-parts(2)-dyn(23)-lvm(18)_final(4).mov,resources/videos_natural\training(40).mov,True,False,right,0,11,11,11,2018-10-09 17:05:47.357711,2018-10-09 17:05:51.360940,0:00:04.003229,1,right,1,0.4673032077125754,21,f,2,15,2018_Oct_09_1703,MP_PerceptionTuring2,59.91902739032799,
13,resources/videos_generated\model(vcgpdm)-dataset(walking)-mode(ELBO)-parts(2)-dyn(24)-lvm(17)_final(0).mov,resources/videos_natural\training(19).mov,True,False,right,0,12,12,12,2018-10-09 17:05:52.946031,2018-10-09 17:05:57.033265,0:00:04.087234,1,right,1,0.3838900883979477,21,f,2,15,2018_Oct_09_1703,MP_PerceptionTuring2,59.91902739032799,
14,resources/videos_generated\model(dmp)-dataset(walking)-npsi(50)_final(1).mov,resources/videos_natural\training(25).mov,True,False,right,0,13,13,13,2018-10-09 17:05:58.534351,2018-10-09 17:06:02.604584,0:00:04.070233,1,left,0,0.5673667252849555,21,f,2,15,2018_Oct_09_1703,MP_PerceptionTuring2,59.91902739032799,
15,resources/videos_generated\model(vcgpdm)-dataset(walking)-mode(ELBO)-parts(1)-dyn(27)-lvm(26)_final(8).mov,resources/videos_natural\training(30).mov,True,False,right,0,14,14,14,2018-10-09 17:06:04.288680,2018-10-09 17:06:08.208904,0:00:03.920224,1,right,1,0.4506205838497408,21,f,2,15,2018_Oct_09_1703,MP_PerceptionTuring2,59.91902739032799,
16,resources/videos_generated\model(vcgpdm)-dataset(walking)-mode(ELBO)-parts(2)-dyn(28)-lvm(19)_final(8).mov,resources/videos_natural\training(7).mov,False,False,right,0,15,15,15,2018-10-09 17:06:09.776994,2018-10-09 17:06:13.697218,0:00:03.920224,1,left,0,0.6341378792117212,21,f,2,15,2018_Oct_09_1703,MP_PerceptionTuring2,59.91902739032799,
17,resources/videos_generated\model(vcgpdm)-dataset(walking)-mode(ELBO)-parts(1)-dyn(27)-lvm(24)_final(0).mov,resources/videos_natural\training(16).mov,True,False,right,0,16,16,16,2018-10-09 17:06:15.449318,2018-10-09 17:06:19.385543,0:00:03.936225,1,right,1,0.36721710209849334,21,f,2,15,2018_Oct_09_1703,MP_PerceptionTuring2,59.91902739032799,
18,resources/videos_generated\model(vcgpdm)-dataset(walking)-mode(ELBO)-parts(2)-dyn(28)-lvm(23)_final(6).mov,resources/videos_natural\training(47).mov,False,True,left,0,17,17,17,2018-10-09 17:06:20.869628,2018-10-09 17:06:24.789852,0:00:03.920224,1,right,0,0.4172137741275037,21,f,2,15,2018_Oct_09_1703,MP_PerceptionTuring2,59.91902739032799,
19,resources/videos_generated\model(vcgpdm)-dataset(walking)-mode(ELBO)-parts(2)-dyn(26)-lvm(21)_final(0).mov,resources/videos_natural\training(25).mov,True,False,right,0,18,18,18,2018-10-09 17:06:26.324940,2018-10-09 17:06:30.245164,0:00:03.920224,1,right,1,0.5171860360123901,21,f,2,15,2018_Oct_09_1703,MP_PerceptionTuring2,59.91902739032799,
20,resources/videos_generated\model(vcgpdm)-dataset(walking)-mode(ELBO)-parts(2)-dyn(22)-lvm(19)_final(0).mov,resources/videos_natural\training(10).mov,False,True,left,0,19,19,19,2018-10-09 17:06:31.879258,2018-10-09 17:06:35.783481,0:00:03.904223,1,left,1,0.4006007214316014,21,f,2,15,2018_Oct_09_1703,MP_PerceptionTuring2,59.91902739032799,
21,resources/videos_generated\model(vcgpdm)-dataset(walking)-mode(ELBO)-parts(1)-dyn(24)-lvm(27)_final(7).mov,resources/videos_natural\training(19).mov,True,True,left,0,20,20,20,2018-10-09 17:06:37.300568,2018-10-09 17:06:41.220792,0:00:03.920224,1,right,0,0.35055315101681117,21,f,2,15,2018_Oct_09_1703,MP_PerceptionTuring2,59.91902739032799,
22,resources/videos_generated\model(vcgpdm)-dataset(walking)-mode(ELBO)-parts(1)-dyn(22)-lvm(25)_final(5).mov,resources/videos_natural\training(3).mov,False,True,left,0,21,21,21,2018-10-09 17:06:42.688876,2018-10-09 17:06:46.626101,0:00:03.937225,1,left,1,0.5840731418852556,21,f,2,15,2018_Oct_09_1703,MP_PerceptionTuring2,59.91902739032799,
23,resources/videos_generated\model(dmp)-dataset(walking)-npsi(50)_final(7).mov,resources/videos_natural\training(39).mov,False,False,right,0,22,22,22,2018-10-09 17:06:48.327199,2018-10-09 17:06:52.447434,0:00:04.120235,1,right,1,0.3671948152314144,21,f,2,15,2018_Oct_09_1703,MP_PerceptionTuring2,59.91902739032799,
24,resources/videos_generated\model(vcgpdm)-dataset(walking)-mode(ELBO)-parts(2)-dyn(22)-lvm(19)_final(4).mov,resources/videos_natural\training(48).mov,False,True,left,0,23,23,23,2018-10-09 17:06:53.932519,2018-10-09 17:06:57.835743,0:00:03.903224,1,left,1,0.46734236031807086,21,f,2,15,2018_Oct_09_1703,MP_PerceptionTuring2,59.91902739032799,
25,resources/videos_generated\model(vcgpdm)-dataset(walking)-mode(ELBO)-parts(1)-dyn(22)-lvm(23)_final(9).mov,resources/videos_natural\training(45).mov,False,True,left,0,24,24,24,2018-10-09 17:06:59.419833,2018-10-09 17:07:03.524068,0:00:04.104235,1,left,1,0.3672189091421387,21,f,2,15,2018_Oct_09_1703,MP_PerceptionTuring2,59.91902739032799,
26,resources/videos_generated\model(vcgpdm)-dataset(walking)-mode(ELBO)-parts(1)-dyn(24)-lvm(27)_final(5).mov,resources/videos_natural\training(36).mov,True,True,left,0,25,25,25,2018-10-09 17:07:05.008153,2018-10-09 17:07:09.112388,0:00:04.104235,1,left,1,0.33383468746114886,21,f,2,15,2018_Oct_09_1703,MP_PerceptionTuring2,59.91902739032799,
27,resources/videos_generated\model(tmp)-dataset(walking)-numprim(12)_final(1).mov,resources/videos_natural\training(47).mov,False,False,right,0,26,26,26,2018-10-09 17:07:10.563471,2018-10-09 17:07:14.466694,0:00:03.903223,1,left,0,0.016902781973385572,21,f,2,15,2018_Oct_09_1703,MP_PerceptionTuring2,59.91902739032799,
28,resources/videos_generated\model(vcgpdm)-dataset(walking)-mode(ELBO)-parts(1)-dyn(23)-lvm(27)_final(7).mov,resources/videos_natural\training(23).mov,False,False,right,0,27,27,27,2018-10-09 17:07:15.600759,2018-10-09 17:07:19.670991,0:00:04.070232,1,right,1,0.5674052755425691,21,f,2,15,2018_Oct_09_1703,MP_PerceptionTuring2,59.91902739032799,
29,resources/videos_generated\model(vcgpdm)-dataset(walking)-mode(ELBO)-parts(2)-dyn(24)-lvm(21)_final(2).mov,resources/videos_natural\training(4).mov,False,True,left,0,28,28,28,2018-10-09 17:07:21.356088,2018-10-09 17:07:25.442322,0:00:04.086234,1,left,1,0.5341198388964585,21,f,2,15,2018_Oct_09_1703,MP_PerceptionTuring2,59.91902739032799,
30,resources/videos_generated\model(dmp)-dataset(walking)-npsi(50)_final(5).mov,resources/videos_natural\training(41).mov,True,True,left,0,29,29,29,2018-10-09 17:07:27.094416,2018-10-09 17:07:31.197651,0:00:04.103235,1,right,0,1.0177810050231528,21,f,2,15,2018_Oct_09_1703,MP_PerceptionTuring2,59.91902739032799,
31,resources/videos_generated\model(dmp)-dataset(walking)-npsi(90)_final(9).mov,resources/videos_natural\training(42).mov,False,False,right,0,30,30,30,2018-10-09 17:07:33.332773,2018-10-09 17:07:37.386005,0:00:04.053232,1,left,0,0.4006522221666273,21,f,2,15,2018_Oct_09_1703,MP_PerceptionTuring2,59.91902739032799,
32,resources/videos_generated\model(vcgpdm)-dataset(walking)-mode(ELBO)-parts(1)-dyn(28)-lvm(27)_final(0).mov,resources/videos_natural\training(37).mov,False,True,left,0,31,31,31,2018-10-09 17:07:38.904092,2018-10-09 17:07:42.991325,0:00:04.087233,1,left,1,0.13377300704951267,21,f,2,15,2018_Oct_09_1703,MP_PerceptionTuring2,59.91902739032799,
33,resources/videos_generated\model(vcgpdm)-dataset(walking)-mode(ELBO)-parts(1)-dyn(27)-lvm(28)_final(0).mov,resources/videos_natural\training(9).mov,False,False,right,0,32,32,32,2018-10-09 17:07:44.242397,2018-10-09 17:07:48.162621,0:00:03.920224,1,left,0,1.0511248694037931,21,f,2,15,2018_Oct_09_1703,MP_PerceptionTuring2,59.91902739032799,
34,resources/videos_generated\model(vcgpdm)-dataset(walking)-mode(ELBO)-parts(1)-dyn(24)-lvm(25)_final(1).mov,resources/videos_natural\training(44).mov,True,True,left,0,33,33,33,2018-10-09 17:07:50.330745,2018-10-09 17:07:54.383977,0:00:04.053232,1,left,1,0.43396145154974874,21,f,2,15,2018_Oct_09_1703,MP_PerceptionTuring2,59.91902739032799,
35,resources/videos_generated\model(vcgpdm)-dataset(walking)-mode(ELBO)-parts(1)-dyn(26)-lvm(25)_final(0).mov,resources/videos_natural\training(26).mov,True,True,left,0,34,34,34,2018-10-09 17:07:55.936066,2018-10-09 17:08:00.006298,0:00:04.070232,1,left,1,0.4172472044283495,21,f,2,15,2018_Oct_09_1703,MP_PerceptionTuring2,59.91902739032799,
36,resources/videos_generated\model(dmp)-dataset(walking)-npsi(90)_final(5).mov,resources/videos_natural\training(18).mov,True,False,right,0,35,35,35,2018-10-09 17:08:01.540386,2018-10-09 17:08:05.593618,0:00:04.053232,1,right,1,0.3504091898994375,21,f,2,15,2018_Oct_09_1703,MP_PerceptionTuring2,59.91902739032799,
37,resources/videos_generated\model(vcgpdm)-dataset(walking)-mode(ELBO)-parts(1)-dyn(27)-lvm(22)_final(2).mov,resources/videos_natural\training(1).mov,True,True,left,0,36,36,36,2018-10-09 17:08:07.061702,2018-10-09 17:08:11.148936,0:00:04.087234,1,left,1,0.3340150906187773,21,f,2,15,2018_Oct_09_1703,MP_PerceptionTuring2,59.91902739032799,
38,resources/videos_generated\model(vcgpdm)-dataset(walking)-mode(ELBO)-parts(2)-dyn(27)-lvm(22)_final(0).mov,resources/videos_natural\training(36).mov,False,True,left,0,37,37,37,2018-10-09 17:08:12.600019,2018-10-09 17:08:16.503242,0:00:03.903223,1,left,1,0.433908746119414,21,f,2,15,2018_Oct_09_1703,MP_PerceptionTuring2,59.91902739032799,
39,resources/videos_generated\model(dmp)-dataset(walking)-npsi(80)_final(3).mov,resources/videos_natural\training(26).mov,True,True,left,0,38,38,38,2018-10-09 17:08:18.054331,2018-10-09 17:08:22.008557,0:00:03.954226,1,right,0,0.5674116001941911,21,f,2,15,2018_Oct_09_1703,MP_PerceptionTuring2,59.91902739032799,
40,resources/videos_generated\model(vcgpdm)-dataset(walking)-mode(ELBO)-parts(2)-dyn(27)-lvm(18)_final(6).mov,resources/videos_natural\training(23).mov,True,True,left,0,39,39,39,2018-10-09 17:08:23.692653,2018-10-09 17:08:27.612878,0:00:03.920225,1,left,1,0.5172468731370827,21,f,2,15,2018_Oct_09_1703,MP_PerceptionTuring2,59.91902739032799,
41,resources/videos_generated\model(vcgpdm)-dataset(walking)-mode(ELBO)-parts(2)-dyn(23)-lvm(18)_final(2).mov,resources/videos_natural\training(23).mov,True,False,right,0,40,40,40,2018-10-09 17:08:29.247971,2018-10-09 17:08:33.184196,0:00:03.936225,1,left,0,0.3672152950553027,21,f,2,15,2018_Oct_09_1703,MP_PerceptionTuring2,59.91902739032799,
42,resources/videos_generated\model(vcgpdm)-dataset(walking)-mode(ELBO)-parts(2)-dyn(22)-lvm(23)_final(0).mov,resources/videos_natural\training(22).mov,False,True,left,0,41,41,41,2018-10-09 17:08:34.669281,2018-10-09 17:08:38.772516,0:00:04.103235,1,left,1,0.31716712229263067,21,f,2,15,2018_Oct_09_1703,MP_PerceptionTuring2,59.91902739032799,
43,resources/videos_generated\model(vcgpdm)-dataset(walking)-mode(ELBO)-parts(2)-dyn(22)-lvm(17)_final(2).mov,resources/videos_natural\training(39).mov,False,False,right,0,42,42,42,2018-10-09 17:08:40.207598,2018-10-09 17:08:44.293832,0:00:04.086234,1,right,1,0.6340619833927121,21,f,2,15,2018_Oct_09_1703,MP_PerceptionTuring2,59.91902739032799,
44,resources/videos_generated\model(vcgpdm)-dataset(walking)-mode(ELBO)-parts(2)-dyn(26)-lvm(19)_final(4).mov,resources/videos_natural\training(1).mov,True,True,left,0,43,43,43,2018-10-09 17:08:46.045932,2018-10-09 17:08:49.966156,0:00:03.920224,1,left,1,0.33400605540191464,21,f,2,15,2018_Oct_09_1703,MP_PerceptionTuring2,59.91902739032799,
45,resources/videos_generated\model(vcgpdm)-dataset(walking)-mode(ELBO)-parts(2)-dyn(28)-lvm(23)_final(0).mov,resources/videos_natural\training(48).mov,False,True,left,0,44,44,44,2018-10-09 17:08:51.417239,2018-10-09 17:08:55.403467,0:00:03.986228,1,left,1,0.31705629030238924,21,f,2,15,2018_Oct_09_1703,MP_PerceptionTuring2,59.91902739032799,
46,resources/videos_generated\model(vcgpdm)-dataset(walking)-mode(ELBO)-parts(2)-dyn(27)-lvm(20)_final(4).mov,resources/videos_natural\training(34).mov,True,True,left,0,45,45,45,2018-10-09 17:09:28.966387,2018-10-09 17:09:33.052620,0:00:04.086233,2,left,1,0.45066997636695305,21,f,2,15,2018_Oct_09_1703,MP_PerceptionTuring2,59.91902739032799,
47,resources/videos_generated\model(dmp)-dataset(walking)-npsi(70)_final(5).mov,resources/videos_natural\training(24).mov,False,False,right,0,46,46,46,2018-10-09 17:09:34.620710,2018-10-09 17:09:38.707944,0:00:04.087234,2,right,1,0.4672944736703357,21,f,2,15,2018_Oct_09_1703,MP_PerceptionTuring2,59.91902739032799,
48,resources/videos_generated\model(vcgpdm)-dataset(walking)-mode(ELBO)-parts(1)-dyn(27)-lvm(26)_final(2).mov,resources/videos_natural\training(24).mov,False,False,right,0,47,47,47,2018-10-09 17:09:40.293035,2018-10-09 17:09:44.363267,0:00:04.070232,2,right,1,0.38389822009230556,21,f,2,15,2018_Oct_09_1703,MP_PerceptionTuring2,59.91902739032799,
49,resources/videos_generated\model(vcgpdm)-dataset(walking)-mode(ELBO)-parts(2)-dyn(28)-lvm(21)_final(0).mov,resources/videos_natural\training(2).mov,True,False,right,0,48,48,48,2018-10-09 17:09:45.864353,2018-10-09 17:09:49.934586,0:00:04.070233,2,right,1,0.31717073637901194,21,f,2,15,2018_Oct_09_1703,MP_PerceptionTuring2,59.91902739032799,
50,resources/videos_generated\model(vcgpdm)-dataset(walking)-mode(ELBO)-parts(2)-dyn(22)-lvm(23)_final(2).mov,resources/videos_natural\training(6).mov,True,True,left,0,49,49,49,2018-10-09 17:09:51.368668,2018-10-09 17:09:55.472903,0:00:04.104235,2,left,1,0.33390305393322706,21,f,2,15,2018_Oct_09_1703,MP_PerceptionTuring2,59.91902739032799,
51,resources/videos_generated\model(vcgpdm)-dataset(walking)-mode(ELBO)-parts(2)-dyn(26)-lvm(23)_final(2).mov,resources/videos_natural\training(23).mov,True,True,left,0,50,50,50,2018-10-09 17:09:56.923986,2018-10-09 17:10:01.010220,0:00:04.086234,2,left,1,0.3171312826002577,21,f,2,15,2018_Oct_09_1703,MP_PerceptionTuring2,59.91902739032799,
52,resources/videos_generated\model(vcgpdm)-dataset(walking)-mode(ELBO)-parts(1)-dyn(28)-lvm(24)_final(0).mov,resources/videos_natural\training(28).mov,True,False,right,0,51,51,51,2018-10-09 17:10:02.445302,2018-10-09 17:10:06.548536,0:00:04.103234,2,left,0,0.48394938953560995,21,f,2,15,2018_Oct_09_1703,MP_PerceptionTuring2,59.91902739032799,
53,resources/videos_generated\model(vcgpdm)-dataset(walking)-mode(ELBO)-parts(1)-dyn(23)-lvm(26)_final(8)_hip-corrected.mov,resources/videos_natural\training(14).mov,False,True,left,0,52,52,52,2018-10-09 17:10:08.149628,2018-10-09 17:10:12.219861,0:00:04.070233,2,left,1,0.5172628353529944,21,f,2,15,2018_Oct_09_1703,MP_PerceptionTuring2,59.91902739032799,
54,resources/videos_generated\model(vcgpdm)-dataset(walking)-mode(ELBO)-parts(1)-dyn(23)-lvm(24)_final(8).mov,resources/videos_natural\training(33).mov,False,False,right,0,53,53,53,2018-10-09 17:10:13.854954,2018-10-09 17:10:17.792179,0:00:03.937225,2,right,1,0.5007054998268359,21,f,2,15,2018_Oct_09_1703,MP_PerceptionTuring2,59.91902739032799,
55,resources/videos_generated\model(vcgpdm)-dataset(walking)-mode(ELBO)-parts(2)-dyn(27)-lvm(18)_final(0).mov,resources/videos_natural\training(36).mov,False,False,right,0,54,54,54,2018-10-09 17:10:19.409272,2018-10-09 17:10:23.446503,0:00:04.037231,2,right,1,0.3839680924338609,21,f,2,15,2018_Oct_09_1703,MP_PerceptionTuring2,59.91902739032799,
56,resources/videos_generated\model(vcgpdm)-dataset(walking)-mode(ELBO)-parts(1)-dyn(23)-lvm(22)_final(2).mov,resources/videos_natural\training(24).mov,False,True,left,0,55,55,55,2018-10-09 17:10:24.947589,2018-10-09 17:10:28.850812,0:00:03.903223,2,right,0,0.5674013602820196,21,f,2,15,2018_Oct_09_1703,MP_PerceptionTuring2,59.91902739032799,
57,resources/videos_generated\model(vcgpdm)-dataset(walking)-mode(ELBO)-parts(1)-dyn(23)-lvm(28)_final(9).mov,resources/videos_natural\training(31).mov,True,False,right,0,56,56,56,2018-10-09 17:10:30.535908,2018-10-09 17:10:34.439132,0:00:03.903224,2,left,0,0.7008512077522937,21,f,2,15,2018_Oct_09_1703,MP_PerceptionTuring2,59.91902739032799,
58,resources/videos_generated\model(vcgpdm)-dataset(walking)-mode(ELBO)-parts(1)-dyn(23)-lvm(27)_final(0).mov,resources/videos_natural\training(37).mov,False,True,left,0,57,57,57,2018-10-09 17:10:36.257236,2018-10-09 17:10:40.311467,0:00:04.054231,2,left,1,0.3839629724780025,21,f,2,15,2018_Oct_09_1703,MP_PerceptionTuring2,59.91902739032799,
59,resources/videos_generated\model(vcgpdm)-dataset(walking)-mode(ELBO)-parts(1)-dyn(25)-lvm(22)_final(1).mov,resources/videos_natural\training(2).mov,False,True,left,0,58,58,58,2018-10-09 17:10:41.812553,2018-10-09 17:10:45.899787,0:00:04.087234,2,left,1,0.4506142591981188,21,f,2,15,2018_Oct_09_1703,MP_PerceptionTuring2,59.91902739032799,
60,resources/videos_generated\model(vcgpdm)-dataset(walking)-mode(ELBO)-parts(1)-dyn(23)-lvm(28)_final(7).mov,resources/videos_natural\training(10).mov,False,False,right,0,59,59,59,2018-10-09 17:10:47.466877,2018-10-09 17:10:51.454105,0:00:03.987228,2,left,0,0.7508876347337718,21,f,2,15,2018_Oct_09_1703,MP_PerceptionTuring2,59.91902739032799,
61,resources/videos_generated\model(vcgpdm)-dataset(walking)-mode(ELBO)-parts(1)-dyn(22)-lvm(27)_final(3)_fail.mov,resources/videos_natural\training(19).mov,False,False,right,0,60,60,60,2018-10-09 17:10:53.322212,2018-10-09 17:10:57.259437,0:00:03.937225,2,right,1,0.5674649079714982,21,f,2,15,2018_Oct_09_1703,MP_PerceptionTuring2,59.91902739032799,
62,resources/videos_generated\model(vcgpdm)-dataset(walking)-mode(ELBO)-parts(2)-dyn(26)-lvm(23)_final(4).mov,resources/videos_natural\training(15).mov,True,True,left,0,61,61,61,2018-10-09 17:10:58.943533,2018-10-09 17:11:03.063769,0:00:04.120236,2,left,1,0.6674838518092656,21,f,2,15,2018_Oct_09_1703,MP_PerceptionTuring2,59.91902739032799,
63,resources/videos_generated\model(tmp)-dataset(walking)-numprim(14)_final(5).mov,resources/videos_natural\training(43).mov,False,False,right,0,62,62,62,2018-10-09 17:11:04.848871,2018-10-09 17:11:08.952106,0:00:04.103235,2,left,0,0.3173960144454213,21,f,2,15,2018_Oct_09_1703,MP_PerceptionTuring2,59.91902739032799,
64,resources/videos_generated\model(dmp)-dataset(walking)-npsi(100)_final(3).mov,resources/videos_natural\training(0).mov,False,True,left,0,63,63,63,2018-10-09 17:11:10.387188,2018-10-09 17:11:14.474421,0:00:04.087233,2,left,1,0.31726379910969627,21,f,2,15,2018_Oct_09_1703,MP_PerceptionTuring2,59.91902739032799,
65,resources/videos_generated\model(vcgpdm)-dataset(walking)-mode(ELBO)-parts(2)-dyn(26)-lvm(19)_final(2).mov,resources/videos_natural\training(10).mov,False,True,left,0,64,64,64,2018-10-09 17:11:15.908503,2018-10-09 17:11:19.861730,0:00:03.953227,2,left,1,0.4673342286228035,21,f,2,15,2018_Oct_09_1703,MP_PerceptionTuring2,59.91902739032799,
66,resources/videos_generated\model(tmp)-dataset(walking)-numprim(14)_final(9).mov,resources/videos_natural\training(0).mov,False,True,left,0,65,65,65,2018-10-09 17:11:21.446820,2018-10-09 17:11:25.534054,0:00:04.087234,2,left,1,0.3004754632129334,21,f,2,15,2018_Oct_09_1703,MP_PerceptionTuring2,59.91902739032799,
67,resources/videos_generated\model(dmp)-dataset(walking)-npsi(60)_final(3).mov,resources/videos_natural\training(45).mov,False,True,left,0,66,66,66,2018-10-09 17:11:26.951135,2018-10-09 17:11:31.055370,0:00:04.104235,2,right,0,0.20039176698992378,21,f,2,15,2018_Oct_09_1703,MP_PerceptionTuring2,59.91902739032799,
68,resources/videos_generated\model(vcgpdm)-dataset(walking)-mode(ELBO)-parts(1)-dyn(22)-lvm(25)_final(7).mov,resources/videos_natural\training(2).mov,False,True,left,0,67,67,67,2018-10-09 17:11:32.372445,2018-10-09 17:11:36.276668,0:00:03.904223,2,left,1,0.5507687312838243,21,f,2,15,2018_Oct_09_1703,MP_PerceptionTuring2,59.91902739032799,
69,resources/videos_generated\model(dmp)-dataset(walking)-npsi(60)_final(1).mov,resources/videos_natural\training(42).mov,True,True,left,0,68,68,68,2018-10-09 17:11:37.944764,2018-10-09 17:11:42.047999,0:00:04.103235,2,right,0,0.3513883062014429,21,f,2,15,2018_Oct_09_1703,MP_PerceptionTuring2,59.91902739032799,
70,resources/videos_generated\model(vcgpdm)-dataset(walking)-mode(ELBO)-parts(2)-dyn(28)-lvm(21)_final(8).mov,resources/videos_natural\training(26).mov,False,False,right,0,69,69,69,2018-10-09 17:11:43.516083,2018-10-09 17:11:47.436307,0:00:03.920224,2,right,1,0.3671767447981438,21,f,2,15,2018_Oct_09_1703,MP_PerceptionTuring2,59.91902739032799,
71,resources/videos_generated\model(vcgpdm)-dataset(walking)-mode(ELBO)-parts(2)-dyn(22)-lvm(17)_final(0).mov,resources/videos_natural\training(31).mov,False,False,right,0,70,70,70,2018-10-09 17:11:48.920392,2018-10-09 17:11:52.807614,0:00:03.887222,2,left,0,0.36716590253809045,21,f,2,15,2018_Oct_09_1703,MP_PerceptionTuring2,59.91902739032799,
72,resources/videos_generated\model(vcgpdm)-dataset(walking)-mode(ELBO)-parts(1)-dyn(25)-lvm(24)_final(8).mov,resources/videos_natural\training(19).mov,True,True,left,0,71,71,71,2018-10-09 17:11:54.291699,2018-10-09 17:11:58.361932,0:00:04.070233,2,left,1,0.450629920240317,21,f,2,15,2018_Oct_09_1703,MP_PerceptionTuring2,59.91902739032799,
73,resources/videos_generated\model(vcgpdm)-dataset(walking)-mode(ELBO)-parts(1)-dyn(26)-lvm(27)_final(2).mov,resources/videos_natural\training(13).mov,True,False,right,0,72,72,72,2018-10-09 17:11:59.930021,2018-10-09 17:12:04.017255,0:00:04.087234,2,left,0,0.5013632635927934,21,f,2,15,2018_Oct_09_1703,MP_PerceptionTuring2,59.91902739032799,
74,resources/videos_generated\model(vcgpdm)-dataset(walking)-mode(ELBO)-parts(1)-dyn(23)-lvm(22)_final(6)_fail.mov,resources/videos_natural\training(13).mov,False,False,right,0,73,73,73,2018-10-09 17:12:05.635348,2018-10-09 17:12:09.605575,0:00:03.970227,2,right,1,0.4007775105028486,21,f,2,15,2018_Oct_09_1703,MP_PerceptionTuring2,59.91902739032799,
75,resources/videos_generated\model(vcgpdm)-dataset(walking)-mode(ELBO)-parts(2)-dyn(28)-lvm(21)_final(2).mov,resources/videos_natural\training(33).mov,True,False,right,0,74,74,74,2018-10-09 17:12:11.122662,2018-10-09 17:12:15.059887,0:00:03.937225,2,right,1,0.35050556554278955,21,f,2,15,2018_Oct_09_1703,MP_PerceptionTuring2,59.91902739032799,
76,resources/videos_generated\model(vcgpdm)-dataset(walking)-mode(ELBO)-parts(2)-dyn(24)-lvm(21)_final(6).mov,resources/videos_natural\training(8).mov,False,False,right,0,75,75,75,2018-10-09 17:12:16.527971,2018-10-09 17:12:20.614204,0:00:04.086233,2,right,1,0.4172520232109491,21,f,2,15,2018_Oct_09_1703,MP_PerceptionTuring2,59.91902739032799,
77,resources/videos_generated\model(vcgpdm)-dataset(walking)-mode(ELBO)-parts(2)-dyn(26)-lvm(17)_final(8).mov,resources/videos_natural\training(41).mov,True,False,right,0,76,76,76,2018-10-09 17:12:22.149292,2018-10-09 17:12:26.136520,0:00:03.987228,2,right,1,0.33384462619960686,21,f,2,15,2018_Oct_09_1703,MP_PerceptionTuring2,59.91902739032799,
78,resources/videos_generated\model(vcgpdm)-dataset(walking)-mode(ELBO)-parts(2)-dyn(28)-lvm(23)_final(2).mov,resources/videos_natural\training(4).mov,False,False,right,0,77,77,77,2018-10-09 17:12:27.587603,2018-10-09 17:12:31.673837,0:00:04.086234,2,right,1,2.252131934641511,21,f,2,15,2018_Oct_09_1703,MP_PerceptionTuring2,59.91902739032799,
79,resources/videos_generated\model(dmp)-dataset(walking)-npsi(100)_final(5).mov,resources/videos_natural\training(7).mov,True,False,right,0,78,78,78,2018-10-09 17:12:35.044030,2018-10-09 17:12:39.080261,0:00:04.036231,2,right,1,0.8676241386051515,21,f,2,15,2018_Oct_09_1703,MP_PerceptionTuring2,59.91902739032799,
80,resources/videos_generated\model(vcgpdm)-dataset(walking)-mode(ELBO)-parts(1)-dyn(28)-lvm(25)_final(6).mov,resources/videos_natural\training(31).mov,True,True,left,0,79,79,79,2018-10-09 17:12:41.065374,2018-10-09 17:12:44.985598,0:00:03.920224,2,left,1,0.6007611868781169,21,f,2,15,2018_Oct_09_1703,MP_PerceptionTuring2,59.91902739032799,
81,resources/videos_generated\model(dmp)-dataset(walking)-npsi(100)_final(9).mov,resources/videos_natural\training(25).mov,False,False,right,0,80,80,80,2018-10-09 17:12:46.703697,2018-10-09 17:12:50.590919,0:00:03.887222,2,left,0,0.4005043457887041,21,f,2,15,2018_Oct_09_1703,MP_PerceptionTuring2,59.91902739032799,
82,resources/videos_generated\model(vcgpdm)-dataset(walking)-mode(ELBO)-parts(1)-dyn(25)-lvm(26)_final(9).mov,resources/videos_natural\training(37).mov,True,False,right,0,81,81,81,2018-10-09 17:12:52.108006,2018-10-09 17:12:56.012229,0:00:03.904223,2,left,0,0.36724270187914954,21,f,2,15,2018_Oct_09_1703,MP_PerceptionTuring2,59.91902739032799,
83,resources/videos_generated\model(vcgpdm)-dataset(walking)-mode(ELBO)-parts(1)-dyn(24)-lvm(23)_final(1).mov,resources/videos_natural\training(17).mov,False,False,right,0,82,82,82,2018-10-09 17:12:57.496314,2018-10-09 17:13:01.399537,0:00:03.903223,2,right,1,0.40068083368532825,21,f,2,15,2018_Oct_09_1703,MP_PerceptionTuring2,59.91902739032799,
84,resources/videos_generated\model(vcgpdm)-dataset(walking)-mode(ELBO)-parts(2)-dyn(24)-lvm(19)_final(4).mov,resources/videos_natural\training(17).mov,True,False,right,0,83,83,83,2018-10-09 17:13:02.917624,2018-10-09 17:13:07.021859,0:00:04.104235,2,left,0,0.517263437701331,21,f,2,15,2018_Oct_09_1703,MP_PerceptionTuring2,59.91902739032799,
85,resources/videos_generated\model(vcgpdm)-dataset(walking)-mode(ELBO)-parts(2)-dyn(22)-lvm(21)_final(2).mov,resources/videos_natural\training(46).mov,False,True,left,0,84,84,84,2018-10-09 17:13:08.655952,2018-10-09 17:13:12.743186,0:00:04.087234,2,left,1,0.41713878182963526,21,f,2,15,2018_Oct_09_1703,MP_PerceptionTuring2,59.91902739032799,
86,resources/videos_generated\model(tmp)-dataset(walking)-numprim(11)_final(9).mov,resources/videos_natural\training(47).mov,True,True,left,0,85,85,85,2018-10-09 17:13:14.277274,2018-10-09 17:13:18.181497,0:00:03.904223,2,left,1,0.4839710740557166,21,f,2,15,2018_Oct_09_1703,MP_PerceptionTuring2,59.91902739032799,
87,resources/videos_generated\model(vcgpdm)-dataset(walking)-mode(ELBO)-parts(2)-dyn(23)-lvm(22)_final(4).mov,resources/videos_natural\training(31).mov,False,False,right,0,86,86,86,2018-10-09 17:13:19.782589,2018-10-09 17:13:23.885823,0:00:04.103234,2,right,1,0.5173309006518139,21,f,2,15,2018_Oct_09_1703,MP_PerceptionTuring2,59.91902739032799,
88,resources/videos_generated\model(vcgpdm)-dataset(walking)-mode(ELBO)-parts(1)-dyn(26)-lvm(27)_final(4).mov,resources/videos_natural\training(5).mov,True,True,left,0,87,87,87,2018-10-09 17:13:25.520917,2018-10-09 17:13:29.557148,0:00:04.036231,2,right,0,0.2671011802699468,21,f,2,15,2018_Oct_09_1703,MP_PerceptionTuring2,59.91902739032799,
89,resources/videos_generated\model(vcgpdm)-dataset(walking)-mode(ELBO)-parts(2)-dyn(24)-lvm(21)_final(4).mov,resources/videos_natural\training(8).mov,True,True,left,0,88,88,88,2018-10-09 17:13:30.942227,2018-10-09 17:13:34.928455,0:00:03.986228,2,left,1,0.550725663418234,21,f,2,15,2018_Oct_09_1703,MP_PerceptionTuring2,59.91902739032799,
90,resources/videos_generated\model(vcgpdm)-dataset(walking)-mode(ELBO)-parts(2)-dyn(24)-lvm(17)_final(2).mov,resources/videos_natural\training(16).mov,True,False,right,0,89,89,89,2018-10-09 17:13:36.596550,2018-10-09 17:13:40.683784,0:00:04.087234,2,left,0,0.40048627535543346,21,f,2,15,2018_Oct_09_1703,MP_PerceptionTuring2,59.91902739032799,
91,resources/videos_generated\model(tmp)-dataset(walking)-numprim(13)_final(7).mov,resources/videos_natural\training(20).mov,True,False,right,0,90,90,90,2018-10-09 17:14:36.214960,2018-10-09 17:14:40.135185,0:00:03.920225,3,left,0,0.3338557696333737,21,f,2,15,2018_Oct_09_1703,MP_PerceptionTuring2,59.91902739032799,
92,resources/videos_generated\model(vcgpdm)-dataset(walking)-mode(ELBO)-parts(1)-dyn(22)-lvm(27)_final(5)_fail.mov,resources/videos_natural\training(48).mov,True,False,right,0,91,91,91,2018-10-09 17:14:41.586268,2018-10-09 17:14:45.690502,0:00:04.104234,3,right,1,0.383828347751205,21,f,2,15,2018_Oct_09_1703,MP_PerceptionTuring2,59.91902739032799,
93,resources/videos_generated\model(vcgpdm)-dataset(walking)-mode(ELBO)-parts(1)-dyn(28)-lvm(27)_final(4).mov,resources/videos_natural\training(47).mov,True,True,left,0,92,92,92,2018-10-09 17:14:47.191588,2018-10-09 17:14:51.094811,0:00:03.903223,3,left,1,0.4672544175432449,21,f,2,15,2018_Oct_09_1703,MP_PerceptionTuring2,59.91902739032799,
94,resources/videos_generated\model(tmp)-dataset(walking)-numprim(15)_final(7).mov,resources/videos_natural\training(35).mov,False,True,left,0,93,93,93,2018-10-09 17:14:52.678902,2018-10-09 17:14:56.599126,0:00:03.920224,3,left,1,0.31719362559442743,21,f,2,15,2018_Oct_09_1703,MP_PerceptionTuring2,59.91902739032799,
95,resources/videos_generated\model(dmp)-dataset(walking)-npsi(80)_final(1).mov,resources/videos_natural\training(26).mov,False,True,left,0,94,94,94,2018-10-09 17:14:58.034208,2018-10-09 17:15:01.937432,0:00:03.903224,3,right,0,0.40057482047768644,21,f,2,15,2018_Oct_09_1703,MP_PerceptionTuring2,59.91902739032799,
96,resources/videos_generated\model(vcgpdm)-dataset(walking)-mode(ELBO)-parts(1)-dyn(25)-lvm(22)_final(9).mov,resources/videos_natural\training(1).mov,True,True,left,0,95,95,95,2018-10-09 17:15:03.455518,2018-10-09 17:15:07.375743,0:00:03.920225,3,left,1,0.41733544837688896,21,f,2,15,2018_Oct_09_1703,MP_PerceptionTuring2,59.91902739032799,
97,resources/videos_generated\model(vcgpdm)-dataset(walking)-mode(ELBO)-parts(1)-dyn(26)-lvm(23)_final(4)_fail.mov,resources/videos_natural\training(26).mov,False,True,left,0,96,96,96,2018-10-09 17:15:08.909830,2018-10-09 17:15:12.847056,0:00:03.937226,3,left,1,0.41725232438466264,21,f,2,15,2018_Oct_09_1703,MP_PerceptionTuring2,59.91902739032799,
98,resources/videos_generated\model(tmp)-dataset(walking)-numprim(11)_final(3).mov,resources/videos_natural\training(39).mov,False,True,left,0,97,97,97,2018-10-09 17:15:14.381143,2018-10-09 17:15:18.301368,0:00:03.920225,3,right,0,0.43412800070836965,21,f,2,15,2018_Oct_09_1703,MP_PerceptionTuring2,59.91902739032799,
99,resources/videos_generated\model(vcgpdm)-dataset(walking)-mode(ELBO)-parts(2)-dyn(23)-lvm(20)_final(4).mov,resources/videos_natural\training(9).mov,False,True,left,0,98,98,98,2018-10-09 17:15:19.852456,2018-10-09 17:15:23.772680,0:00:03.920224,3,left,1,0.5508000533677659,21,f,2,15,2018_Oct_09_1703,MP_PerceptionTuring2,59.91902739032799,
100,resources/videos_generated\model(vcgpdm)-dataset(walking)-mode(ELBO)-parts(1)-dyn(22)-lvm(23)_final(3)_fail.mov,resources/videos_natural\training(46).mov,False,False,right,0,99,99,99,2018-10-09 17:15:25.440776,2018-10-09 17:15:29.394002,0:00:03.953226,3,right,1,0.5006808035682297,21,f,2,15,2018_Oct_09_1703,MP_PerceptionTuring2,59.91902739032799,
101,resources/videos_generated\model(vcgpdm)-dataset(walking)-mode(ELBO)-parts(2)-dyn(22)-lvm(17)_final(6).mov,resources/videos_natural\training(41).mov,True,False,right,0,100,100,100,2018-10-09 17:15:31.012095,2018-10-09 17:15:34.949320,0:00:03.937225,3,right,1,0.4506377507614161,21,f,2,15,2018_Oct_09_1703,MP_PerceptionTuring2,59.91902739032799,
102,resources/videos_generated\model(vcgpdm)-dataset(walking)-mode(ELBO)-parts(2)-dyn(22)-lvm(23)_final(8).mov,resources/videos_natural\training(48).mov,False,False,right,0,101,101,101,2018-10-09 17:15:36.517409,2018-10-09 17:15:40.620644,0:00:04.103235,3,right,1,0.41734388124586985,21,f,2,15,2018_Oct_09_1703,MP_PerceptionTuring2,59.91902739032799,
103,resources/videos_generated\model(vcgpdm)-dataset(walking)-mode(ELBO)-parts(1)-dyn(23)-lvm(24)_final(2).mov,resources/videos_natural\training(47).mov,True,False,right,0,102,102,102,2018-10-09 17:15:42.155732,2018-10-09 17:15:46.058955,0:00:03.903223,3,right,1,0.41727551477379166,21,f,2,15,2018_Oct_09_1703,MP_PerceptionTuring2,59.91902739032799,
104,resources/videos_generated\model(vcgpdm)-dataset(walking)-mode(ELBO)-parts(2)-dyn(27)-lvm(20)_final(8).mov,resources/videos_natural\training(7).mov,True,False,right,0,103,103,103,2018-10-09 17:15:47.593043,2018-10-09 17:15:51.680277,0:00:04.087234,3,right,1,0.43383917495202695,21,f,2,15,2018_Oct_09_1703,MP_PerceptionTuring2,59.91902739032799,
105,resources/videos_generated\model(vcgpdm)-dataset(walking)-mode(ELBO)-parts(2)-dyn(28)-lvm(19)_final(2).mov,resources/videos_natural\training(19).mov,False,True,left,0,104,104,104,2018-10-09 17:15:53.231365,2018-10-09 17:15:57.151590,0:00:03.920225,3,left,1,0.3005453355544887,21,f,2,15,2018_Oct_09_1703,MP_PerceptionTuring2,59.91902739032799,
106,resources/videos_generated\model(tmp)-dataset(walking)-numprim(14)_final(3).mov,resources/videos_natural\training(43).mov,False,False,right,0,105,105,105,2018-10-09 17:15:58.569671,2018-10-09 17:16:02.672905,0:00:04.103234,3,left,0,0.3172553662407154,21,f,2,15,2018_Oct_09_1703,MP_PerceptionTuring2,59.91902739032799,
107,resources/videos_generated\model(vcgpdm)-dataset(walking)-mode(ELBO)-parts(1)-dyn(27)-lvm(24)_final(6).mov,resources/videos_natural\training(36).mov,True,False,right,0,106,106,106,2018-10-09 17:16:04.107988,2018-10-09 17:16:08.011211,0:00:03.903223,3,right,1,0.41721648469228967,21,f,2,15,2018_Oct_09_1703,MP_PerceptionTuring2,59.91902739032799,
108,resources/videos_generated\model(vcgpdm)-dataset(walking)-mode(ELBO)-parts(2)-dyn(24)-lvm(17)_final(8).mov,resources/videos_natural\training(43).mov,True,False,right,0,107,107,107,2018-10-09 17:16:09.546299,2018-10-09 17:16:13.649533,0:00:04.103234,3,left,0,0.417315872074596,21,f,2,15,2018_Oct_09_1703,MP_PerceptionTuring2,59.91902739032799,
109,resources/videos_generated\model(vcgpdm)-dataset(walking)-mode(ELBO)-parts(1)-dyn(25)-lvm(28)_final(3).mov,resources/videos_natural\training(9).mov,False,False,right,0,108,108,108,2018-10-09 17:16:15.183621,2018-10-09 17:16:19.070843,0:00:03.887222,3,right,1,0.9509649761876062,21,f,2,15,2018_Oct_09_1703,MP_PerceptionTuring2,59.91902739032799,
110,resources/videos_generated\model(vcgpdm)-dataset(walking)-mode(ELBO)-parts(2)-dyn(26)-lvm(19)_final(6).mov,resources/videos_natural\training(29).mov,False,True,left,0,109,109,109,2018-10-09 17:16:21.138962,2018-10-09 17:16:25.059186,0:00:03.920224,3,left,1,0.5173646321268279,21,f,2,15,2018_Oct_09_1703,MP_PerceptionTuring2,59.91902739032799,
111,resources/videos_generated\model(vcgpdm)-dataset(walking)-mode(ELBO)-parts(2)-dyn(26)-lvm(21)_final(6).mov,resources/videos_natural\training(21).mov,False,False,right,0,110,110,110,2018-10-09 17:16:26.694279,2018-10-09 17:16:30.580502,0:00:03.886223,3,right,1,0.40079527976195095,21,f,2,15,2018_Oct_09_1703,MP_PerceptionTuring2,59.91902739032799,
112,resources/videos_generated\model(vcgpdm)-dataset(walking)-mode(ELBO)-parts(1)-dyn(28)-lvm(25)_final(4).mov,resources/videos_natural\training(44).mov,True,True,left,0,111,111,111,2018-10-09 17:16:32.098589,2018-10-09 17:16:36.018813,0:00:03.920224,3,left,1,0.617376046616755,21,f,2,15,2018_Oct_09_1703,MP_PerceptionTuring2,59.91902739032799,
113,resources/videos_generated\model(vcgpdm)-dataset(walking)-mode(ELBO)-parts(1)-dyn(26)-lvm(23)_final(8).mov,resources/videos_natural\training(29).mov,True,True,left,0,112,112,112,2018-10-09 17:16:37.753912,2018-10-09 17:16:41.690137,0:00:03.936225,3,left,1,0.5508940196200456,21,f,2,15,2018_Oct_09_1703,MP_PerceptionTuring2,59.91902739032799,
114,resources/videos_generated\model(vcgpdm)-dataset(walking)-mode(ELBO)-parts(1)-dyn(25)-lvm(22)_final(5).mov,resources/videos_natural\training(27).mov,True,True,left,0,113,113,113,2018-10-09 17:16:43.358233,2018-10-09 17:16:47.295458,0:00:03.937225,3,left,1,0.534063820553456,21,f,2,15,2018_Oct_09_1703,MP_PerceptionTuring2,59.91902739032799,
115,resources/videos_generated\model(vcgpdm)-dataset(walking)-mode(ELBO)-parts(2)-dyn(25)-lvm(20)_final(2).mov,resources/videos_natural\training(41).mov,False,True,left,0,114,114,114,2018-10-09 17:16:48.946552,2018-10-09 17:16:53.016785,0:00:04.070233,3,left,1,0.3005152181658559,21,f,2,15,2018_Oct_09_1703,MP_PerceptionTuring2,59.91902739032799,
116,resources/videos_generated\model(vcgpdm)-dataset(walking)-mode(ELBO)-parts(1)-dyn(22)-lvm(27)_final(7)_hip-corrected.mov,resources/videos_natural\training(27).mov,False,True,left,0,115,115,115,2018-10-09 17:16:54.434866,2018-10-09 17:16:58.388092,0:00:03.953226,3,right,0,0.5173827025596438,21,f,2,15,2018_Oct_09_1703,MP_PerceptionTuring2,59.91902739032799,
117,resources/videos_generated\model(vcgpdm)-dataset(walking)-mode(ELBO)-parts(1)-dyn(27)-lvm(24)_final(8).mov,resources/videos_natural\training(13).mov,False,True,left,0,116,116,116,2018-10-09 17:17:00.023186,2018-10-09 17:17:04.093419,0:00:04.070233,3,left,1,0.4339292259442118,21,f,2,15,2018_Oct_09_1703,MP_PerceptionTuring2,59.91902739032799,
118,resources/videos_generated\model(vcgpdm)-dataset(walking)-mode(ELBO)-parts(1)-dyn(28)-lvm(25)_final(0).mov,resources/videos_natural\training(13).mov,True,True,left,0,117,117,117,2018-10-09 17:17:05.644507,2018-10-09 17:17:09.731741,0:00:04.087234,3,left,1,0.3004905219072498,21,f,2,15,2018_Oct_09_1703,MP_PerceptionTuring2,59.91902739032799,
119,resources/videos_generated\model(vcgpdm)-dataset(walking)-mode(ELBO)-parts(2)-dyn(25)-lvm(20)_final(4).mov,resources/videos_natural\training(18).mov,False,True,left,0,118,118,118,2018-10-09 17:17:11.148822,2018-10-09 17:17:15.136050,0:00:03.987228,3,left,1,0.3005375050333896,21,f,2,15,2018_Oct_09_1703,MP_PerceptionTuring2,59.91902739032799,
120,resources/videos_generated\model(vcgpdm)-dataset(walking)-mode(ELBO)-parts(1)-dyn(23)-lvm(24)_final(0).mov,resources/videos_natural\training(22).mov,False,False,right,0,119,119,119,2018-10-09 17:17:16.554131,2018-10-09 17:17:20.674367,0:00:04.120236,3,right,1,0.6341318557342674,21,f,2,15,2018_Oct_09_1703,MP_PerceptionTuring2,59.91902739032799,
121,resources/videos_generated\model(vcgpdm)-dataset(walking)-mode(ELBO)-parts(2)-dyn(27)-lvm(22)_final(6).mov,resources/videos_natural\training(21).mov,False,True,left,0,120,120,120,2018-10-09 17:17:22.425467,2018-10-09 17:17:26.512701,0:00:04.087234,3,left,1,0.3672089704036807,21,f,2,15,2018_Oct_09_1703,MP_PerceptionTuring2,59.91902739032799,
122,resources/videos_generated\model(vcgpdm)-dataset(walking)-mode(ELBO)-parts(1)-dyn(22)-lvm(22)_final(7).mov,resources/videos_natural\training(38).mov,True,False,right,0,121,121,121,2018-10-09 17:17:27.996786,2018-10-09 17:17:32.051018,0:00:04.054232,3,right,1,0.3671571684958508,21,f,2,15,2018_Oct_09_1703,MP_PerceptionTuring2,59.91902739032799,
123,resources/videos_generated\model(dmp)-dataset(walking)-npsi(70)_final(9).mov,resources/videos_natural\training(27).mov,True,True,left,0,122,122,122,2018-10-09 17:17:33.535102,2018-10-09 17:17:37.505330,0:00:03.970228,3,right,0,0.6341177005615464,21,f,2,15,2018_Oct_09_1703,MP_PerceptionTuring2,59.91902739032799,
124,resources/videos_generated\model(vcgpdm)-dataset(walking)-mode(ELBO)-parts(2)-dyn(25)-lvm(22)_final(8).mov,resources/videos_natural\training(33).mov,False,False,right,0,123,123,123,2018-10-09 17:17:39.256430,2018-10-09 17:17:43.276660,0:00:04.020230,3,left,0,0.4007844375023524,21,f,2,15,2018_Oct_09_1703,MP_PerceptionTuring2,59.91902739032799,
125,resources/videos_generated\model(dmp)-dataset(walking)-npsi(60)_final(9).mov,resources/videos_natural\training(46).mov,True,True,left,0,124,124,124,2018-10-09 17:17:44.794746,2018-10-09 17:17:48.814976,0:00:04.020230,3,left,1,0.400549220697485,21,f,2,15,2018_Oct_09_1703,MP_PerceptionTuring2,59.91902739032799,
126,resources/videos_generated\model(vcgpdm)-dataset(walking)-mode(ELBO)-parts(2)-dyn(25)-lvm(22)_final(0).mov,resources/videos_natural\training(22).mov,True,True,left,0,125,125,125,2018-10-09 17:17:50.333063,2018-10-09 17:17:54.436298,0:00:04.103235,3,right,0,0.4172694912958832,21,f,2,15,2018_Oct_09_1703,MP_PerceptionTuring2,59.91902739032799,
127,resources/videos_generated\model(vcgpdm)-dataset(walking)-mode(ELBO)-parts(2)-dyn(27)-lvm(18)_final(2).mov,resources/videos_natural\training(15).mov,False,False,right,0,126,126,126,2018-10-09 17:17:55.971386,2018-10-09 17:17:59.991616,0:00:04.020230,3,right,1,0.4506847338871012,21,f,2,15,2018_Oct_09_1703,MP_PerceptionTuring2,59.91902739032799,
128,resources/videos_generated\model(vcgpdm)-dataset(walking)-mode(ELBO)-parts(1)-dyn(22)-lvm(28)_final(2).mov,resources/videos_natural\training(9).mov,True,True,left,0,127,127,127,2018-10-09 17:18:01.559705,2018-10-09 17:18:05.445928,0:00:03.886223,3,left,1,0.5508307731042805,21,f,2,15,2018_Oct_09_1703,MP_PerceptionTuring2,59.91902739032799,
129,resources/videos_generated\model(vcgpdm)-dataset(walking)-mode(ELBO)-parts(1)-dyn(24)-lvm(27)_final(1).mov,resources/videos_natural\training(4).mov,True,False,right,0,128,128,128,2018-10-09 17:18:07.114023,2018-10-09 17:18:11.234259,0:00:04.120236,3,right,1,0.33379011372608147,21,f,2,15,2018_Oct_09_1703,MP_PerceptionTuring2,59.91902739032799,
130,resources/videos_generated\model(vcgpdm)-dataset(walking)-mode(ELBO)-parts(2)-dyn(26)-lvm(21)_final(8).mov,resources/videos_natural\training(38).mov,False,False,right,0,129,129,129,2018-10-09 17:18:12.685342,2018-10-09 17:18:16.739574,0:00:04.054232,3,right,1,0.4839650505773534,21,f,2,15,2018_Oct_09_1703,MP_PerceptionTuring2,59.91902739032799,
131,resources/videos_generated\model(vcgpdm)-dataset(walking)-mode(ELBO)-parts(1)-dyn(26)-lvm(22)_final(2).mov,resources/videos_natural\training(3).mov,True,False,right,0,130,130,130,2018-10-09 17:18:18.340665,2018-10-09 17:18:22.260889,0:00:03.920224,3,right,1,0.41735261528856427,21,f,2,15,2018_Oct_09_1703,MP_PerceptionTuring2,59.91902739032799,
132,resources/videos_generated\model(vcgpdm)-dataset(walking)-mode(ELBO)-parts(2)-dyn(22)-lvm(23)_final(6).mov,resources/videos_natural\training(19).mov,False,False,right,0,131,131,131,2018-10-09 17:18:23.794977,2018-10-09 17:18:27.799206,0:00:04.004229,3,right,1,0.36736919491067965,21,f,2,15,2018_Oct_09_1703,MP_PerceptionTuring2,59.91902739032799,
133,resources/videos_generated\model(vcgpdm)-dataset(walking)-mode(ELBO)-parts(2)-dyn(26)-lvm(23)_final(8).mov,resources/videos_natural\training(30).mov,True,True,left,0,132,132,132,2018-10-09 17:18:29.283291,2018-10-09 17:18:33.203515,0:00:03.920224,3,left,1,0.3838090726221708,21,f,2,15,2018_Oct_09_1703,MP_PerceptionTuring2,59.91902739032799,
134,resources/videos_generated\model(vcgpdm)-dataset(walking)-mode(ELBO)-parts(1)-dyn(25)-lvm(25)_final(7).mov,resources/videos_natural\training(14).mov,False,False,right,0,133,133,133,2018-10-09 17:18:34.704601,2018-10-09 17:18:38.791835,0:00:04.087234,3,right,1,0.31727885780401266,21,f,2,15,2018_Oct_09_1703,MP_PerceptionTuring2,59.91902739032799,
135,resources/videos_generated\model(vcgpdm)-dataset(walking)-mode(ELBO)-parts(2)-dyn(24)-lvm(23)_final(6).mov,resources/videos_natural\training(22).mov,True,True,left,0,134,134,134,2018-10-09 17:18:40.225917,2018-10-09 17:18:44.113139,0:00:03.887222,3,left,1,0.417246903254636,21,f,2,15,2018_Oct_09_1703,MP_PerceptionTuring2,59.91902739032799,
136,resources/videos_generated\model(vcgpdm)-dataset(walking)-mode(ELBO)-parts(1)-dyn(23)-lvm(22)_final(8)_fail.mov,resources/videos_natural\training(44).mov,False,True,left,0,135,135,135,2018-10-09 17:19:27.450618,2018-10-09 17:19:31.553853,0:00:04.103235,4,left,1,0.4004880823986241,21,f,2,15,2018_Oct_09_1703,MP_PerceptionTuring2,59.91902739032799,
137,resources/videos_generated\model(tmp)-dataset(walking)-numprim(13)_final(1).mov,resources/videos_natural\training(16).mov,True,True,left,0,136,136,136,2018-10-09 17:19:33.071940,2018-10-09 17:19:36.975163,0:00:03.903223,4,left,1,0.3672360760533593,21,f,2,15,2018_Oct_09_1703,MP_PerceptionTuring2,59.91902739032799,
138,resources/videos_generated\model(vcgpdm)-dataset(walking)-mode(ELBO)-parts(1)-dyn(27)-lvm(24)_final(2).mov,resources/videos_natural\training(34).mov,True,False,right,0,137,137,137,2018-10-09 17:19:38.460248,2018-10-09 17:19:42.346470,0:00:03.886222,4,right,1,0.3338434215038433,21,f,2,15,2018_Oct_09_1703,MP_PerceptionTuring2,59.91902739032799,
139,resources/videos_generated\model(vcgpdm)-dataset(walking)-mode(ELBO)-parts(2)-dyn(28)-lvm(17)_final(2).mov,resources/videos_natural\training(32).mov,False,False,right,0,138,138,138,2018-10-09 17:19:43.797553,2018-10-09 17:19:47.867786,0:00:04.070233,4,right,1,0.36712915932412216,21,f,2,15,2018_Oct_09_1703,MP_PerceptionTuring2,59.91902739032799,
140,resources/videos_generated\model(vcgpdm)-dataset(walking)-mode(ELBO)-parts(2)-dyn(25)-lvm(20)_final(6).mov,resources/videos_natural\training(42).mov,True,False,right,0,139,139,139,2018-10-09 17:19:49.352871,2018-10-09 17:19:53.423104,0:00:04.070233,4,left,0,0.3671719260159989,21,f,2,15,2018_Oct_09_1703,MP_PerceptionTuring2,59.91902739032799,
141,resources/videos_generated\model(dmp)-dataset(walking)-npsi(80)_final(5).mov,resources/videos_natural\training(24).mov,False,False,right,0,140,140,140,2018-10-09 17:19:54.907188,2018-10-09 17:19:58.860415,0:00:03.953227,4,left,0,0.4172975004676118,21,f,2,15,2018_Oct_09_1703,MP_PerceptionTuring2,59.91902739032799,
142,resources/videos_generated\model(vcgpdm)-dataset(walking)-mode(ELBO)-parts(1)-dyn(28)-lvm(23)_final(2).mov,resources/videos_natural\training(18).mov,True,False,right,0,141,141,141,2018-10-09 17:20:00.395502,2018-10-09 17:20:04.482736,0:00:04.087234,4,right,1,0.26711925070367215,21,f,2,15,2018_Oct_09_1703,MP_PerceptionTuring2,59.91902739032799,
143,resources/videos_generated\model(vcgpdm)-dataset(walking)-mode(ELBO)-parts(2)-dyn(27)-lvm(22)_final(8).mov,resources/videos_natural\training(27).mov,False,False,right,0,142,142,142,2018-10-09 17:20:05.866815,2018-10-09 17:20:09.804041,0:00:03.937226,4,right,1,0.4841319009101426,21,f,2,15,2018_Oct_09_1703,MP_PerceptionTuring2,59.91902739032799,
144,resources/videos_generated\model(vcgpdm)-dataset(walking)-mode(ELBO)-parts(1)-dyn(28)-lvm(27)_final(2).mov,resources/videos_natural\training(28).mov,True,False,right,0,143,143,143,2018-10-09 17:20:11.405132,2018-10-09 17:20:15.525368,0:00:04.120236,4,right,1,0.3337615022069258,21,f,2,15,2018_Oct_09_1703,MP_PerceptionTuring2,59.91902739032799,
145,resources/videos_generated\model(vcgpdm)-dataset(walking)-mode(ELBO)-parts(1)-dyn(27)-lvm(28)_final(4).mov,resources/videos_natural\training(20).mov,False,True,left,0,144,144,144,2018-10-09 17:20:16.976451,2018-10-09 17:20:20.963679,0:00:03.987228,4,left,1,0.2506308839965641,21,f,2,15,2018_Oct_09_1703,MP_PerceptionTuring2,59.91902739032799,
146,resources/videos_generated\model(vcgpdm)-dataset(walking)-mode(ELBO)-parts(1)-dyn(28)-lvm(25)_final(2).mov,resources/videos_natural\training(11).mov,False,True,left,0,145,145,145,2018-10-09 17:20:22.330757,2018-10-09 17:20:26.434992,0:00:04.104235,4,left,1,0.350603748229787,21,f,2,15,2018_Oct_09_1703,MP_PerceptionTuring2,59.91902739032799,
147,resources/videos_generated\model(vcgpdm)-dataset(walking)-mode(ELBO)-parts(1)-dyn(25)-lvm(28)_final(1).mov,resources/videos_natural\training(27).mov,False,True,left,0,146,146,146,2018-10-09 17:20:27.902076,2018-10-09 17:20:31.806299,0:00:03.904223,4,left,1,0.433922298944708,21,f,2,15,2018_Oct_09_1703,MP_PerceptionTuring2,59.91902739032799,
148,resources/videos_generated\model(vcgpdm)-dataset(walking)-mode(ELBO)-parts(2)-dyn(27)-lvm(20)_final(2).mov,resources/videos_natural\training(28).mov,False,True,left,0,147,147,147,2018-10-09 17:20:33.357388,2018-10-09 17:20:37.260611,0:00:03.903223,4,left,1,0.31726319676181447,21,f,2,15,2018_Oct_09_1703,MP_PerceptionTuring2,59.91902739032799,
149,resources/videos_generated\model(vcgpdm)-dataset(walking)-mode(ELBO)-parts(2)-dyn(27)-lvm(20)_final(6).mov,resources/videos_natural\training(46).mov,False,False,right,0,148,148,148,2018-10-09 17:20:38.694693,2018-10-09 17:20:42.815929,0:00:04.121236,4,right,1,0.36721168096892143,21,f,2,15,2018_Oct_09_1703,MP_PerceptionTuring2,59.91902739032799,
150,resources/videos_generated\model(vcgpdm)-dataset(walking)-mode(ELBO)-parts(1)-dyn(25)-lvm(28)_final(7).mov,resources/videos_natural\training(25).mov,False,False,right,0,149,149,149,2018-10-09 17:20:44.300014,2018-10-09 17:20:48.270241,0:00:03.970227,4,right,1,0.5172625341797357,21,f,2,15,2018_Oct_09_1703,MP_PerceptionTuring2,59.91902739032799,
151,resources/videos_generated\model(tmp)-dataset(walking)-numprim(12)_final(5).mov,resources/videos_natural\training(6).mov,False,True,left,0,150,150,150,2018-10-09 17:20:49.904334,2018-10-09 17:20:53.808557,0:00:03.904223,4,left,1,0.7677777674043682,21,f,2,15,2018_Oct_09_1703,MP_PerceptionTuring2,59.91902739032799,
152,resources/videos_generated\model(tmp)-dataset(walking)-numprim(15)_final(3).mov,resources/videos_natural\training(46).mov,True,False,right,0,151,151,151,2018-10-09 17:20:55.693665,2018-10-09 17:20:59.646891,0:00:03.953226,4,left,0,0.36715204853953765,21,f,2,15,2018_Oct_09_1703,MP_PerceptionTuring2,59.91902739032799,
153,resources/videos_generated\model(vcgpdm)-dataset(walking)-mode(ELBO)-parts(1)-dyn(25)-lvm(26)_final(5).mov,resources/videos_natural\training(23).mov,False,True,left,0,152,152,152,2018-10-09 17:21:01.130976,2018-10-09 17:21:05.068201,0:00:03.937225,4,right,0,0.3672393889664818,21,f,2,15,2018_Oct_09_1703,MP_PerceptionTuring2,59.91902739032799,
154,resources/videos_generated\model(vcgpdm)-dataset(walking)-mode(ELBO)-parts(1)-dyn(25)-lvm(24)_final(0).mov,resources/videos_natural\training(37).mov,True,True,left,0,153,153,153,2018-10-09 17:21:06.552286,2018-10-09 17:21:10.456510,0:00:03.904224,4,left,1,0.35058959305706594,21,f,2,15,2018_Oct_09_1703,MP_PerceptionTuring2,59.91902739032799,
155,resources/videos_generated\model(vcgpdm)-dataset(walking)-mode(ELBO)-parts(1)-dyn(26)-lvm(25)_final(2).mov,resources/videos_natural\training(25).mov,True,True,left,0,154,154,154,2018-10-09 17:21:11.923594,2018-10-09 17:21:15.860819,0:00:03.937225,4,left,1,0.5006410486153072,21,f,2,15,2018_Oct_09_1703,MP_PerceptionTuring2,59.91902739032799,
156,resources/videos_generated\model(dmp)-dataset(walking)-npsi(50)_final(9).mov,resources/videos_natural\training(19).mov,False,False,right,0,155,155,155,2018-10-09 17:21:17.478911,2018-10-09 17:21:21.515142,0:00:04.036231,4,right,1,0.26707919457658136,21,f,2,15,2018_Oct_09_1703,MP_PerceptionTuring2,59.91902739032799,
157,resources/videos_generated\model(vcgpdm)-dataset(walking)-mode(ELBO)-parts(2)-dyn(24)-lvm(23)_final(8).mov,resources/videos_natural\training(12).mov,False,False,right,0,156,156,156,2018-10-09 17:21:22.900221,2018-10-09 17:21:26.953453,0:00:04.053232,4,right,1,0.3337684292064296,21,f,2,15,2018_Oct_09_1703,MP_PerceptionTuring2,59.91902739032799,
158,resources/videos_generated\model(vcgpdm)-dataset(walking)-mode(ELBO)-parts(1)-dyn(22)-lvm(23)_final(7).mov,resources/videos_natural\training(3).mov,True,True,left,0,157,157,157,2018-10-09 17:21:28.404536,2018-10-09 17:21:32.474769,0:00:04.070233,4,right,0,0.3505230336281784,21,f,2,15,2018_Oct_09_1703,MP_PerceptionTuring2,59.91902739032799,
159,resources/videos_generated\model(vcgpdm)-dataset(walking)-mode(ELBO)-parts(1)-dyn(23)-lvm(22)_final(4)_fail.mov,resources/videos_natural\training(21).mov,False,False,right,0,158,158,158,2018-10-09 17:21:33.942853,2018-10-09 17:21:37.863077,0:00:03.920224,4,right,1,0.4839984808791087,21,f,2,15,2018_Oct_09_1703,MP_PerceptionTuring2,59.91902739032799,
160,resources/videos_generated\model(vcgpdm)-dataset(walking)-mode(ELBO)-parts(1)-dyn(22)-lvm(25)_final(1).mov,resources/videos_natural\training(34).mov,True,True,left,0,159,159,159,2018-10-09 17:21:39.464169,2018-10-09 17:21:43.401394,0:00:03.937225,4,left,1,0.38384400879294844,21,f,2,15,2018_Oct_09_1703,MP_PerceptionTuring2,59.91902739032799,
161,resources/videos_generated\model(tmp)-dataset(walking)-numprim(15)_final(5).mov,resources/videos_natural\training(36).mov,True,True,left,0,160,160,160,2018-10-09 17:21:44.902480,2018-10-09 17:21:48.789702,0:00:03.887222,4,right,0,0.5007931414274935,21,f,2,15,2018_Oct_09_1703,MP_PerceptionTuring2,59.91902739032799,
162,resources/videos_generated\model(vcgpdm)-dataset(walking)-mode(ELBO)-parts(2)-dyn(23)-lvm(18)_final(6).mov,resources/videos_natural\training(12).mov,True,True,left,0,161,161,161,2018-10-09 17:21:50.406795,2018-10-09 17:21:54.311018,0:00:03.904223,4,left,1,0.31724121106844905,21,f,2,15,2018_Oct_09_1703,MP_PerceptionTuring2,59.91902739032799,
163,resources/videos_generated\model(vcgpdm)-dataset(walking)-mode(ELBO)-parts(1)-dyn(22)-lvm(25)_final(9).mov,resources/videos_natural\training(4).mov,False,False,right,0,162,162,162,2018-10-09 17:21:55.745100,2018-10-09 17:21:59.782331,0:00:04.037231,4,right,1,0.18375943916589677,21,f,2,15,2018_Oct_09_1703,MP_PerceptionTuring2,59.91902739032799,
164,resources/videos_generated\model(vcgpdm)-dataset(walking)-mode(ELBO)-parts(1)-dyn(25)-lvm(24)_final(4).mov,resources/videos_natural\training(35).mov,True,False,right,0,163,163,163,2018-10-09 17:22:01.083405,2018-10-09 17:22:05.119636,0:00:04.036231,4,right,1,0.3839867652150133,21,f,2,15,2018_Oct_09_1703,MP_PerceptionTuring2,59.91902739032799,
165,resources/videos_generated\model(vcgpdm)-dataset(walking)-mode(ELBO)-parts(2)-dyn(22)-lvm(19)_final(8).mov,resources/videos_natural\training(6).mov,False,False,right,0,164,164,164,2018-10-09 17:22:06.620722,2018-10-09 17:22:10.707956,0:00:04.087234,4,right,1,0.3339545546673435,21,f,2,15,2018_Oct_09_1703,MP_PerceptionTuring2,59.91902739032799,
166,resources/videos_generated\model(vcgpdm)-dataset(walking)-mode(ELBO)-parts(1)-dyn(25)-lvm(22)_final(3).mov,resources/videos_natural\training(47).mov,True,False,right,0,165,165,165,2018-10-09 17:22:12.159039,2018-10-09 17:22:16.246273,0:00:04.087234,4,right,1,0.35079378895125046,21,f,2,15,2018_Oct_09_1703,MP_PerceptionTuring2,59.91902739032799,
167,resources/videos_generated\model(vcgpdm)-dataset(walking)-mode(ELBO)-parts(1)-dyn(26)-lvm(23)_final(2).mov,resources/videos_natural\training(4).mov,False,True,left,0,166,166,166,2018-10-09 17:22:17.714357,2018-10-09 17:22:21.617580,0:00:03.903223,4,right,0,0.30043570826001087,21,f,2,15,2018_Oct_09_1703,MP_PerceptionTuring2,59.91902739032799,
168,resources/videos_generated\model(tmp)-dataset(walking)-numprim(12)_final(7).mov,resources/videos_natural\training(33).mov,False,False,right,0,167,167,167,2018-10-09 17:22:23.035661,2018-10-09 17:22:26.971886,0:00:03.936225,4,left,0,0.41721166591059955,21,f,2,15,2018_Oct_09_1703,MP_PerceptionTuring2,59.91902739032799,
169,resources/videos_generated\model(vcgpdm)-dataset(walking)-mode(ELBO)-parts(2)-dyn(28)-lvm(17)_final(8).mov,resources/videos_natural\training(27).mov,False,True,left,0,168,168,168,2018-10-09 17:22:28.506974,2018-10-09 17:22:32.594208,0:00:04.087234,4,left,1,0.3004691385613114,21,f,2,15,2018_Oct_09_1703,MP_PerceptionTuring2,59.91902739032799,
170,resources/videos_generated\model(vcgpdm)-dataset(walking)-mode(ELBO)-parts(1)-dyn(24)-lvm(23)_final(9).mov,resources/videos_natural\training(33).mov,False,True,left,0,169,169,169,2018-10-09 17:22:34.011289,2018-10-09 17:22:38.081522,0:00:04.070233,4,right,0,0.5505994715604174,21,f,2,15,2018_Oct_09_1703,MP_PerceptionTuring2,59.91902739032799,
171,resources/videos_generated\model(vcgpdm)-dataset(walking)-mode(ELBO)-parts(1)-dyn(24)-lvm(27)_final(9).mov,resources/videos_natural\training(1).mov,True,True,left,0,170,170,170,2018-10-09 17:22:39.749617,2018-10-09 17:22:43.836851,0:00:04.087234,4,left,1,0.35057302849327243,21,f,2,15,2018_Oct_09_1703,MP_PerceptionTuring2,59.91902739032799,
172,resources/videos_generated\model(tmp)-dataset(walking)-numprim(15)_final(9).mov,resources/videos_natural\training(1).mov,False,True,left,0,171,171,171,2018-10-09 17:22:45.304935,2018-10-09 17:22:49.408169,0:00:04.103234,4,right,0,0.3505914001002566,21,f,2,15,2018_Oct_09_1703,MP_PerceptionTuring2,59.91902739032799,
173,resources/videos_generated\model(vcgpdm)-dataset(walking)-mode(ELBO)-parts(2)-dyn(22)-lvm(21)_final(6).mov,resources/videos_natural\training(15).mov,False,False,right,0,172,172,172,2018-10-09 17:22:50.876253,2018-10-09 17:22:54.796478,0:00:03.920225,4,right,1,0.3337533705125679,21,f,2,15,2018_Oct_09_1703,MP_PerceptionTuring2,59.91902739032799,
174,resources/videos_generated\model(vcgpdm)-dataset(walking)-mode(ELBO)-parts(2)-dyn(28)-lvm(19)_final(0).mov,resources/videos_natural\training(38).mov,True,False,right,0,173,173,173,2018-10-09 17:22:56.247561,2018-10-09 17:23:00.350795,0:00:04.103234,4,left,0,0.3504935185874274,21,f,2,15,2018_Oct_09_1703,MP_PerceptionTuring2,59.91902739032799,
175,resources/videos_generated\model(vcgpdm)-dataset(walking)-mode(ELBO)-parts(2)-dyn(25)-lvm(18)_final(8).mov,resources/videos_natural\training(31).mov,False,True,left,0,174,174,174,2018-10-09 17:23:01.818879,2018-10-09 17:23:05.739103,0:00:03.920224,4,left,1,0.33398376853438094,21,f,2,15,2018_Oct_09_1703,MP_PerceptionTuring2,59.91902739032799,
176,resources/videos_generated\model(vcgpdm)-dataset(walking)-mode(ELBO)-parts(1)-dyn(28)-lvm(27)_final(6).mov,resources/videos_natural\training(34).mov,True,False,right,0,175,175,175,2018-10-09 17:23:07.190186,2018-10-09 17:23:11.110411,0:00:03.920225,4,left,0,0.7675720656397971,21,f,2,15,2018_Oct_09_1703,MP_PerceptionTuring2,59.91902739032799,
177,resources/videos_generated\model(vcgpdm)-dataset(walking)-mode(ELBO)-parts(1)-dyn(23)-lvm(26)_final(4)_hip-corrected.mov,resources/videos_natural\training(16).mov,True,True,left,0,176,176,176,2018-10-09 17:23:12.995518,2018-10-09 17:23:16.898742,0:00:03.903224,4,left,1,0.9510390649634246,21,f,2,15,2018_Oct_09_1703,MP_PerceptionTuring2,59.91902739032799,
178,resources/videos_generated\model(tmp)-dataset(walking)-numprim(11)_final(1).mov,resources/videos_natural\training(12).mov,False,False,right,0,177,177,177,2018-10-09 17:23:18.966860,2018-10-09 17:23:22.870083,0:00:03.903223,4,right,1,0.38388225787639385,21,f,2,15,2018_Oct_09_1703,MP_PerceptionTuring2,59.91902739032799,
179,resources/videos_generated\model(dmp)-dataset(walking)-npsi(70)_final(7).mov,resources/videos_natural\training(46).mov,False,True,left,0,178,178,178,2018-10-09 17:23:24.372169,2018-10-09 17:23:28.458403,0:00:04.086234,4,right,0,0.40057241108706876,21,f,2,15,2018_Oct_09_1703,MP_PerceptionTuring2,59.91902739032799,
180,resources/videos_generated\model(vcgpdm)-dataset(walking)-mode(ELBO)-parts(2)-dyn(26)-lvm(21)_final(2).mov,resources/videos_natural\training(34).mov,False,False,right,0,179,179,179,2018-10-09 17:23:29.976490,2018-10-09 17:23:33.896714,0:00:03.920224,4,left,0,0.36727191574573226,21,f,2,15,2018_Oct_09_1703,MP_PerceptionTuring2,59.91902739032799,
181,resources/videos_generated\model(vcgpdm)-dataset(walking)-mode(ELBO)-parts(2)-dyn(26)-lvm(23)_final(0).mov,resources/videos_natural\training(37).mov,True,False,right,0,180,180,180,2018-10-09 17:24:13.180961,2018-10-09 17:24:17.134187,0:00:03.953226,5,right,1,0.30044082821586926,21,f,2,15,2018_Oct_09_1703,MP_PerceptionTuring2,59.91902739032799,
182,resources/videos_generated\model(vcgpdm)-dataset(walking)-mode(ELBO)-parts(2)-dyn(24)-lvm(21)_final(8).mov,resources/videos_natural\training(17).mov,False,False,right,0,181,181,181,2018-10-09 17:24:18.552268,2018-10-09 17:24:22.455491,0:00:03.903223,5,right,1,0.3171475459903377,21,f,2,15,2018_Oct_09_1703,MP_PerceptionTuring2,59.91902739032799,
183,resources/videos_generated\model(vcgpdm)-dataset(walking)-mode(ELBO)-parts(2)-dyn(28)-lvm(23)_final(8).mov,resources/videos_natural\training(35).mov,False,False,right,0,182,182,182,2018-10-09 17:24:23.889573,2018-10-09 17:24:27.776796,0:00:03.887223,5,right,1,0.35061880692364866,21,f,2,15,2018_Oct_09_1703,MP_PerceptionTuring2,59.91902739032799,
184,resources/videos_generated\model(vcgpdm)-dataset(walking)-mode(ELBO)-parts(1)-dyn(25)-lvm(25)_final(0).mov,resources/videos_natural\training(7).mov,True,True,left,0,183,183,183,2018-10-09 17:24:29.244880,2018-10-09 17:24:33.165104,0:00:03.920224,5,left,1,0.40065975151355815,21,f,2,15,2018_Oct_09_1703,MP_PerceptionTuring2,59.91902739032799,
185,resources/videos_generated\model(vcgpdm)-dataset(walking)-mode(ELBO)-parts(1)-dyn(22)-lvm(22)_final(1).mov,resources/videos_natural\training(40).mov,False,True,left,0,184,184,184,2018-10-09 17:24:34.682191,2018-10-09 17:24:38.569413,0:00:03.887222,5,left,1,0.5173914366023382,21,f,2,15,2018_Oct_09_1703,MP_PerceptionTuring2,59.91902739032799,
186,resources/videos_generated\model(vcgpdm)-dataset(walking)-mode(ELBO)-parts(2)-dyn(28)-lvm(21)_final(4).mov,resources/videos_natural\training(44).mov,True,False,right,0,185,185,185,2018-10-09 17:24:40.203507,2018-10-09 17:24:44.123731,0:00:03.920224,5,right,1,0.5507145199844672,21,f,2,15,2018_Oct_09_1703,MP_PerceptionTuring2,59.91902739032799,
187,resources/videos_generated\model(vcgpdm)-dataset(walking)-mode(ELBO)-parts(1)-dyn(25)-lvm(24)_final(2).mov,resources/videos_natural\training(2).mov,True,True,left,0,186,186,186,2018-10-09 17:24:45.791826,2018-10-09 17:24:49.712050,0:00:03.920224,5,left,1,0.5672805895537749,21,f,2,15,2018_Oct_09_1703,MP_PerceptionTuring2,59.91902739032799,
188,resources/videos_generated\model(vcgpdm)-dataset(walking)-mode(ELBO)-parts(1)-dyn(27)-lvm(28)_final(8).mov,resources/videos_natural\training(3).mov,True,True,left,0,187,187,187,2018-10-09 17:24:51.397147,2018-10-09 17:24:55.317371,0:00:03.920224,5,left,1,0.36721348801211207,21,f,2,15,2018_Oct_09_1703,MP_PerceptionTuring2,59.91902739032799,
189,resources/videos_generated\model(vcgpdm)-dataset(walking)-mode(ELBO)-parts(2)-dyn(28)-lvm(17)_final(6).mov,resources/videos_natural\training(32).mov,False,True,left,0,188,188,188,2018-10-09 17:24:56.801456,2018-10-09 17:25:00.788684,0:00:03.987228,5,left,1,0.4673513955344788,21,f,2,15,2018_Oct_09_1703,MP_PerceptionTuring2,59.91902739032799,
190,resources/videos_generated\model(vcgpdm)-dataset(walking)-mode(ELBO)-parts(2)-dyn(23)-lvm(20)_final(2).mov,resources/videos_natural\training(28).mov,True,False,right,0,189,189,189,2018-10-09 17:25:02.372775,2018-10-09 17:25:06.276998,0:00:03.904223,5,right,1,0.5174067964703681,21,f,2,15,2018_Oct_09_1703,MP_PerceptionTuring2,59.91902739032799,
191,resources/videos_generated\model(dmp)-dataset(walking)-npsi(80)_final(9).mov,resources/videos_natural\training(10).mov,True,False,right,0,190,190,190,2018-10-09 17:25:07.911091,2018-10-09 17:25:11.931321,0:00:04.020230,5,left,0,0.31721561128779285,21,f,2,15,2018_Oct_09_1703,MP_PerceptionTuring2,59.91902739032799,
192,resources/videos_generated\model(vcgpdm)-dataset(walking)-mode(ELBO)-parts(1)-dyn(27)-lvm(28)_final(6).mov,resources/videos_natural\training(40).mov,False,True,left,0,191,191,191,2018-10-09 17:25:13.366403,2018-10-09 17:25:17.286628,0:00:03.920225,5,left,1,0.5172465719633692,21,f,2,15,2018_Oct_09_1703,MP_PerceptionTuring2,59.91902739032799,
193,resources/videos_generated\model(vcgpdm)-dataset(walking)-mode(ELBO)-parts(2)-dyn(23)-lvm(22)_final(2).mov,resources/videos_natural\training(19).mov,True,True,left,0,192,192,192,2018-10-09 17:25:18.920721,2018-10-09 17:25:22.823944,0:00:03.903223,5,left,1,0.40050675517932177,21,f,2,15,2018_Oct_09_1703,MP_PerceptionTuring2,59.91902739032799,
194,resources/videos_generated\model(vcgpdm)-dataset(walking)-mode(ELBO)-parts(2)-dyn(24)-lvm(19)_final(6).mov,resources/videos_natural\training(6).mov,False,True,left,0,193,193,193,2018-10-09 17:25:24.342031,2018-10-09 17:25:28.262255,0:00:03.920224,5,right,0,0.467288149018259,21,f,2,15,2018_Oct_09_1703,MP_PerceptionTuring2,59.91902739032799,
195,resources/videos_generated\model(vcgpdm)-dataset(walking)-mode(ELBO)-parts(1)-dyn(22)-lvm(22)_final(3).mov,resources/videos_natural\training(20).mov,False,False,right,0,194,194,194,2018-10-09 17:25:29.847346,2018-10-09 17:25:33.766570,0:00:03.919224,5,right,1,0.5342186239304283,21,f,2,15,2018_Oct_09_1703,MP_PerceptionTuring2,59.91902739032799,
196,resources/videos_generated\model(vcgpdm)-dataset(walking)-mode(ELBO)-parts(2)-dyn(26)-lvm(17)_final(2).mov,resources/videos_natural\training(38).mov,False,True,left,0,195,195,195,2018-10-09 17:25:35.418665,2018-10-09 17:25:39.338889,0:00:03.920224,5,left,1,0.850962596914087,21,f,2,15,2018_Oct_09_1703,MP_PerceptionTuring2,59.91902739032799,
197,resources/videos_generated\model(tmp)-dataset(walking)-numprim(12)_final(9).mov,resources/videos_natural\training(29).mov,False,False,right,0,196,196,196,2018-10-09 17:25:41.307001,2018-10-09 17:25:45.210225,0:00:03.903224,5,right,1,0.6674745154186894,21,f,2,15,2018_Oct_09_1703,MP_PerceptionTuring2,59.91902739032799,
198,resources/videos_generated\model(vcgpdm)-dataset(walking)-mode(ELBO)-parts(1)-dyn(25)-lvm(26)_final(7).mov,resources/videos_natural\training(12).mov,True,False,right,0,197,197,197,2018-10-09 17:25:46.995327,2018-10-09 17:25:50.915551,0:00:03.920224,5,right,1,0.784146869252254,21,f,2,15,2018_Oct_09_1703,MP_PerceptionTuring2,59.91902739032799,
199,resources/videos_generated\model(dmp)-dataset(walking)-npsi(60)_final(5).mov,resources/videos_natural\training(9).mov,False,False,right,0,198,198,198,2018-10-09 17:25:52.816660,2018-10-09 17:25:56.836890,0:00:04.020230,5,left,0,0.3171535694677914,21,f,2,15,2018_Oct_09_1703,MP_PerceptionTuring2,59.91902739032799,
200,resources/videos_generated\model(vcgpdm)-dataset(walking)-mode(ELBO)-parts(2)-dyn(27)-lvm(22)_final(4).mov,resources/videos_natural\training(21).mov,True,False,right,0,199,199,199,2018-10-09 17:25:58.270972,2018-10-09 17:26:02.175195,0:00:03.904223,5,right,1,0.4340243968918003,21,f,2,15,2018_Oct_09_1703,MP_PerceptionTuring2,59.91902739032799,
201,resources/videos_generated\model(vcgpdm)-dataset(walking)-mode(ELBO)-parts(1)-dyn(26)-lvm(23)_final(0).mov,resources/videos_natural\training(27).mov,False,False,right,0,200,200,200,2018-10-09 17:26:03.726284,2018-10-09 17:26:07.829518,0:00:04.103234,5,right,1,0.3839180975687668,21,f,2,15,2018_Oct_09_1703,MP_PerceptionTuring2,59.91902739032799,
202,resources/videos_generated\model(vcgpdm)-dataset(walking)-mode(ELBO)-parts(1)-dyn(28)-lvm(23)_final(0).mov,resources/videos_natural\training(20).mov,False,True,left,0,201,201,201,2018-10-09 17:26:09.330604,2018-10-09 17:26:13.317832,0:00:03.987228,5,right,0,0.31708941942997626,21,f,2,15,2018_Oct_09_1703,MP_PerceptionTuring2,59.91902739032799,
203,resources/videos_generated\model(dmp)-dataset(walking)-npsi(50)_final(3).mov,resources/videos_natural\training(39).mov,False,True,left,0,202,202,202,2018-10-09 17:26:14.752914,2018-10-09 17:26:18.789145,0:00:04.036231,5,left,1,0.4841550912992716,21,f,2,15,2018_Oct_09_1703,MP_PerceptionTuring2,59.91902739032799,
204,resources/videos_generated\model(vcgpdm)-dataset(walking)-mode(ELBO)-parts(1)-dyn(23)-lvm(24)_final(4).mov,resources/videos_natural\training(7).mov,False,True,left,0,203,203,203,2018-10-09 17:26:20.390237,2018-10-09 17:26:24.294460,0:00:03.904223,5,left,1,0.3507052438289975,21,f,2,15,2018_Oct_09_1703,MP_PerceptionTuring2,59.91902739032799,
205,resources/videos_generated\model(tmp)-dataset(walking)-numprim(13)_final(9).mov,resources/videos_natural\training(8).mov,True,True,left,0,204,204,204,2018-10-09 17:26:25.761544,2018-10-09 17:26:29.681768,0:00:03.920224,5,right,0,0.3839208081335528,21,f,2,15,2018_Oct_09_1703,MP_PerceptionTuring2,59.91902739032799,
206,resources/videos_generated\model(vcgpdm)-dataset(walking)-mode(ELBO)-parts(1)-dyn(27)-lvm(26)_final(0).mov,resources/videos_natural\training(35).mov,False,True,left,0,205,205,205,2018-10-09 17:26:31.182854,2018-10-09 17:26:35.103078,0:00:03.920224,5,left,1,0.40052994556890553,21,f,2,15,2018_Oct_09_1703,MP_PerceptionTuring2,59.91902739032799,
207,resources/videos_generated\model(vcgpdm)-dataset(walking)-mode(ELBO)-parts(2)-dyn(23)-lvm(20)_final(6).mov,resources/videos_natural\training(17).mov,False,False,right,0,206,206,206,2018-10-09 17:26:36.621165,2018-10-09 17:26:40.524388,0:00:03.903223,5,right,1,0.6006654135826466,21,f,2,15,2018_Oct_09_1703,MP_PerceptionTuring2,59.91902739032799,
208,resources/videos_generated\model(vcgpdm)-dataset(walking)-mode(ELBO)-parts(1)-dyn(27)-lvm(22)_final(6).mov,resources/videos_natural\training(5).mov,False,False,right,0,207,207,207,2018-10-09 17:26:42.242487,2018-10-09 17:26:46.212714,0:00:03.970227,5,right,1,0.6508632697668872,21,f,2,15,2018_Oct_09_1703,MP_PerceptionTuring2,59.91902739032799,
209,resources/videos_generated\model(dmp)-dataset(walking)-npsi(70)_final(3).mov,resources/videos_natural\training(39).mov,False,False,right,0,208,208,208,2018-10-09 17:26:47.980815,2018-10-09 17:26:51.884038,0:00:03.903223,5,left,0,0.6341312533863857,21,f,2,15,2018_Oct_09_1703,MP_PerceptionTuring2,59.91902739032799,
210,resources/videos_generated\model(dmp)-dataset(walking)-npsi(90)_final(3).mov,resources/videos_natural\training(38).mov,True,True,left,0,209,209,209,2018-10-09 17:26:53.636138,2018-10-09 17:26:57.723372,0:00:04.087234,5,right,0,0.333872936545049,21,f,2,15,2018_Oct_09_1703,MP_PerceptionTuring2,59.91902739032799,
211,resources/videos_generated\model(vcgpdm)-dataset(walking)-mode(ELBO)-parts(1)-dyn(26)-lvm(23)_final(6)_fail.mov,resources/videos_natural\training(40).mov,True,True,left,0,210,210,210,2018-10-09 17:26:59.174455,2018-10-09 17:27:03.077678,0:00:03.903223,5,left,1,0.4172622631226659,21,f,2,15,2018_Oct_09_1703,MP_PerceptionTuring2,59.91902739032799,
212,resources/videos_generated\model(vcgpdm)-dataset(walking)-mode(ELBO)-parts(2)-dyn(28)-lvm(17)_final(0).mov,resources/videos_natural\training(6).mov,True,True,left,0,211,211,211,2018-10-09 17:27:04.611766,2018-10-09 17:27:08.681999,0:00:04.070233,5,left,1,0.333938291278173,21,f,2,15,2018_Oct_09_1703,MP_PerceptionTuring2,59.91902739032799,
213,resources/videos_generated\model(vcgpdm)-dataset(walking)-mode(ELBO)-parts(1)-dyn(24)-lvm(23)_final(7).mov,resources/videos_natural\training(2).mov,False,True,left,0,212,212,212,2018-10-09 17:27:10.133082,2018-10-09 17:27:14.037305,0:00:03.904223,5,left,1,0.016789239418358193,21,f,2,15,2018_Oct_09_1703,MP_PerceptionTuring2,59.91902739032799,
214,resources/videos_generated\model(vcgpdm)-dataset(walking)-mode(ELBO)-parts(1)-dyn(26)-lvm(25)_final(6).mov,resources/videos_natural\training(44).mov,False,False,right,0,213,213,213,2018-10-09 17:27:15.171370,2018-10-09 17:27:19.274605,0:00:04.103235,5,right,1,0.40060523904003276,21,f,2,15,2018_Oct_09_1703,MP_PerceptionTuring2,59.91902739032799,
215,resources/videos_generated\model(vcgpdm)-dataset(walking)-mode(ELBO)-parts(1)-dyn(24)-lvm(27)_final(3).mov,resources/videos_natural\training(22).mov,False,False,right,0,214,214,214,2018-10-09 17:27:20.792692,2018-10-09 17:27:24.695915,0:00:03.903223,5,left,0,0.43393976703009685,21,f,2,15,2018_Oct_09_1703,MP_PerceptionTuring2,59.91902739032799,
216,resources/videos_generated\model(dmp)-dataset(walking)-npsi(100)_final(7).mov,resources/videos_natural\training(35).mov,True,False,right,0,215,215,215,2018-10-09 17:27:26.247004,2018-10-09 17:27:30.167228,0:00:03.920224,5,right,1,0.41732791902995814,21,f,2,15,2018_Oct_09_1703,MP_PerceptionTuring2,59.91902739032799,
217,resources/videos_generated\model(dmp)-dataset(walking)-npsi(70)_final(1).mov,resources/videos_natural\training(38).mov,False,False,right,0,216,216,216,2018-10-09 17:27:31.702316,2018-10-09 17:27:35.772548,0:00:04.070232,5,right,1,0.4339277200747347,21,f,2,15,2018_Oct_09_1703,MP_PerceptionTuring2,59.91902739032799,
218,resources/videos_generated\model(vcgpdm)-dataset(walking)-mode(ELBO)-parts(2)-dyn(22)-lvm(21)_final(4).mov,resources/videos_natural\training(30).mov,False,True,left,0,217,217,217,2018-10-09 17:27:37.323637,2018-10-09 17:27:41.360868,0:00:04.037231,5,left,1,0.6174673023042487,21,f,2,15,2018_Oct_09_1703,MP_PerceptionTuring2,59.91902739032799,
219,resources/videos_generated\model(vcgpdm)-dataset(walking)-mode(ELBO)-parts(1)-dyn(22)-lvm(22)_final(9).mov,resources/videos_natural\training(15).mov,True,True,left,0,218,218,218,2018-10-09 17:27:43.094967,2018-10-09 17:27:47.199202,0:00:04.104235,5,left,1,0.38387593322477187,21,f,2,15,2018_Oct_09_1703,MP_PerceptionTuring2,59.91902739032799,
220,resources/videos_generated\model(tmp)-dataset(walking)-numprim(12)_final(3).mov,resources/videos_natural\training(20).mov,True,True,left,0,219,219,219,2018-10-09 17:27:48.700288,2018-10-09 17:27:52.687516,0:00:03.987228,5,left,1,0.3003321044434415,21,f,2,15,2018_Oct_09_1703,MP_PerceptionTuring2,59.91902739032799,
221,resources/videos_generated\model(vcgpdm)-dataset(walking)-mode(ELBO)-parts(1)-dyn(25)-lvm(28)_final(9).mov,resources/videos_natural\training(44).mov,False,False,right,0,220,220,220,2018-10-09 17:27:54.104597,2018-10-09 17:27:58.024821,0:00:03.920224,5,left,0,0.26720719347804334,21,f,2,15,2018_Oct_09_1703,MP_PerceptionTuring2,59.91902739032799,
222,resources/videos_generated\model(vcgpdm)-dataset(walking)-mode(ELBO)-parts(2)-dyn(23)-lvm(20)_final(0).mov,resources/videos_natural\training(48).mov,False,False,right,0,221,221,221,2018-10-09 17:27:59.409900,2018-10-09 17:28:03.513135,0:00:04.103235,5,right,1,0.3505209254108195,21,f,2,15,2018_Oct_09_1703,MP_PerceptionTuring2,59.91902739032799,
223,resources/videos_generated\model(vcgpdm)-dataset(walking)-mode(ELBO)-parts(1)-dyn(22)-lvm(23)_final(5).mov,resources/videos_natural\training(27).mov,True,True,left,0,222,222,222,2018-10-09 17:28:04.981219,2018-10-09 17:28:09.051452,0:00:04.070233,5,left,1,0.4005326561336915,21,f,2,15,2018_Oct_09_1703,MP_PerceptionTuring2,59.91902739032799,
224,resources/videos_generated\model(vcgpdm)-dataset(walking)-mode(ELBO)-parts(2)-dyn(26)-lvm(21)_final(4).mov,resources/videos_natural\training(31).mov,True,False,right,0,223,223,223,2018-10-09 17:28:10.569539,2018-10-09 17:28:14.639772,0:00:04.070233,5,left,0,0.40064619868871887,21,f,2,15,2018_Oct_09_1703,MP_PerceptionTuring2,59.91902739032799,
225,resources/videos_generated\model(vcgpdm)-dataset(walking)-mode(ELBO)-parts(1)-dyn(24)-lvm(25)_final(9).mov,resources/videos_natural\training(27).mov,False,True,left,0,224,224,224,2018-10-09 17:28:16.156858,2018-10-09 17:28:20.061082,0:00:03.904224,5,left,1,0.23369858698242751,21,f,2,15,2018_Oct_09_1703,MP_PerceptionTuring2,59.91902739032799,
226,resources/videos_generated\model(vcgpdm)-dataset(walking)-mode(ELBO)-parts(1)-dyn(23)-lvm(28)_final(1).mov,resources/videos_natural\training(21).mov,True,False,right,0,225,225,225,2018-10-09 17:28:58.427276,2018-10-09 17:29:02.413504,0:00:03.986228,6,right,1,0.4672761020628968,21,f,2,15,2018_Oct_09_1703,MP_PerceptionTuring2,59.91902739032799,
227,resources/videos_generated\model(vcgpdm)-dataset(walking)-mode(ELBO)-parts(2)-dyn(28)-lvm(19)_final(4).mov,resources/videos_natural\training(20).mov,True,True,left,0,226,226,226,2018-10-09 17:29:03.998595,2018-10-09 17:29:07.918819,0:00:03.920224,6,left,1,0.3171102004284876,21,f,2,15,2018_Oct_09_1703,MP_PerceptionTuring2,59.91902739032799,
228,resources/videos_generated\model(vcgpdm)-dataset(walking)-mode(ELBO)-parts(1)-dyn(25)-lvm(28)_final(5).mov,resources/videos_natural\training(5).mov,False,False,right,0,227,227,227,2018-10-09 17:29:09.352901,2018-10-09 17:29:13.373131,0:00:04.020230,6,left,0,0.2671740643504563,21,f,2,15,2018_Oct_09_1703,MP_PerceptionTuring2,59.91902739032799,
229,resources/videos_generated\model(vcgpdm)-dataset(walking)-mode(ELBO)-parts(1)-dyn(24)-lvm(25)_final(3).mov,resources/videos_natural\training(23).mov,False,False,right,0,228,228,228,2018-10-09 17:29:14.758210,2018-10-09 17:29:18.828443,0:00:04.070233,6,right,1,0.367226137315356,21,f,2,15,2018_Oct_09_1703,MP_PerceptionTuring2,59.91902739032799,
230,resources/videos_generated\model(vcgpdm)-dataset(walking)-mode(ELBO)-parts(1)-dyn(24)-lvm(25)_final(7).mov,resources/videos_natural\training(36).mov,True,True,left,0,229,229,229,2018-10-09 17:29:20.312528,2018-10-09 17:29:24.265754,0:00:03.953226,6,left,1,0.31717465164001624,21,f,2,15,2018_Oct_09_1703,MP_PerceptionTuring2,59.91902739032799,
231,resources/videos_generated\model(vcgpdm)-dataset(walking)-mode(ELBO)-parts(2)-dyn(23)-lvm(20)_final(8).mov,resources/videos_natural\training(15).mov,True,False,right,0,230,230,230,2018-10-09 17:29:25.700836,2018-10-09 17:29:29.571057,0:00:03.870221,6,right,1,0.38393797504568283,21,f,2,15,2018_Oct_09_1703,MP_PerceptionTuring2,59.91902739032799,
232,resources/videos_generated\model(vcgpdm)-dataset(walking)-mode(ELBO)-parts(1)-dyn(25)-lvm(24)_final(6).mov,resources/videos_natural\training(44).mov,True,False,right,0,231,231,231,2018-10-09 17:29:31.072143,2018-10-09 17:29:34.975366,0:00:03.903223,6,right,1,0.2673418182048408,21,f,2,15,2018_Oct_09_1703,MP_PerceptionTuring2,59.91902739032799,
233,resources/videos_generated\model(vcgpdm)-dataset(walking)-mode(ELBO)-parts(2)-dyn(24)-lvm(23)_final(2).mov,resources/videos_natural\training(11).mov,False,True,left,0,232,232,232,2018-10-09 17:29:36.360446,2018-10-09 17:29:40.263669,0:00:03.903223,6,left,1,0.33388257410933875,21,f,2,15,2018_Oct_09_1703,MP_PerceptionTuring2,59.91902739032799,
234,resources/videos_generated\model(vcgpdm)-dataset(walking)-mode(ELBO)-parts(1)-dyn(22)-lvm(23)_final(1).mov,resources/videos_natural\training(35).mov,True,True,left,0,233,233,233,2018-10-09 17:29:41.714752,2018-10-09 17:29:45.667978,0:00:03.953226,6,left,1,0.41721768938805326,21,f,2,15,2018_Oct_09_1703,MP_PerceptionTuring2,59.91902739032799,
235,resources/videos_generated\model(vcgpdm)-dataset(walking)-mode(ELBO)-parts(2)-dyn(24)-lvm(19)_final(0).mov,resources/videos_natural\training(45).mov,False,False,right,0,234,234,234,2018-10-09 17:29:47.203066,2018-10-09 17:29:51.139291,0:00:03.936225,6,right,1,0.2838211496950862,21,f,2,15,2018_Oct_09_1703,MP_PerceptionTuring2,59.91902739032799,
236,resources/videos_generated\model(vcgpdm)-dataset(walking)-mode(ELBO)-parts(2)-dyn(27)-lvm(20)_final(0).mov,resources/videos_natural\training(16).mov,False,False,right,0,235,235,235,2018-10-09 17:29:52.540371,2018-10-09 17:29:56.493597,0:00:03.953226,6,right,1,0.3672177044468299,21,f,2,15,2018_Oct_09_1703,MP_PerceptionTuring2,59.91902739032799,
237,resources/videos_generated\model(vcgpdm)-dataset(walking)-mode(ELBO)-parts(1)-dyn(27)-lvm(26)_final(6).mov,resources/videos_natural\training(32).mov,True,True,left,0,236,236,236,2018-10-09 17:29:57.978682,2018-10-09 17:30:01.915907,0:00:03.937225,6,left,1,0.35059621888240144,21,f,2,15,2018_Oct_09_1703,MP_PerceptionTuring2,59.91902739032799,
238,resources/videos_generated\model(vcgpdm)-dataset(walking)-mode(ELBO)-parts(2)-dyn(24)-lvm(23)_final(4).mov,resources/videos_natural\training(30).mov,True,False,right,0,237,237,237,2018-10-09 17:30:03.382991,2018-10-09 17:30:07.370219,0:00:03.987228,6,left,0,0.41717462152200824,21,f,2,15,2018_Oct_09_1703,MP_PerceptionTuring2,59.91902739032799,
239,resources/videos_generated\model(vcgpdm)-dataset(walking)-mode(ELBO)-parts(2)-dyn(25)-lvm(18)_final(4).mov,resources/videos_natural\training(24).mov,False,False,right,0,238,238,238,2018-10-09 17:30:08.904307,2018-10-09 17:30:12.824531,0:00:03.920224,6,right,1,0.317142124860311,21,f,2,15,2018_Oct_09_1703,MP_PerceptionTuring2,59.91902739032799,
240,resources/videos_generated\model(vcgpdm)-dataset(walking)-mode(ELBO)-parts(1)-dyn(28)-lvm(23)_final(8).mov,resources/videos_natural\training(29).mov,False,False,right,0,239,239,239,2018-10-09 17:30:14.259613,2018-10-09 17:30:18.429852,0:00:04.170239,6,right,1,0.2838422318668563,21,f,2,15,2018_Oct_09_1703,MP_PerceptionTuring2,59.91902739032799,
241,resources/videos_generated\model(vcgpdm)-dataset(walking)-mode(ELBO)-parts(1)-dyn(24)-lvm(23)_final(5).mov,resources/videos_natural\training(8).mov,True,False,right,0,240,240,240,2018-10-09 17:30:19.830932,2018-10-09 17:30:23.751156,0:00:03.920224,6,right,1,0.28377898535109125,21,f,2,15,2018_Oct_09_1703,MP_PerceptionTuring2,59.91902739032799,
242,resources/videos_generated\model(tmp)-dataset(walking)-numprim(13)_final(3).mov,resources/videos_natural\training(30).mov,True,False,right,0,241,241,241,2018-10-09 17:30:25.152236,2018-10-09 17:30:29.022458,0:00:03.870222,6,left,0,0.31738216044641376,21,f,2,15,2018_Oct_09_1703,MP_PerceptionTuring2,59.91902739032799,
243,resources/videos_generated\model(vcgpdm)-dataset(walking)-mode(ELBO)-parts(2)-dyn(25)-lvm(18)_final(2).mov,resources/videos_natural\training(25).mov,False,False,right,0,242,242,242,2018-10-09 17:30:30.456540,2018-10-09 17:30:34.359763,0:00:03.903223,6,right,1,0.31730807167105013,21,f,2,15,2018_Oct_09_1703,MP_PerceptionTuring2,59.91902739032799,
244,resources/videos_generated\model(dmp)-dataset(walking)-npsi(80)_final(7).mov,resources/videos_natural\training(32).mov,True,False,right,0,243,243,243,2018-10-09 17:30:35.794845,2018-10-09 17:30:39.815075,0:00:04.020230,6,left,0,0.2170984847643922,21,f,2,15,2018_Oct_09_1703,MP_PerceptionTuring2,59.91902739032799,
245,resources/videos_generated\model(vcgpdm)-dataset(walking)-mode(ELBO)-parts(2)-dyn(24)-lvm(21)_final(0).mov,resources/videos_natural\training(45).mov,True,False,right,0,244,244,244,2018-10-09 17:30:41.149151,2018-10-09 17:30:45.102378,0:00:03.953227,6,right,1,0.2837865146984768,21,f,2,15,2018_Oct_09_1703,MP_PerceptionTuring2,59.91902739032799,
246,resources/videos_generated\model(vcgpdm)-dataset(walking)-mode(ELBO)-parts(1)-dyn(26)-lvm(25)_final(8).mov,resources/videos_natural\training(15).mov,True,True,left,0,245,245,245,2018-10-09 17:30:46.503458,2018-10-09 17:30:50.457684,0:00:03.954226,6,left,1,0.7676030865504799,21,f,2,15,2018_Oct_09_1703,MP_PerceptionTuring2,59.91902739032799,
247,resources/videos_generated\model(vcgpdm)-dataset(walking)-mode(ELBO)-parts(2)-dyn(27)-lvm(18)_final(4).mov,resources/videos_natural\training(14).mov,False,False,right,0,246,246,246,2018-10-09 17:30:52.342792,2018-10-09 17:30:56.362022,0:00:04.019230,6,right,1,0.3338452285470339,21,f,2,15,2018_Oct_09_1703,MP_PerceptionTuring2,59.91902739032799,
248,resources/videos_generated\model(dmp)-dataset(walking)-npsi(60)_final(7).mov,resources/videos_natural\training(4).mov,False,True,left,0,247,247,247,2018-10-09 17:30:57.814105,2018-10-09 17:31:01.800333,0:00:03.986228,6,right,0,0.3672366784012411,21,f,2,15,2018_Oct_09_1703,MP_PerceptionTuring2,59.91902739032799,
249,resources/videos_generated\model(vcgpdm)-dataset(walking)-mode(ELBO)-parts(1)-dyn(24)-lvm(25)_final(5).mov,resources/videos_natural\training(26).mov,False,False,right,0,248,248,248,2018-10-09 17:31:03.285418,2018-10-09 17:31:07.371651,0:00:04.086233,6,right,1,0.3172135030708887,21,f,2,15,2018_Oct_09_1703,MP_PerceptionTuring2,59.91902739032799,
250,resources/videos_generated\model(tmp)-dataset(walking)-numprim(11)_final(5).mov,resources/videos_natural\training(19).mov,True,True,left,0,249,249,249,2018-10-09 17:31:08.806733,2018-10-09 17:31:12.726958,0:00:03.920225,6,right,0,0.30054352851129806,21,f,2,15,2018_Oct_09_1703,MP_PerceptionTuring2,59.91902739032799,
251,resources/videos_generated\model(vcgpdm)-dataset(walking)-mode(ELBO)-parts(2)-dyn(28)-lvm(23)_final(4)_fail.mov,resources/videos_natural\training(22).mov,False,False,right,0,250,250,250,2018-10-09 17:31:14.144039,2018-10-09 17:31:18.148268,0:00:04.004229,6,right,1,0.30054111912022563,21,f,2,15,2018_Oct_09_1703,MP_PerceptionTuring2,59.91902739032799,
252,resources/videos_generated\model(vcgpdm)-dataset(walking)-mode(ELBO)-parts(2)-dyn(26)-lvm(23)_final(6).mov,resources/videos_natural\training(35).mov,True,True,left,0,251,251,251,2018-10-09 17:31:19.565349,2018-10-09 17:31:23.452571,0:00:03.887222,6,left,1,0.4172619619489524,21,f,2,15,2018_Oct_09_1703,MP_PerceptionTuring2,59.91902739032799,
253,resources/videos_generated\model(vcgpdm)-dataset(walking)-mode(ELBO)-parts(2)-dyn(26)-lvm(19)_final(0).mov,resources/videos_natural\training(37).mov,True,False,right,0,252,252,252,2018-10-09 17:31:24.987659,2018-10-09 17:31:28.890882,0:00:03.903223,6,left,0,0.3506925945257535,21,f,2,15,2018_Oct_09_1703,MP_PerceptionTuring2,59.91902739032799,
254,resources/videos_generated\model(vcgpdm)-dataset(walking)-mode(ELBO)-parts(2)-dyn(25)-lvm(18)_final(6).mov,resources/videos_natural\training(10).mov,True,False,right,0,253,253,253,2018-10-09 17:31:30.358966,2018-10-09 17:31:34.262189,0:00:03.903223,6,right,1,0.28382114969554095,21,f,2,15,2018_Oct_09_1703,MP_PerceptionTuring2,59.91902739032799,
255,resources/videos_generated\model(vcgpdm)-dataset(walking)-mode(ELBO)-parts(1)-dyn(28)-lvm(23)_final(6)_fail.mov,resources/videos_natural\training(6).mov,True,False,right,0,254,254,254,2018-10-09 17:31:35.663269,2018-10-09 17:31:39.583494,0:00:03.920225,6,right,1,0.30052485573014565,21,f,2,15,2018_Oct_09_1703,MP_PerceptionTuring2,59.91902739032799,
256,resources/videos_generated\model(vcgpdm)-dataset(walking)-mode(ELBO)-parts(2)-dyn(23)-lvm(22)_final(6).mov,resources/videos_natural\training(5).mov,False,True,left,0,255,255,255,2018-10-09 17:31:41.000575,2018-10-09 17:31:45.087808,0:00:04.087233,6,left,1,0.317155376510982,21,f,2,15,2018_Oct_09_1703,MP_PerceptionTuring2,59.91902739032799,
257,resources/videos_generated\model(vcgpdm)-dataset(walking)-mode(ELBO)-parts(1)-dyn(23)-lvm(26)_final(0).mov,resources/videos_natural\training(2).mov,True,True,left,0,256,256,256,2018-10-09 17:31:46.522891,2018-10-09 17:31:50.443115,0:00:03.920224,6,right,0,0.3838924977890201,21,f,2,15,2018_Oct_09_1703,MP_PerceptionTuring2,59.91902739032799,
258,resources/videos_generated\model(vcgpdm)-dataset(walking)-mode(ELBO)-parts(1)-dyn(22)-lvm(25)_final(3).mov,resources/videos_natural\training(12).mov,False,True,left,0,257,257,257,2018-10-09 17:31:51.944201,2018-10-09 17:31:55.847424,0:00:03.903223,6,left,1,0.5673899156745392,21,f,2,15,2018_Oct_09_1703,MP_PerceptionTuring2,59.91902739032799,
259,resources/videos_generated\model(vcgpdm)-dataset(walking)-mode(ELBO)-parts(2)-dyn(22)-lvm(19)_final(6).mov,resources/videos_natural\training(11).mov,True,True,left,0,258,258,258,2018-10-09 17:31:57.531520,2018-10-09 17:32:01.618754,0:00:04.087234,6,left,1,0.4171776332614172,21,f,2,15,2018_Oct_09_1703,MP_PerceptionTuring2,59.91902739032799,
260,resources/videos_generated\model(vcgpdm)-dataset(walking)-mode(ELBO)-parts(2)-dyn(24)-lvm(17)_final(4).mov,resources/videos_natural\training(47).mov,True,True,left,0,259,259,259,2018-10-09 17:32:03.153842,2018-10-09 17:32:07.207074,0:00:04.053232,6,right,0,0.4172158823444079,21,f,2,15,2018_Oct_09_1703,MP_PerceptionTuring2,59.91902739032799,
261,resources/videos_generated\model(vcgpdm)-dataset(walking)-mode(ELBO)-parts(1)-dyn(26)-lvm(27)_final(0).mov,resources/videos_natural\training(18).mov,True,False,right,0,260,260,260,2018-10-09 17:32:08.741161,2018-10-09 17:32:12.845396,0:00:04.104235,6,left,0,0.3005076888189251,21,f,2,15,2018_Oct_09_1703,MP_PerceptionTuring2,59.91902739032799,
262,resources/videos_generated\model(vcgpdm)-dataset(walking)-mode(ELBO)-parts(1)-dyn(27)-lvm(22)_final(8).mov,resources/videos_natural\training(24).mov,True,True,left,0,261,261,261,2018-10-09 17:32:14.263477,2018-10-09 17:32:18.149700,0:00:03.886223,6,left,1,0.8176000597527491,21,f,2,15,2018_Oct_09_1703,MP_PerceptionTuring2,59.91902739032799,
263,resources/videos_generated\model(vcgpdm)-dataset(walking)-mode(ELBO)-parts(2)-dyn(26)-lvm(19)_final(8).mov,resources/videos_natural\training(0).mov,False,True,left,0,262,262,262,2018-10-09 17:32:20.084810,2018-10-09 17:32:24.022035,0:00:03.937225,6,left,1,0.46734085444859375,21,f,2,15,2018_Oct_09_1703,MP_PerceptionTuring2,59.91902739032799,
264,resources/videos_generated\model(vcgpdm)-dataset(walking)-mode(ELBO)-parts(2)-dyn(24)-lvm(23)_final(0).mov,resources/videos_natural\training(7).mov,False,True,left,0,263,263,263,2018-10-09 17:32:25.606126,2018-10-09 17:32:29.709361,0:00:04.103235,6,left,1,0.25053721891799796,21,f,2,15,2018_Oct_09_1703,MP_PerceptionTuring2,59.91902739032799,
265,resources/videos_generated\model(vcgpdm)-dataset(walking)-mode(ELBO)-parts(2)-dyn(22)-lvm(17)_final(4).mov,resources/videos_natural\training(42).mov,True,False,right,0,264,264,264,2018-10-09 17:32:31.077439,2018-10-09 17:32:35.030665,0:00:03.953226,6,left,0,0.26716834204671613,21,f,2,15,2018_Oct_09_1703,MP_PerceptionTuring2,59.91902739032799,
266,resources/videos_generated\model(vcgpdm)-dataset(walking)-mode(ELBO)-parts(2)-dyn(25)-lvm(18)_final(0).mov,resources/videos_natural\training(30).mov,False,False,right,0,265,265,265,2018-10-09 17:32:36.415744,2018-10-09 17:32:40.335969,0:00:03.920225,6,right,1,0.3506775358314371,21,f,2,15,2018_Oct_09_1703,MP_PerceptionTuring2,59.91902739032799,
267,resources/videos_generated\model(vcgpdm)-dataset(walking)-mode(ELBO)-parts(2)-dyn(27)-lvm(18)_final(8).mov,resources/videos_natural\training(41).mov,False,False,right,0,266,266,266,2018-10-09 17:32:41.804052,2018-10-09 17:32:45.723277,0:00:03.919225,6,right,1,0.5173805943422849,21,f,2,15,2018_Oct_09_1703,MP_PerceptionTuring2,59.91902739032799,
268,resources/videos_generated\model(vcgpdm)-dataset(walking)-mode(ELBO)-parts(2)-dyn(24)-lvm(19)_final(8).mov,resources/videos_natural\training(42).mov,False,False,right,0,267,267,267,2018-10-09 17:32:47.358370,2018-10-09 17:32:51.261593,0:00:03.903223,6,right,1,0.40070522877022086,21,f,2,15,2018_Oct_09_1703,MP_PerceptionTuring2,59.91902739032799,
269,resources/videos_generated\model(vcgpdm)-dataset(walking)-mode(ELBO)-parts(2)-dyn(22)-lvm(19)_final(2).mov,resources/videos_natural\training(45).mov,True,True,left,0,268,268,268,2018-10-09 17:32:52.779680,2018-10-09 17:32:56.716905,0:00:03.937225,6,left,1,0.3506052540988094,21,f,2,15,2018_Oct_09_1703,MP_PerceptionTuring2,59.91902739032799,
270,resources/videos_generated\model(vcgpdm)-dataset(walking)-mode(ELBO)-parts(2)-dyn(25)-lvm(22)_final(6).mov,resources/videos_natural\training(14).mov,True,True,left,0,269,269,269,2018-10-09 17:32:58.183989,2018-10-09 17:33:02.288224,0:00:04.104235,6,left,1,0.334014187097182,21,f,2,15,2018_Oct_09_1703,MP_PerceptionTuring2,59.91902739032799,
271,resources/videos_generated\model(vcgpdm)-dataset(walking)-mode(ELBO)-parts(2)-dyn(27)-lvm(22)_final(2).mov,resources/videos_natural\training(3).mov,False,True,left,0,270,270,270,2018-10-09 17:33:36.434177,2018-10-09 17:33:40.454407,0:00:04.020230,7,left,1,0.2838136203481554,21,f,2,15,2018_Oct_09_1703,MP_PerceptionTuring2,59.91902739032799,
272,resources/videos_generated\model(vcgpdm)-dataset(walking)-mode(ELBO)-parts(1)-dyn(26)-lvm(27)_final(8).mov,resources/videos_natural\training(11).mov,False,True,left,0,271,271,271,2018-10-09 17:33:41.855487,2018-10-09 17:33:45.775711,0:00:03.920224,7,left,1,0.30050889351423393,21,f,2,15,2018_Oct_09_1703,MP_PerceptionTuring2,59.91902739032799,
273,resources/videos_generated\model(vcgpdm)-dataset(walking)-mode(ELBO)-parts(1)-dyn(23)-lvm(26)_final(6)_hip-corrected.mov,resources/videos_natural\training(31).mov,False,True,left,0,272,272,272,2018-10-09 17:33:47.193793,2018-10-09 17:33:51.230023,0:00:04.036230,7,left,1,0.350495325630618,21,f,2,15,2018_Oct_09_1703,MP_PerceptionTuring2,59.91902739032799,
274,resources/videos_generated\model(vcgpdm)-dataset(walking)-mode(ELBO)-parts(1)-dyn(23)-lvm(28)_final(5).mov,resources/videos_natural\training(12).mov,True,False,right,0,273,273,273,2018-10-09 17:33:52.698107,2018-10-09 17:33:56.601331,0:00:03.903224,7,right,1,0.6174859750849464,21,f,2,15,2018_Oct_09_1703,MP_PerceptionTuring2,59.91902739032799,
275,resources/videos_generated\model(vcgpdm)-dataset(walking)-mode(ELBO)-parts(1)-dyn(27)-lvm(24)_final(4).mov,resources/videos_natural\training(8).mov,False,False,right,0,274,274,274,2018-10-09 17:33:58.336430,2018-10-09 17:34:02.289656,0:00:03.953226,7,right,1,0.4005706040434234,21,f,2,15,2018_Oct_09_1703,MP_PerceptionTuring2,59.91902739032799,
276,resources/videos_generated\model(vcgpdm)-dataset(walking)-mode(ELBO)-parts(2)-dyn(22)-lvm(17)_final(8).mov,resources/videos_natural\training(0).mov,True,True,left,0,275,275,275,2018-10-09 17:34:03.807743,2018-10-09 17:34:07.877976,0:00:04.070233,7,right,0,0.28377958769897305,21,f,2,15,2018_Oct_09_1703,MP_PerceptionTuring2,59.91902739032799,
277,resources/videos_generated\model(vcgpdm)-dataset(walking)-mode(ELBO)-parts(2)-dyn(22)-lvm(23)_final(4).mov,resources/videos_natural\training(0).mov,True,False,right,0,276,276,276,2018-10-09 17:34:09.279056,2018-10-09 17:34:13.216281,0:00:03.937225,7,right,1,0.28377808182949593,21,f,2,15,2018_Oct_09_1703,MP_PerceptionTuring2,59.91902739032799,
278,resources/videos_generated\model(vcgpdm)-dataset(walking)-mode(ELBO)-parts(2)-dyn(25)-lvm(22)_final(2).mov,resources/videos_natural\training(34).mov,True,False,right,0,277,277,277,2018-10-09 17:34:14.617361,2018-10-09 17:34:18.703595,0:00:04.086234,7,left,0,0.3173442125371366,21,f,2,15,2018_Oct_09_1703,MP_PerceptionTuring2,59.91902739032799,
279,resources/videos_generated\model(vcgpdm)-dataset(walking)-mode(ELBO)-parts(2)-dyn(25)-lvm(22)_final(4).mov,resources/videos_natural\training(43).mov,True,False,right,0,278,278,278,2018-10-09 17:34:20.138677,2018-10-09 17:34:24.158907,0:00:04.020230,7,right,1,0.40055915943548825,21,f,2,15,2018_Oct_09_1703,MP_PerceptionTuring2,59.91902739032799,
280,resources/videos_generated\model(vcgpdm)-dataset(walking)-mode(ELBO)-parts(1)-dyn(24)-lvm(23)_final(3)_fail.mov,resources/videos_natural\training(40).mov,True,True,left,0,279,279,279,2018-10-09 17:34:25.676994,2018-10-09 17:34:29.663222,0:00:03.986228,7,left,1,0.6173579761839392,21,f,2,15,2018_Oct_09_1703,MP_PerceptionTuring2,59.91902739032799,
281,resources/videos_generated\model(tmp)-dataset(walking)-numprim(15)_final(1).mov,resources/videos_natural\training(41).mov,False,False,right,0,280,280,280,2018-10-09 17:34:31.398321,2018-10-09 17:34:35.501556,0:00:04.103235,7,right,1,0.35061187992459963,21,f,2,15,2018_Oct_09_1703,MP_PerceptionTuring2,59.91902739032799,
282,resources/videos_generated\model(vcgpdm)-dataset(walking)-mode(ELBO)-parts(2)-dyn(23)-lvm(22)_final(8).mov,resources/videos_natural\training(43).mov,True,False,right,0,281,281,281,2018-10-09 17:34:36.969640,2018-10-09 17:34:40.956868,0:00:03.987228,7,right,1,0.3337834879012007,21,f,2,15,2018_Oct_09_1703,MP_PerceptionTuring2,59.91902739032799,
283,resources/videos_generated\model(vcgpdm)-dataset(walking)-mode(ELBO)-parts(1)-dyn(27)-lvm(28)_final(2).mov,resources/videos_natural\training(29).mov,False,True,left,0,282,282,282,2018-10-09 17:34:42.407951,2018-10-09 17:34:46.328175,0:00:03.920224,7,left,1,0.28381060860920115,21,f,2,15,2018_Oct_09_1703,MP_PerceptionTuring2,59.91902739032799,
284,resources/videos_generated\model(vcgpdm)-dataset(walking)-mode(ELBO)-parts(1)-dyn(26)-lvm(25)_final(4).mov,resources/videos_natural\training(18).mov,False,False,right,0,283,283,283,2018-10-09 17:34:47.729255,2018-10-09 17:34:51.649479,0:00:03.920224,7,right,1,0.4840746778718312,21,f,2,15,2018_Oct_09_1703,MP_PerceptionTuring2,59.91902739032799,
285,resources/videos_generated\model(vcgpdm)-dataset(walking)-mode(ELBO)-parts(2)-dyn(24)-lvm(19)_final(2).mov,resources/videos_natural\training(22).mov,True,False,right,0,284,284,284,2018-10-09 17:34:53.250571,2018-10-09 17:34:57.220798,0:00:03.970227,7,left,0,0.3838093737958843,21,f,2,15,2018_Oct_09_1703,MP_PerceptionTuring2,59.91902739032799,
286,resources/videos_generated\model(vcgpdm)-dataset(walking)-mode(ELBO)-parts(1)-dyn(22)-lvm(27)_final(9)_hip-corrected.mov,resources/videos_natural\training(42).mov,False,True,left,0,285,285,285,2018-10-09 17:34:58.721884,2018-10-09 17:35:02.625107,0:00:03.903223,7,left,1,0.28383199195513953,21,f,2,15,2018_Oct_09_1703,MP_PerceptionTuring2,59.91902739032799,
287,resources/videos_generated\model(vcgpdm)-dataset(walking)-mode(ELBO)-parts(1)-dyn(23)-lvm(24)_final(6).mov,resources/videos_natural\training(45).mov,True,False,right,0,286,286,286,2018-10-09 17:35:04.026187,2018-10-09 17:35:07.913409,0:00:03.887222,7,right,1,0.3338608895892321,21,f,2,15,2018_Oct_09_1703,MP_PerceptionTuring2,59.91902739032799,
288,resources/videos_generated\model(vcgpdm)-dataset(walking)-mode(ELBO)-parts(1)-dyn(28)-lvm(25)_final(8).mov,resources/videos_natural\training(14).mov,False,True,left,0,287,287,287,2018-10-09 17:35:09.364492,2018-10-09 17:35:13.301718,0:00:03.937226,7,right,0,0.2838039827834109,21,f,2,15,2018_Oct_09_1703,MP_PerceptionTuring2,59.91902739032799,
289,resources/videos_generated\model(vcgpdm)-dataset(walking)-mode(ELBO)-parts(2)-dyn(26)-lvm(17)_final(4).mov,resources/videos_natural\training(43).mov,True,True,left,0,288,288,288,2018-10-09 17:35:14.702798,2018-10-09 17:35:18.606021,0:00:03.903223,7,left,1,0.35062091514100757,21,f,2,15,2018_Oct_09_1703,MP_PerceptionTuring2,59.91902739032799,
290,resources/videos_generated\model(vcgpdm)-dataset(walking)-mode(ELBO)-parts(1)-dyn(27)-lvm(22)_final(4).mov,resources/videos_natural\training(3).mov,True,True,left,0,289,289,289,2018-10-09 17:35:20.074105,2018-10-09 17:35:23.977328,0:00:03.903223,7,left,1,0.3172884953683024,21,f,2,15,2018_Oct_09_1703,MP_PerceptionTuring2,59.91902739032799,
291,resources/videos_generated\model(vcgpdm)-dataset(walking)-mode(ELBO)-parts(1)-dyn(28)-lvm(23)_final(4)_fail.mov,resources/videos_natural\training(1).mov,True,True,left,0,290,290,290,2018-10-09 17:35:25.411410,2018-10-09 17:35:29.314634,0:00:03.903224,7,left,1,0.33376541746747534,21,f,2,15,2018_Oct_09_1703,MP_PerceptionTuring2,59.91902739032799,
