n_trial,mov_file_generated,mov_file_natural,mirrored,switch_stim_pos,correct_answer,trials.thisRepN,trials.thisTrialN,trials.thisN,trials.thisIndex,stimulus_onset,stimulus_off,stimulus_length,block,response.keys,response.corr,response.rt,age,gender,condition,participant,date,expName,frameRate,
1,resources/videos_generated\model(vcgpdm)-dataset(walking)-mode(ELBO)-parts(1)-dyn(26)-lvm(25)_final(9).mov,resources/videos_natural\training(43).mov,False,True,left,0,0,0,0,2018-10-12 16:02:34.226648,2018-10-12 16:02:38.696904,0:00:04.470256,1,left,1,0.534080385117079,21,f,1,15,2018_Oct_12_1602,MP_PerceptionTuring2,59.92475883663248,
2,resources/videos_generated\model(vcgpdm)-dataset(walking)-mode(ELBO)-parts(2)-dyn(24)-lvm(17)_final(3).mov,resources/videos_natural\training(19).mov,True,True,left,0,1,1,1,2018-10-12 16:02:40.347998,2018-10-12 16:02:44.218219,0:00:03.870221,1,left,1,0.43398946072107947,21,f,1,15,2018_Oct_12_1602,MP_PerceptionTuring2,59.92475883663248,
3,resources/videos_generated\model(vcgpdm)-dataset(walking)-mode(ELBO)-parts(1)-dyn(23)-lvm(26)_final(1)_hip-corrected.mov,resources/videos_natural\training(41).mov,True,False,right,0,2,2,2,2018-10-12 16:02:45.769308,2018-10-12 16:02:49.689532,0:00:03.920224,1,right,1,0.40063595877654734,21,f,1,15,2018_Oct_12_1602,MP_PerceptionTuring2,59.92475883663248,
4,resources/videos_generated\model(vcgpdm)-dataset(walking)-mode(ELBO)-parts(1)-dyn(26)-lvm(22)_final(7).mov,resources/videos_natural\training(32).mov,True,True,left,0,3,3,3,2018-10-12 16:02:51.207619,2018-10-12 16:02:55.144844,0:00:03.937225,1,left,1,0.3339476276683513,21,f,1,15,2018_Oct_12_1602,MP_PerceptionTuring2,59.92475883663248,
5,resources/videos_generated\model(vcgpdm)-dataset(walking)-mode(ELBO)-parts(1)-dyn(23)-lvm(24)_final(3).mov,resources/videos_natural\training(33).mov,False,True,left,0,4,4,4,2018-10-12 16:02:56.595927,2018-10-12 16:03:00.699162,0:00:04.103235,1,left,1,0.3337449376434165,21,f,1,15,2018_Oct_12_1602,MP_PerceptionTuring2,59.92475883663248,
6,resources/videos_generated\model(vcgpdm)-dataset(walking)-mode(ELBO)-parts(1)-dyn(27)-lvm(24)_final(1).mov,resources/videos_natural\training(2).mov,False,False,right,0,5,5,5,2018-10-12 16:03:02.150245,2018-10-12 16:03:06.070469,0:00:03.920224,1,right,1,0.3839054482656934,21,f,1,15,2018_Oct_12_1602,MP_PerceptionTuring2,59.92475883663248,
7,resources/videos_generated\model(vcgpdm)-dataset(walking)-mode(ELBO)-parts(1)-dyn(22)-lvm(27)_final(2)_hip-corrected.mov,resources/videos_natural\training(32).mov,True,True,left,0,6,6,6,2018-10-12 16:03:07.571555,2018-10-12 16:03:11.458778,0:00:03.887223,1,left,1,0.4673251934063387,21,f,1,15,2018_Oct_12_1602,MP_PerceptionTuring2,59.92475883663248,
8,resources/videos_generated\model(vcgpdm)-dataset(walking)-mode(ELBO)-parts(2)-dyn(22)-lvm(23)_final(5).mov,resources/videos_natural\training(45).mov,False,True,left,0,7,7,7,2018-10-12 16:03:13.042868,2018-10-12 16:03:16.963092,0:00:03.920224,1,left,1,0.5339692519533514,21,f,1,15,2018_Oct_12_1602,MP_PerceptionTuring2,59.92475883663248,
9,resources/videos_generated\model(vcgpdm)-dataset(walking)-mode(ELBO)-parts(1)-dyn(24)-lvm(27)_final(8).mov,resources/videos_natural\training(44).mov,False,False,right,0,8,8,8,2018-10-12 16:03:18.614187,2018-10-12 16:03:22.651418,0:00:04.037231,1,right,1,0.6174594717831496,21,f,1,15,2018_Oct_12_1602,MP_PerceptionTuring2,59.92475883663248,
10,resources/videos_generated\model(vcgpdm)-dataset(walking)-mode(ELBO)-parts(2)-dyn(24)-lvm(17)_final(7).mov,resources/videos_natural\training(47).mov,False,True,left,0,9,9,9,2018-10-12 16:03:24.386517,2018-10-12 16:03:28.472751,0:00:04.086234,1,left,1,0.40061367190901365,21,f,1,15,2018_Oct_12_1602,MP_PerceptionTuring2,59.92475883663248,
11,resources/videos_generated\model(dmp)-dataset(walking)-npsi(80)_final(8).mov,resources/videos_natural\training(7).mov,False,False,right,0,10,10,10,2018-10-12 16:03:29.990838,2018-10-12 16:03:33.911062,0:00:03.920224,1,right,1,0.31721350307094554,21,f,1,15,2018_Oct_12_1602,MP_PerceptionTuring2,59.92475883663248,
12,resources/videos_generated\model(tmp)-dataset(walking)-numprim(14)_final(2).mov,resources/videos_natural\training(22).mov,False,True,left,0,11,11,11,2018-10-12 16:03:35.346144,2018-10-12 16:03:39.249367,0:00:03.903223,1,right,0,0.3838422017497578,21,f,1,15,2018_Oct_12_1602,MP_PerceptionTuring2,59.92475883663248,
13,resources/videos_generated\model(vcgpdm)-dataset(walking)-mode(ELBO)-parts(2)-dyn(26)-lvm(21)_final(9).mov,resources/videos_natural\training(8).mov,True,False,right,0,12,12,12,2018-10-12 16:03:40.750453,2018-10-12 16:03:44.837687,0:00:04.087234,1,right,1,0.4840427534401215,21,f,1,15,2018_Oct_12_1602,MP_PerceptionTuring2,59.92475883663248,
14,resources/videos_generated\model(vcgpdm)-dataset(walking)-mode(ELBO)-parts(1)-dyn(27)-lvm(28)_final(9).mov,resources/videos_natural\training(40).mov,True,False,right,0,13,13,13,2018-10-12 16:03:46.438778,2018-10-12 16:03:50.359003,0:00:03.920225,1,right,1,0.30048991955942483,21,f,1,15,2018_Oct_12_1602,MP_PerceptionTuring2,59.92475883663248,
15,resources/videos_generated\model(vcgpdm)-dataset(walking)-mode(ELBO)-parts(1)-dyn(25)-lvm(26)_final(0).mov,resources/videos_natural\training(24).mov,False,True,left,0,14,14,14,2018-10-12 16:03:51.777084,2018-10-12 16:03:55.863317,0:00:04.086233,1,right,0,0.3671607825822889,21,f,1,15,2018_Oct_12_1602,MP_PerceptionTuring2,59.92475883663248,
16,resources/videos_generated\model(vcgpdm)-dataset(walking)-mode(ELBO)-parts(1)-dyn(28)-lvm(27)_final(9).mov,resources/videos_natural\training(23).mov,False,True,left,0,15,15,15,2018-10-12 16:03:57.348402,2018-10-12 16:04:01.435636,0:00:04.087234,1,right,0,0.4006916759453816,21,f,1,15,2018_Oct_12_1602,MP_PerceptionTuring2,59.92475883663248,
17,resources/videos_generated\model(vcgpdm)-dataset(walking)-mode(ELBO)-parts(1)-dyn(28)-lvm(23)_final(9).mov,resources/videos_natural\training(4).mov,True,False,right,0,16,16,16,2018-10-12 16:04:02.952723,2018-10-12 16:04:07.039957,0:00:04.087234,1,right,1,0.6677311155691541,21,f,1,15,2018_Oct_12_1602,MP_PerceptionTuring2,59.92475883663248,
18,resources/videos_generated\model(vcgpdm)-dataset(walking)-mode(ELBO)-parts(2)-dyn(22)-lvm(21)_final(5).mov,resources/videos_natural\training(37).mov,True,False,right,0,17,17,17,2018-10-12 16:04:08.825059,2018-10-12 16:04:12.928293,0:00:04.103234,1,left,0,0.3673375716530245,21,f,1,15,2018_Oct_12_1602,MP_PerceptionTuring2,59.92475883663248,
19,resources/videos_generated\model(vcgpdm)-dataset(walking)-mode(ELBO)-parts(2)-dyn(28)-lvm(23)_final(7).mov,resources/videos_natural\training(46).mov,True,False,right,0,18,18,18,2018-10-12 16:04:14.413378,2018-10-12 16:04:18.299601,0:00:03.886223,1,right,1,0.3172348864167702,21,f,1,15,2018_Oct_12_1602,MP_PerceptionTuring2,59.92475883663248,
20,resources/videos_generated\model(dmp)-dataset(walking)-npsi(80)_final(0).mov,resources/videos_natural\training(24).mov,False,True,left,0,19,19,19,2018-10-12 16:04:19.734683,2018-10-12 16:04:23.820916,0:00:04.086233,1,right,0,0.9844214796010533,21,f,1,15,2018_Oct_12_1602,MP_PerceptionTuring2,59.92475883663248,
21,resources/videos_generated\model(vcgpdm)-dataset(walking)-mode(ELBO)-parts(1)-dyn(23)-lvm(28)_final(2).mov,resources/videos_natural\training(44).mov,False,False,right,0,20,20,20,2018-10-12 16:04:25.923037,2018-10-12 16:04:30.026271,0:00:04.103234,1,right,1,0.3339259431485857,21,f,1,15,2018_Oct_12_1602,MP_PerceptionTuring2,59.92475883663248,
22,resources/videos_generated\model(vcgpdm)-dataset(walking)-mode(ELBO)-parts(2)-dyn(26)-lvm(19)_final(3).mov,resources/videos_natural\training(25).mov,False,False,right,0,21,21,21,2018-10-12 16:04:31.477354,2018-10-12 16:04:35.564588,0:00:04.087234,1,right,1,0.36767458523081586,21,f,1,15,2018_Oct_12_1602,MP_PerceptionTuring2,59.92475883663248,
23,resources/videos_generated\model(vcgpdm)-dataset(walking)-mode(ELBO)-parts(2)-dyn(27)-lvm(18)_final(3).mov,resources/videos_natural\training(1).mov,False,False,right,0,22,22,22,2018-10-12 16:04:37.048673,2018-10-12 16:04:40.952896,0:00:03.904223,1,right,1,0.30082633078950494,21,f,1,15,2018_Oct_12_1602,MP_PerceptionTuring2,59.92475883663248,
24,resources/videos_generated\model(vcgpdm)-dataset(walking)-mode(ELBO)-parts(1)-dyn(22)-lvm(23)_final(0).mov,resources/videos_natural\training(25).mov,False,False,right,0,23,23,23,2018-10-12 16:04:42.369977,2018-10-12 16:04:46.357205,0:00:03.987228,1,right,1,0.0837612763266975,21,f,1,15,2018_Oct_12_1602,MP_PerceptionTuring2,59.92475883663248,
25,resources/videos_generated\model(vcgpdm)-dataset(walking)-mode(ELBO)-parts(1)-dyn(27)-lvm(28)_final(3).mov,resources/videos_natural\training(38).mov,True,False,right,0,24,24,24,2018-10-12 16:04:47.558274,2018-10-12 16:04:51.645508,0:00:04.087234,1,right,1,0.31751798986914537,21,f,1,15,2018_Oct_12_1602,MP_PerceptionTuring2,59.92475883663248,
26,resources/videos_generated\model(vcgpdm)-dataset(walking)-mode(ELBO)-parts(1)-dyn(24)-lvm(23)_final(4)_fail.mov,resources/videos_natural\training(40).mov,False,False,right,0,25,25,25,2018-10-12 16:04:53.079590,2018-10-12 16:04:56.999814,0:00:03.920224,1,right,1,0.41727159951341264,21,f,1,15,2018_Oct_12_1602,MP_PerceptionTuring2,59.92475883663248,
27,resources/videos_generated\model(vcgpdm)-dataset(walking)-mode(ELBO)-parts(2)-dyn(24)-lvm(23)_final(5).mov,resources/videos_natural\training(23).mov,True,False,right,0,26,26,26,2018-10-12 16:04:58.534902,2018-10-12 16:05:02.438125,0:00:03.903223,1,left,0,0.48389758762732527,21,f,1,15,2018_Oct_12_1602,MP_PerceptionTuring2,59.92475883663248,
28,resources/videos_generated\model(vcgpdm)-dataset(walking)-mode(ELBO)-parts(1)-dyn(23)-lvm(22)_final(7).mov,resources/videos_natural\training(17).mov,False,False,right,0,27,27,27,2018-10-12 16:05:04.039217,2018-10-12 16:05:08.176453,0:00:04.137236,1,right,1,0.3505998329690101,21,f,1,15,2018_Oct_12_1602,MP_PerceptionTuring2,59.92475883663248,
29,resources/videos_generated\model(vcgpdm)-dataset(walking)-mode(ELBO)-parts(1)-dyn(26)-lvm(22)_final(0).mov,resources/videos_natural\training(42).mov,False,False,right,0,28,28,28,2018-10-12 16:05:09.643537,2018-10-12 16:05:13.763773,0:00:04.120236,1,right,1,0.3172418134161603,21,f,1,15,2018_Oct_12_1602,MP_PerceptionTuring2,59.92475883663248,
30,resources/videos_generated\model(vcgpdm)-dataset(walking)-mode(ELBO)-parts(1)-dyn(25)-lvm(28)_final(2).mov,resources/videos_natural\training(22).mov,True,True,left,0,29,29,29,2018-10-12 16:05:15.198855,2018-10-12 16:05:19.119079,0:00:03.920224,1,left,1,0.4339292259439276,21,f,1,15,2018_Oct_12_1602,MP_PerceptionTuring2,59.92475883663248,
31,resources/videos_generated\model(vcgpdm)-dataset(walking)-mode(ELBO)-parts(2)-dyn(28)-lvm(17)_final(1).mov,resources/videos_natural\training(12).mov,True,False,right,0,30,30,30,2018-10-12 16:05:20.670168,2018-10-12 16:05:24.773403,0:00:04.103235,1,right,1,0.3506076634899955,21,f,1,15,2018_Oct_12_1602,MP_PerceptionTuring2,59.92475883663248,
32,resources/videos_generated\model(vcgpdm)-dataset(walking)-mode(ELBO)-parts(1)-dyn(28)-lvm(25)_final(3).mov,resources/videos_natural\training(30).mov,False,False,right,0,31,31,31,2018-10-12 16:05:26.241487,2018-10-12 16:05:30.345721,0:00:04.104234,1,right,1,0.4673107370597904,21,f,1,15,2018_Oct_12_1602,MP_PerceptionTuring2,59.92475883663248,
33,resources/videos_generated\model(vcgpdm)-dataset(walking)-mode(ELBO)-parts(2)-dyn(25)-lvm(20)_final(5).mov,resources/videos_natural\training(29).mov,False,False,right,0,32,32,32,2018-10-12 16:05:31.929812,2018-10-12 16:05:36.000045,0:00:04.070233,1,right,1,0.317299036454358,21,f,1,15,2018_Oct_12_1602,MP_PerceptionTuring2,59.92475883663248,
34,resources/videos_generated\model(vcgpdm)-dataset(walking)-mode(ELBO)-parts(1)-dyn(28)-lvm(25)_final(7).mov,resources/videos_natural\training(18).mov,True,False,right,0,33,33,33,2018-10-12 16:05:37.435127,2018-10-12 16:05:41.521361,0:00:04.086234,1,right,1,0.4005447030892242,21,f,1,15,2018_Oct_12_1602,MP_PerceptionTuring2,59.92475883663248,
35,resources/videos_generated\model(vcgpdm)-dataset(walking)-mode(ELBO)-parts(1)-dyn(27)-lvm(24)_final(7).mov,resources/videos_natural\training(45).mov,False,False,right,0,34,34,34,2018-10-12 16:05:43.039447,2018-10-12 16:05:47.126681,0:00:04.087234,1,right,1,0.33395666288492976,21,f,1,15,2018_Oct_12_1602,MP_PerceptionTuring2,59.92475883663248,
36,resources/videos_generated\model(vcgpdm)-dataset(walking)-mode(ELBO)-parts(2)-dyn(26)-lvm(19)_final(7).mov,resources/videos_natural\training(16).mov,False,True,left,0,35,35,35,2018-10-12 16:05:48.577764,2018-10-12 16:05:52.664998,0:00:04.087234,1,right,0,0.3339443147556267,21,f,1,15,2018_Oct_12_1602,MP_PerceptionTuring2,59.92475883663248,
37,resources/videos_generated\model(vcgpdm)-dataset(walking)-mode(ELBO)-parts(1)-dyn(28)-lvm(27)_final(7).mov,resources/videos_natural\training(26).mov,True,True,left,0,36,36,36,2018-10-12 16:05:54.116081,2018-10-12 16:05:58.236317,0:00:04.120236,1,left,1,0.40068595364147086,21,f,1,15,2018_Oct_12_1602,MP_PerceptionTuring2,59.92475883663248,
38,resources/videos_generated\model(vcgpdm)-dataset(walking)-mode(ELBO)-parts(1)-dyn(27)-lvm(28)_final(5).mov,resources/videos_natural\training(40).mov,True,True,left,0,37,37,37,2018-10-12 16:05:59.754404,2018-10-12 16:06:03.690629,0:00:03.936225,1,left,1,0.3171098992543193,21,f,1,15,2018_Oct_12_1602,MP_PerceptionTuring2,59.92475883663248,
39,resources/videos_generated\model(dmp)-dataset(walking)-npsi(70)_final(6).mov,resources/videos_natural\training(36).mov,False,True,left,0,38,38,38,2018-10-12 16:06:05.125711,2018-10-12 16:06:09.211944,0:00:04.086233,1,left,1,0.3839301445242995,21,f,1,15,2018_Oct_12_1602,MP_PerceptionTuring2,59.92475883663248,
40,resources/videos_generated\model(dmp)-dataset(walking)-npsi(50)_final(6).mov,resources/videos_natural\training(48).mov,True,False,right,0,39,39,39,2018-10-12 16:06:10.713030,2018-10-12 16:06:14.800264,0:00:04.087234,1,left,0,0.5510039480884643,21,f,1,15,2018_Oct_12_1602,MP_PerceptionTuring2,59.92475883663248,
41,resources/videos_generated\model(dmp)-dataset(walking)-npsi(90)_final(6).mov,resources/videos_natural\training(43).mov,True,True,left,0,40,40,40,2018-10-12 16:06:16.468359,2018-10-12 16:06:20.538592,0:00:04.070233,1,right,0,0.6174170062653275,21,f,1,15,2018_Oct_12_1602,MP_PerceptionTuring2,59.92475883663248,
42,resources/videos_generated\model(vcgpdm)-dataset(walking)-mode(ELBO)-parts(2)-dyn(22)-lvm(21)_final(9).mov,resources/videos_natural\training(20).mov,True,False,right,0,41,41,41,2018-10-12 16:06:22.273692,2018-10-12 16:06:26.193916,0:00:03.920224,1,right,1,0.3838422017497578,21,f,1,15,2018_Oct_12_1602,MP_PerceptionTuring2,59.92475883663248,
43,resources/videos_generated\model(vcgpdm)-dataset(walking)-mode(ELBO)-parts(2)-dyn(22)-lvm(17)_final(3).mov,resources/videos_natural\training(9).mov,True,False,right,0,42,42,42,2018-10-12 16:06:27.695002,2018-10-12 16:06:31.798236,0:00:04.103234,1,right,1,0.41730713803190156,21,f,1,15,2018_Oct_12_1602,MP_PerceptionTuring2,59.92475883663248,
44,resources/videos_generated\model(vcgpdm)-dataset(walking)-mode(ELBO)-parts(1)-dyn(24)-lvm(25)_final(8).mov,resources/videos_natural\training(15).mov,False,False,right,0,43,43,43,2018-10-12 16:06:33.333324,2018-10-12 16:06:37.436559,0:00:04.103235,1,right,1,0.3839614666084117,21,f,1,15,2018_Oct_12_1602,MP_PerceptionTuring2,59.92475883663248,
45,resources/videos_generated\model(vcgpdm)-dataset(walking)-mode(ELBO)-parts(1)-dyn(23)-lvm(27)_final(2).mov,resources/videos_natural\training(22).mov,False,True,left,0,44,44,44,2018-10-12 16:06:38.937645,2018-10-12 16:06:42.857869,0:00:03.920224,1,right,0,0.30056973063915393,21,f,1,15,2018_Oct_12_1602,MP_PerceptionTuring2,59.92475883663248,
46,resources/videos_generated\model(vcgpdm)-dataset(walking)-mode(ELBO)-parts(1)-dyn(26)-lvm(25)_final(1).mov,resources/videos_natural\training(2).mov,False,True,left,0,45,45,45,2018-10-12 16:07:16.053768,2018-10-12 16:07:19.956991,0:00:03.903223,2,left,1,0.7509066086886378,21,f,1,15,2018_Oct_12_1602,MP_PerceptionTuring2,59.92475883663248,
47,resources/videos_generated\model(vcgpdm)-dataset(walking)-mode(ELBO)-parts(1)-dyn(26)-lvm(27)_final(5).mov,resources/videos_natural\training(46).mov,True,True,left,0,46,46,46,2018-10-12 16:07:21.825098,2018-10-12 16:07:25.895330,0:00:04.070232,2,left,1,0.33393377366962795,21,f,1,15,2018_Oct_12_1602,MP_PerceptionTuring2,59.92475883663248,
48,resources/videos_generated\model(vcgpdm)-dataset(walking)-mode(ELBO)-parts(1)-dyn(24)-lvm(23)_final(8).mov,resources/videos_natural\training(12).mov,False,False,right,0,47,47,47,2018-10-12 16:07:27.346413,2018-10-12 16:07:31.349642,0:00:04.003229,2,right,1,0.31731650453980365,21,f,1,15,2018_Oct_12_1602,MP_PerceptionTuring2,59.92475883663248,
49,resources/videos_generated\model(tmp)-dataset(walking)-numprim(15)_final(8).mov,resources/videos_natural\training(3).mov,False,True,left,0,48,48,48,2018-10-12 16:07:32.784725,2018-10-12 16:07:36.887959,0:00:04.103234,2,left,1,0.5007600122999065,21,f,1,15,2018_Oct_12_1602,MP_PerceptionTuring2,59.92475883663248,
50,resources/videos_generated\model(vcgpdm)-dataset(walking)-mode(ELBO)-parts(1)-dyn(22)-lvm(23)_final(2).mov,resources/videos_natural\training(36).mov,False,True,left,0,49,49,49,2018-10-12 16:07:38.506052,2018-10-12 16:07:42.593286,0:00:04.087234,2,left,1,0.33374343177399624,21,f,1,15,2018_Oct_12_1602,MP_PerceptionTuring2,59.92475883663248,
51,resources/videos_generated\model(vcgpdm)-dataset(walking)-mode(ELBO)-parts(2)-dyn(28)-lvm(23)_final(1).mov,resources/videos_natural\training(37).mov,True,True,left,0,50,50,50,2018-10-12 16:07:44.044369,2018-10-12 16:07:48.047598,0:00:04.003229,2,left,1,0.3672490265307715,21,f,1,15,2018_Oct_12_1602,MP_PerceptionTuring2,59.92475883663248,
52,resources/videos_generated\model(vcgpdm)-dataset(walking)-mode(ELBO)-parts(1)-dyn(22)-lvm(25)_final(0).mov,resources/videos_natural\training(12).mov,False,False,right,0,51,51,51,2018-10-12 16:07:49.532682,2018-10-12 16:07:53.468908,0:00:03.936226,2,right,1,0.3506296491835883,21,f,1,15,2018_Oct_12_1602,MP_PerceptionTuring2,59.92475883663248,
53,resources/videos_generated\model(tmp)-dataset(walking)-numprim(14)_final(6).mov,resources/videos_natural\training(20).mov,False,True,left,0,52,52,52,2018-10-12 16:07:54.936992,2018-10-12 16:07:58.990223,0:00:04.053231,2,right,0,0.4172191952574167,21,f,1,15,2018_Oct_12_1602,MP_PerceptionTuring2,59.92475883663248,
54,resources/videos_generated\model(vcgpdm)-dataset(walking)-mode(ELBO)-parts(1)-dyn(26)-lvm(25)_final(3).mov,resources/videos_natural\training(44).mov,False,True,left,0,53,53,53,2018-10-12 16:08:00.525311,2018-10-12 16:08:04.545541,0:00:04.020230,2,left,1,0.3504805681103562,21,f,1,15,2018_Oct_12_1602,MP_PerceptionTuring2,59.92475883663248,
55,resources/videos_generated\model(dmp)-dataset(walking)-npsi(90)_final(8).mov,resources/videos_natural\training(15).mov,False,True,left,0,54,54,54,2018-10-12 16:08:06.013625,2018-10-12 16:08:10.083858,0:00:04.070233,2,left,1,0.3338322780701901,21,f,1,15,2018_Oct_12_1602,MP_PerceptionTuring2,59.92475883663248,
56,resources/videos_generated\model(vcgpdm)-dataset(walking)-mode(ELBO)-parts(2)-dyn(28)-lvm(19)_final(1).mov,resources/videos_natural\training(39).mov,True,True,left,0,55,55,55,2018-10-12 16:08:11.534941,2018-10-12 16:08:15.588173,0:00:04.053232,2,left,1,0.5506639227717187,21,f,1,15,2018_Oct_12_1602,MP_PerceptionTuring2,59.92475883663248,
57,resources/videos_generated\model(vcgpdm)-dataset(walking)-mode(ELBO)-parts(2)-dyn(24)-lvm(23)_final(7).mov,resources/videos_natural\training(1).mov,False,False,right,0,56,56,56,2018-10-12 16:08:17.256268,2018-10-12 16:08:21.176492,0:00:03.920224,2,right,1,0.30050497825379807,21,f,1,15,2018_Oct_12_1602,MP_PerceptionTuring2,59.92475883663248,
58,resources/videos_generated\model(vcgpdm)-dataset(walking)-mode(ELBO)-parts(1)-dyn(23)-lvm(28)_final(6)_hip-corrected.mov,resources/videos_natural\training(11).mov,False,False,right,0,57,57,57,2018-10-12 16:08:22.594573,2018-10-12 16:08:26.530799,0:00:03.936226,2,right,1,0.36720475396953134,21,f,1,15,2018_Oct_12_1602,MP_PerceptionTuring2,59.92475883663248,
59,resources/videos_generated\model(vcgpdm)-dataset(walking)-mode(ELBO)-parts(2)-dyn(26)-lvm(19)_final(1).mov,resources/videos_natural\training(44).mov,True,False,right,0,58,58,58,2018-10-12 16:08:28.015884,2018-10-12 16:08:31.919107,0:00:03.903223,2,right,1,0.3840241107765223,21,f,1,15,2018_Oct_12_1602,MP_PerceptionTuring2,59.92475883663248,
60,resources/videos_generated\model(dmp)-dataset(walking)-npsi(90)_final(4).mov,resources/videos_natural\training(45).mov,False,True,left,0,59,59,59,2018-10-12 16:08:33.420193,2018-10-12 16:08:37.340417,0:00:03.920224,2,left,1,0.500643458006266,21,f,1,15,2018_Oct_12_1602,MP_PerceptionTuring2,59.92475883663248,
61,resources/videos_generated\model(vcgpdm)-dataset(walking)-mode(ELBO)-parts(1)-dyn(26)-lvm(27)_final(1).mov,resources/videos_natural\training(45).mov,False,True,left,0,60,60,60,2018-10-12 16:08:38.958509,2018-10-12 16:08:42.861733,0:00:03.903224,2,right,0,0.3173493324932224,21,f,1,15,2018_Oct_12_1602,MP_PerceptionTuring2,59.92475883663248,
62,resources/videos_generated\model(vcgpdm)-dataset(walking)-mode(ELBO)-parts(1)-dyn(26)-lvm(27)_final(7).mov,resources/videos_natural\training(26).mov,False,False,right,0,61,61,61,2018-10-12 16:08:44.296815,2018-10-12 16:08:48.233040,0:00:03.936225,2,left,0,0.2838148250435779,21,f,1,15,2018_Oct_12_1602,MP_PerceptionTuring2,59.92475883663248,
63,resources/videos_generated\model(dmp)-dataset(walking)-npsi(60)_final(6).mov,resources/videos_natural\training(27).mov,False,False,right,0,62,62,62,2018-10-12 16:08:49.634120,2018-10-12 16:08:53.554344,0:00:03.920224,2,right,1,0.5840788641889958,21,f,1,15,2018_Oct_12_1602,MP_PerceptionTuring2,59.92475883663248,
64,resources/videos_generated\model(vcgpdm)-dataset(walking)-mode(ELBO)-parts(1)-dyn(25)-lvm(23)_final(0).mov,resources/videos_natural\training(3).mov,True,True,left,0,63,63,63,2018-10-12 16:08:55.255442,2018-10-12 16:08:59.159665,0:00:03.904223,2,left,1,0.3006495417188262,21,f,1,15,2018_Oct_12_1602,MP_PerceptionTuring2,59.92475883663248,
65,resources/videos_generated\model(tmp)-dataset(walking)-numprim(13)_final(6).mov,resources/videos_natural\training(6).mov,False,True,left,0,64,64,64,2018-10-12 16:09:00.576746,2018-10-12 16:09:04.480969,0:00:03.904223,2,left,1,0.5340198491661567,21,f,1,15,2018_Oct_12_1602,MP_PerceptionTuring2,59.92475883663248,
66,resources/videos_generated\model(dmp)-dataset(walking)-npsi(90)_final(2).mov,resources/videos_natural\training(13).mov,True,True,left,0,65,65,65,2018-10-12 16:09:06.132064,2018-10-12 16:09:10.052288,0:00:03.920224,2,left,1,0.5007362195630094,21,f,1,15,2018_Oct_12_1602,MP_PerceptionTuring2,59.92475883663248,
67,resources/videos_generated\model(vcgpdm)-dataset(walking)-mode(ELBO)-parts(2)-dyn(24)-lvm(17)_final(1).mov,resources/videos_natural\training(17).mov,False,True,left,0,66,66,66,2018-10-12 16:09:11.670380,2018-10-12 16:09:15.640608,0:00:03.970228,2,left,1,0.5507118094196812,21,f,1,15,2018_Oct_12_1602,MP_PerceptionTuring2,59.92475883663248,
68,resources/videos_generated\model(vcgpdm)-dataset(walking)-mode(ELBO)-parts(1)-dyn(23)-lvm(26)_final(5)_hip-corrected.mov,resources/videos_natural\training(0).mov,False,False,right,0,67,67,67,2018-10-12 16:09:17.308703,2018-10-12 16:09:21.411938,0:00:04.103235,2,right,1,0.3338443250255523,21,f,1,15,2018_Oct_12_1602,MP_PerceptionTuring2,59.92475883663248,
69,resources/videos_generated\model(vcgpdm)-dataset(walking)-mode(ELBO)-parts(1)-dyn(27)-lvm(22)_final(1).mov,resources/videos_natural\training(26).mov,True,False,right,0,68,68,68,2018-10-12 16:09:22.863021,2018-10-12 16:09:26.833248,0:00:03.970227,2,right,1,0.5839776697633852,21,f,1,15,2018_Oct_12_1602,MP_PerceptionTuring2,59.92475883663248,
70,resources/videos_generated\model(vcgpdm)-dataset(walking)-mode(ELBO)-parts(1)-dyn(23)-lvm(28)_final(4)_hip-corrected.mov,resources/videos_natural\training(19).mov,True,False,right,0,69,69,69,2018-10-12 16:09:28.534345,2018-10-12 16:09:32.437568,0:00:03.903223,2,right,1,0.450711237189239,21,f,1,15,2018_Oct_12_1602,MP_PerceptionTuring2,59.92475883663248,
71,resources/videos_generated\model(vcgpdm)-dataset(walking)-mode(ELBO)-parts(2)-dyn(22)-lvm(23)_final(7).mov,resources/videos_natural\training(24).mov,True,True,left,0,70,70,70,2018-10-12 16:09:34.005658,2018-10-12 16:09:37.959884,0:00:03.954226,2,left,1,0.5005889455330816,21,f,1,15,2018_Oct_12_1602,MP_PerceptionTuring2,59.92475883663248,
72,resources/videos_generated\model(vcgpdm)-dataset(walking)-mode(ELBO)-parts(1)-dyn(22)-lvm(22)_final(6).mov,resources/videos_natural\training(30).mov,True,False,right,0,71,71,71,2018-10-12 16:09:39.577977,2018-10-12 16:09:43.497201,0:00:03.919224,2,right,1,0.7008686758377962,21,f,1,15,2018_Oct_12_1602,MP_PerceptionTuring2,59.92475883663248,
73,resources/videos_generated\model(vcgpdm)-dataset(walking)-mode(ELBO)-parts(2)-dyn(25)-lvm(22)_final(3).mov,resources/videos_natural\training(36).mov,True,False,right,0,72,72,72,2018-10-12 16:09:45.316305,2018-10-12 16:09:49.252530,0:00:03.936225,2,right,1,0.38388316139821654,21,f,1,15,2018_Oct_12_1602,MP_PerceptionTuring2,59.92475883663248,
74,resources/videos_generated\model(vcgpdm)-dataset(walking)-mode(ELBO)-parts(2)-dyn(26)-lvm(17)_final(7).mov,resources/videos_natural\training(41).mov,False,True,left,0,73,73,73,2018-10-12 16:09:50.753616,2018-10-12 16:09:54.690841,0:00:03.937225,2,left,1,0.2671526810047453,21,f,1,15,2018_Oct_12_1602,MP_PerceptionTuring2,59.92475883663248,
75,resources/videos_generated\model(vcgpdm)-dataset(walking)-mode(ELBO)-parts(2)-dyn(25)-lvm(20)_final(3).mov,resources/videos_natural\training(28).mov,True,True,left,0,74,74,74,2018-10-12 16:09:56.074920,2018-10-12 16:10:00.012145,0:00:03.937225,2,right,0,0.38405844459953187,21,f,1,15,2018_Oct_12_1602,MP_PerceptionTuring2,59.92475883663248,
76,resources/videos_generated\model(tmp)-dataset(walking)-numprim(11)_final(6).mov,resources/videos_natural\training(37).mov,False,True,left,0,75,75,75,2018-10-12 16:10:01.513231,2018-10-12 16:10:05.533461,0:00:04.020230,2,right,0,0.5340312937737508,21,f,1,15,2018_Oct_12_1602,MP_PerceptionTuring2,59.92475883663248,
77,resources/videos_generated\model(vcgpdm)-dataset(walking)-mode(ELBO)-parts(1)-dyn(24)-lvm(25)_final(4).mov,resources/videos_natural\training(41).mov,False,False,right,0,76,76,76,2018-10-12 16:10:07.184556,2018-10-12 16:10:11.088779,0:00:03.904223,2,right,1,0.4006495116013866,21,f,1,15,2018_Oct_12_1602,MP_PerceptionTuring2,59.92475883663248,
78,resources/videos_generated\model(vcgpdm)-dataset(walking)-mode(ELBO)-parts(1)-dyn(25)-lvm(28)_final(6).mov,resources/videos_natural\training(9).mov,True,True,left,0,77,77,77,2018-10-12 16:10:12.605866,2018-10-12 16:10:16.726101,0:00:04.120235,2,left,1,0.11704671297309233,21,f,1,15,2018_Oct_12_1602,MP_PerceptionTuring2,59.92475883663248,
79,resources/videos_generated\model(vcgpdm)-dataset(walking)-mode(ELBO)-parts(2)-dyn(23)-lvm(22)_final(3).mov,resources/videos_natural\training(40).mov,True,False,right,0,78,78,78,2018-10-12 16:10:17.961172,2018-10-12 16:10:21.864395,0:00:03.903223,2,right,1,0.31720326315871716,21,f,1,15,2018_Oct_12_1602,MP_PerceptionTuring2,59.92475883663248,
80,resources/videos_generated\model(vcgpdm)-dataset(walking)-mode(ELBO)-parts(1)-dyn(28)-lvm(25)_final(5).mov,resources/videos_natural\training(14).mov,False,True,left,0,79,79,79,2018-10-12 16:10:23.298477,2018-10-12 16:10:27.402712,0:00:04.104235,2,left,1,0.33394039949507714,21,f,1,15,2018_Oct_12_1602,MP_PerceptionTuring2,59.92475883663248,
81,resources/videos_generated\model(vcgpdm)-dataset(walking)-mode(ELBO)-parts(2)-dyn(28)-lvm(19)_final(5).mov,resources/videos_natural\training(13).mov,True,False,right,0,80,80,80,2018-10-12 16:10:28.853795,2018-10-12 16:10:32.757018,0:00:03.903223,2,left,0,0.3176691791596795,21,f,1,15,2018_Oct_12_1602,MP_PerceptionTuring2,59.92475883663248,
82,resources/videos_generated\model(vcgpdm)-dataset(walking)-mode(ELBO)-parts(1)-dyn(25)-lvm(22)_final(8).mov,resources/videos_natural\training(21).mov,False,True,left,0,81,81,81,2018-10-12 16:10:34.191100,2018-10-12 16:10:38.295335,0:00:04.104235,2,left,1,0.31718820446451446,21,f,1,15,2018_Oct_12_1602,MP_PerceptionTuring2,59.92475883663248,
83,resources/videos_generated\model(vcgpdm)-dataset(walking)-mode(ELBO)-parts(1)-dyn(24)-lvm(25)_final(6).mov,resources/videos_natural\training(5).mov,True,True,left,0,82,82,82,2018-10-12 16:10:39.729417,2018-10-12 16:10:43.666642,0:00:03.937225,2,left,1,0.36731076717717315,21,f,1,15,2018_Oct_12_1602,MP_PerceptionTuring2,59.92475883663248,
84,resources/videos_generated\model(vcgpdm)-dataset(walking)-mode(ELBO)-parts(1)-dyn(23)-lvm(26)_final(7).mov,resources/videos_natural\training(22).mov,False,False,right,0,83,83,83,2018-10-12 16:10:45.150727,2018-10-12 16:10:49.104953,0:00:03.954226,2,right,1,0.7675660421625707,21,f,1,15,2018_Oct_12_1602,MP_PerceptionTuring2,59.92475883663248,
85,resources/videos_generated\model(vcgpdm)-dataset(walking)-mode(ELBO)-parts(1)-dyn(27)-lvm(24)_final(3).mov,resources/videos_natural\training(27).mov,False,True,left,0,84,84,84,2018-10-12 16:10:50.989061,2018-10-12 16:10:54.909285,0:00:03.920224,2,left,1,0.4340256015873365,21,f,1,15,2018_Oct_12_1602,MP_PerceptionTuring2,59.92475883663248,
86,resources/videos_generated\model(vcgpdm)-dataset(walking)-mode(ELBO)-parts(1)-dyn(25)-lvm(23)_final(7).mov,resources/videos_natural\training(29).mov,False,False,right,0,85,85,85,2018-10-12 16:10:56.460374,2018-10-12 16:11:00.380598,0:00:03.920224,2,right,1,0.4504826462100482,21,f,1,15,2018_Oct_12_1602,MP_PerceptionTuring2,59.92475883663248,
87,resources/videos_generated\model(vcgpdm)-dataset(walking)-mode(ELBO)-parts(2)-dyn(28)-lvm(17)_final(7).mov,resources/videos_natural\training(20).mov,False,True,left,0,86,86,86,2018-10-12 16:11:01.948688,2018-10-12 16:11:05.851911,0:00:03.903223,2,left,1,0.5840538667564488,21,f,1,15,2018_Oct_12_1602,MP_PerceptionTuring2,59.92475883663248,
88,resources/videos_generated\model(tmp)-dataset(walking)-numprim(15)_final(0).mov,resources/videos_natural\training(1).mov,True,False,right,0,87,87,87,2018-10-12 16:11:07.554009,2018-10-12 16:11:11.474233,0:00:03.920224,2,left,0,0.5841047651431381,21,f,1,15,2018_Oct_12_1602,MP_PerceptionTuring2,59.92475883663248,
89,resources/videos_generated\model(dmp)-dataset(walking)-npsi(60)_final(4).mov,resources/videos_natural\training(25).mov,False,True,left,0,88,88,88,2018-10-12 16:11:13.175330,2018-10-12 16:11:17.111555,0:00:03.936225,2,right,0,0.3505386946702629,21,f,1,15,2018_Oct_12_1602,MP_PerceptionTuring2,59.92475883663248,
90,resources/videos_generated\model(vcgpdm)-dataset(walking)-mode(ELBO)-parts(2)-dyn(22)-lvm(23)_final(9).mov,resources/videos_natural\training(10).mov,False,True,left,0,89,89,89,2018-10-12 16:11:18.579639,2018-10-12 16:11:22.516864,0:00:03.937225,2,left,1,0.10028789211719413,21,f,1,15,2018_Oct_12_1602,MP_PerceptionTuring2,59.92475883663248,
91,resources/videos_generated\model(vcgpdm)-dataset(walking)-mode(ELBO)-parts(2)-dyn(28)-lvm(23)_final(5).mov,resources/videos_natural\training(17).mov,False,True,left,0,90,90,90,2018-10-12 16:11:57.846885,2018-10-12 16:12:01.884116,0:00:04.037231,3,right,0,0.36732763291479387,21,f,1,15,2018_Oct_12_1602,MP_PerceptionTuring2,59.92475883663248,
92,resources/videos_generated\model(dmp)-dataset(walking)-npsi(70)_final(4).mov,resources/videos_natural\training(11).mov,True,True,left,0,91,91,91,2018-10-12 16:12:03.368201,2018-10-12 16:12:07.288425,0:00:03.920224,3,right,0,0.31719483028996365,21,f,1,15,2018_Oct_12_1602,MP_PerceptionTuring2,59.92475883663248,
93,resources/videos_generated\model(vcgpdm)-dataset(walking)-mode(ELBO)-parts(2)-dyn(25)-lvm(22)_final(9).mov,resources/videos_natural\training(9).mov,False,True,left,0,92,92,92,2018-10-12 16:12:08.723507,2018-10-12 16:12:12.626731,0:00:03.903224,3,left,1,0.3004697409090795,21,f,1,15,2018_Oct_12_1602,MP_PerceptionTuring2,59.92475883663248,
94,resources/videos_generated\model(vcgpdm)-dataset(walking)-mode(ELBO)-parts(2)-dyn(22)-lvm(19)_final(1).mov,resources/videos_natural\training(14).mov,True,True,left,0,93,93,93,2018-10-12 16:12:14.044812,2018-10-12 16:12:17.948035,0:00:03.903223,3,left,1,0.31741408487869194,21,f,1,15,2018_Oct_12_1602,MP_PerceptionTuring2,59.92475883663248,
95,resources/videos_generated\model(vcgpdm)-dataset(walking)-mode(ELBO)-parts(2)-dyn(23)-lvm(20)_final(1).mov,resources/videos_natural\training(0).mov,True,False,right,0,94,94,94,2018-10-12 16:12:19.382117,2018-10-12 16:12:23.302341,0:00:03.920224,3,right,1,0.2838822879939471,21,f,1,15,2018_Oct_12_1602,MP_PerceptionTuring2,59.92475883663248,
96,resources/videos_generated\model(vcgpdm)-dataset(walking)-mode(ELBO)-parts(1)-dyn(23)-lvm(26)_final(9).mov,resources/videos_natural\training(34).mov,True,False,right,0,95,95,95,2018-10-12 16:12:24.703421,2018-10-12 16:12:28.640647,0:00:03.937226,3,right,1,0.30049534068939465,21,f,1,15,2018_Oct_12_1602,MP_PerceptionTuring2,59.92475883663248,
97,resources/videos_generated\model(vcgpdm)-dataset(walking)-mode(ELBO)-parts(2)-dyn(28)-lvm(17)_final(3).mov,resources/videos_natural\training(36).mov,True,True,left,0,96,96,96,2018-10-12 16:12:30.058728,2018-10-12 16:12:33.978952,0:00:03.920224,3,left,1,0.28394764272707107,21,f,1,15,2018_Oct_12_1602,MP_PerceptionTuring2,59.92475883663248,
98,resources/videos_generated\model(dmp)-dataset(walking)-npsi(100)_final(0).mov,resources/videos_natural\training(48).mov,False,True,left,0,97,97,97,2018-10-12 16:12:35.380032,2018-10-12 16:12:39.283255,0:00:03.903223,3,right,0,0.43385453482039793,21,f,1,15,2018_Oct_12_1602,MP_PerceptionTuring2,59.92475883663248,
99,resources/videos_generated\model(vcgpdm)-dataset(walking)-mode(ELBO)-parts(1)-dyn(24)-lvm(27)_final(4).mov,resources/videos_natural\training(19).mov,True,False,right,0,98,98,98,2018-10-12 16:12:40.834344,2018-10-12 16:12:44.787570,0:00:03.953226,3,right,1,0.3003688476575235,21,f,1,15,2018_Oct_12_1602,MP_PerceptionTuring2,59.92475883663248,
100,resources/videos_generated\model(tmp)-dataset(walking)-numprim(11)_final(8).mov,resources/videos_natural\training(18).mov,False,False,right,0,99,99,99,2018-10-12 16:12:46.205651,2018-10-12 16:12:50.258883,0:00:04.053232,3,left,0,0.31717916924799283,21,f,1,15,2018_Oct_12_1602,MP_PerceptionTuring2,59.92475883663248,
101,resources/videos_generated\model(vcgpdm)-dataset(walking)-mode(ELBO)-parts(1)-dyn(28)-lvm(24)_final(7).mov,resources/videos_natural\training(10).mov,False,True,left,0,100,100,100,2018-10-12 16:12:51.693965,2018-10-12 16:12:55.630190,0:00:03.936225,3,left,1,0.28376603487413377,21,f,1,15,2018_Oct_12_1602,MP_PerceptionTuring2,59.92475883663248,
102,resources/videos_generated\model(vcgpdm)-dataset(walking)-mode(ELBO)-parts(1)-dyn(26)-lvm(25)_final(7).mov,resources/videos_natural\training(45).mov,True,False,right,0,101,101,101,2018-10-12 16:12:57.031270,2018-10-12 16:13:00.951495,0:00:03.920225,3,right,1,0.7009761949149151,21,f,1,15,2018_Oct_12_1602,MP_PerceptionTuring2,59.92475883663248,
103,resources/videos_generated\model(vcgpdm)-dataset(walking)-mode(ELBO)-parts(1)-dyn(25)-lvm(24)_final(3).mov,resources/videos_natural\training(8).mov,False,False,right,0,102,102,102,2018-10-12 16:13:02.769599,2018-10-12 16:13:06.873833,0:00:04.104234,3,right,1,0.28375760200538025,21,f,1,15,2018_Oct_12_1602,MP_PerceptionTuring2,59.92475883663248,
104,resources/videos_generated\model(vcgpdm)-dataset(walking)-mode(ELBO)-parts(1)-dyn(23)-lvm(22)_final(3)_fail.mov,resources/videos_natural\training(27).mov,True,False,right,0,103,103,103,2018-10-12 16:13:08.274913,2018-10-12 16:13:12.295143,0:00:04.020230,3,right,1,0.3839617677822389,21,f,1,15,2018_Oct_12_1602,MP_PerceptionTuring2,59.92475883663248,
105,resources/videos_generated\model(dmp)-dataset(walking)-npsi(50)_final(4).mov,resources/videos_natural\training(1).mov,True,True,left,0,104,104,104,2018-10-12 16:13:13.796229,2018-10-12 16:13:17.799458,0:00:04.003229,3,left,1,0.4173697822001259,21,f,1,15,2018_Oct_12_1602,MP_PerceptionTuring2,59.92475883663248,
106,resources/videos_generated\model(vcgpdm)-dataset(walking)-mode(ELBO)-parts(2)-dyn(24)-lvm(19)_final(1).mov,resources/videos_natural\training(2).mov,True,False,right,0,105,105,105,2018-10-12 16:13:19.334546,2018-10-12 16:13:23.387778,0:00:04.053232,3,left,0,0.3171457389466923,21,f,1,15,2018_Oct_12_1602,MP_PerceptionTuring2,59.92475883663248,
107,resources/videos_generated\model(vcgpdm)-dataset(walking)-mode(ELBO)-parts(1)-dyn(27)-lvm(26)_final(1).mov,resources/videos_natural\training(46).mov,False,False,right,0,106,106,106,2018-10-12 16:13:24.822860,2018-10-12 16:13:28.809088,0:00:03.986228,3,right,1,0.9342829546724261,21,f,1,15,2018_Oct_12_1602,MP_PerceptionTuring2,59.92475883663248,
108,resources/videos_generated\model(dmp)-dataset(walking)-npsi(70)_final(0).mov,resources/videos_natural\training(31).mov,False,True,left,0,107,107,107,2018-10-12 16:13:30.861205,2018-10-12 16:13:34.781430,0:00:03.920225,3,left,1,0.33414519773714346,21,f,1,15,2018_Oct_12_1602,MP_PerceptionTuring2,59.92475883663248,
109,resources/videos_generated\model(tmp)-dataset(walking)-numprim(14)_final(4).mov,resources/videos_natural\training(8).mov,True,True,left,0,108,108,108,2018-10-12 16:13:36.232513,2018-10-12 16:13:40.135736,0:00:03.903223,3,right,0,0.8844350625431616,21,f,1,15,2018_Oct_12_1602,MP_PerceptionTuring2,59.92475883663248,
110,resources/videos_generated\model(vcgpdm)-dataset(walking)-mode(ELBO)-parts(1)-dyn(24)-lvm(23)_final(6)_fail.mov,resources/videos_natural\training(6).mov,True,False,right,0,109,109,109,2018-10-12 16:13:42.137850,2018-10-12 16:13:46.091076,0:00:03.953226,3,right,1,0.3171604964670678,21,f,1,15,2018_Oct_12_1602,MP_PerceptionTuring2,59.92475883663248,
111,resources/videos_generated\model(vcgpdm)-dataset(walking)-mode(ELBO)-parts(1)-dyn(22)-lvm(25)_final(8).mov,resources/videos_natural\training(26).mov,False,False,right,0,110,110,110,2018-10-12 16:13:47.525158,2018-10-12 16:13:51.445383,0:00:03.920225,3,right,1,0.38395935839128015,21,f,1,15,2018_Oct_12_1602,MP_PerceptionTuring2,59.92475883663248,
112,resources/videos_generated\model(vcgpdm)-dataset(walking)-mode(ELBO)-parts(2)-dyn(26)-lvm(23)_final(5).mov,resources/videos_natural\training(18).mov,True,False,right,0,111,111,111,2018-10-12 16:13:52.946469,2018-10-12 16:13:56.933697,0:00:03.987228,3,right,1,0.5840698289723605,21,f,1,15,2018_Oct_12_1602,MP_PerceptionTuring2,59.92475883663248,
113,resources/videos_generated\model(vcgpdm)-dataset(walking)-mode(ELBO)-parts(1)-dyn(26)-lvm(23)_final(1).mov,resources/videos_natural\training(25).mov,False,False,right,0,112,112,112,2018-10-12 16:13:58.634794,2018-10-12 16:14:02.555018,0:00:03.920224,3,right,1,0.36722764318483314,21,f,1,15,2018_Oct_12_1602,MP_PerceptionTuring2,59.92475883663248,
114,resources/videos_generated\model(vcgpdm)-dataset(walking)-mode(ELBO)-parts(2)-dyn(22)-lvm(21)_final(7).mov,resources/videos_natural\training(20).mov,True,False,right,0,113,113,113,2018-10-12 16:14:04.040103,2018-10-12 16:14:07.976328,0:00:03.936225,3,right,1,0.35073204830462146,21,f,1,15,2018_Oct_12_1602,MP_PerceptionTuring2,59.92475883663248,
115,resources/videos_generated\model(vcgpdm)-dataset(walking)-mode(ELBO)-parts(2)-dyn(27)-lvm(20)_final(7).mov,resources/videos_natural\training(18).mov,False,True,left,0,114,114,114,2018-10-12 16:14:09.444412,2018-10-12 16:14:13.564648,0:00:04.120236,3,left,1,0.367377326605947,21,f,1,15,2018_Oct_12_1602,MP_PerceptionTuring2,59.92475883663248,
116,resources/videos_generated\model(vcgpdm)-dataset(walking)-mode(ELBO)-parts(2)-dyn(26)-lvm(19)_final(9).mov,resources/videos_natural\training(39).mov,True,False,right,0,115,115,115,2018-10-12 16:14:15.048733,2018-10-12 16:14:18.968957,0:00:03.920224,3,left,0,0.3504245497675811,21,f,1,15,2018_Oct_12_1602,MP_PerceptionTuring2,59.92475883663248,
117,resources/videos_generated\model(vcgpdm)-dataset(walking)-mode(ELBO)-parts(2)-dyn(27)-lvm(22)_final(3).mov,resources/videos_natural\training(1).mov,True,True,left,0,116,116,116,2018-10-12 16:14:20.437041,2018-10-12 16:14:24.490273,0:00:04.053232,3,left,1,0.31721741833143824,21,f,1,15,2018_Oct_12_1602,MP_PerceptionTuring2,59.92475883663248,
118,resources/videos_generated\model(dmp)-dataset(walking)-npsi(60)_final(8).mov,resources/videos_natural\training(11).mov,True,True,left,0,117,117,117,2018-10-12 16:14:25.925355,2018-10-12 16:14:29.978587,0:00:04.053232,3,left,1,0.3838705120949726,21,f,1,15,2018_Oct_12_1602,MP_PerceptionTuring2,59.92475883663248,
119,resources/videos_generated\model(vcgpdm)-dataset(walking)-mode(ELBO)-parts(1)-dyn(27)-lvm(28)_final(7).mov,resources/videos_natural\training(6).mov,True,True,left,0,118,118,118,2018-10-12 16:14:31.479673,2018-10-12 16:14:35.583907,0:00:04.104234,3,left,1,0.4006477045580823,21,f,1,15,2018_Oct_12_1602,MP_PerceptionTuring2,59.92475883663248,
120,resources/videos_generated\model(vcgpdm)-dataset(walking)-mode(ELBO)-parts(1)-dyn(22)-lvm(22)_final(4).mov,resources/videos_natural\training(43).mov,False,True,left,0,119,119,119,2018-10-12 16:14:37.101994,2018-10-12 16:14:41.138225,0:00:04.036231,3,left,1,0.41720202834596876,21,f,1,15,2018_Oct_12_1602,MP_PerceptionTuring2,59.92475883663248,
121,resources/videos_generated\model(vcgpdm)-dataset(walking)-mode(ELBO)-parts(1)-dyn(27)-lvm(28)_final(1).mov,resources/videos_natural\training(48).mov,True,True,left,0,120,120,120,2018-10-12 16:14:42.673313,2018-10-12 16:14:46.643540,0:00:03.970227,3,left,1,0.45070551488538513,21,f,1,15,2018_Oct_12_1602,MP_PerceptionTuring2,59.92475883663248,
122,resources/videos_generated\model(vcgpdm)-dataset(walking)-mode(ELBO)-parts(1)-dyn(25)-lvm(26)_final(4)_fail.mov,resources/videos_natural\training(48).mov,True,False,right,0,121,121,121,2018-10-12 16:14:48.211630,2018-10-12 16:14:52.164856,0:00:03.953226,3,right,1,0.317102671081102,21,f,1,15,2018_Oct_12_1602,MP_PerceptionTuring2,59.92475883663248,
123,resources/videos_generated\model(tmp)-dataset(walking)-numprim(12)_final(2).mov,resources/videos_natural\training(36).mov,True,True,left,0,122,122,122,2018-10-12 16:14:53.598938,2018-10-12 16:14:57.553164,0:00:03.954226,3,right,0,0.36743274260084036,21,f,1,15,2018_Oct_12_1602,MP_PerceptionTuring2,59.92475883663248,
124,resources/videos_generated\model(vcgpdm)-dataset(walking)-mode(ELBO)-parts(1)-dyn(27)-lvm(26)_final(3).mov,resources/videos_natural\training(6).mov,True,True,left,0,123,123,123,2018-10-12 16:14:59.037249,2018-10-12 16:15:02.957473,0:00:03.920224,3,left,1,0.3339376889301775,21,f,1,15,2018_Oct_12_1602,MP_PerceptionTuring2,59.92475883663248,
125,resources/videos_generated\model(tmp)-dataset(walking)-numprim(12)_final(8).mov,resources/videos_natural\training(35).mov,False,False,right,0,124,124,124,2018-10-12 16:15:04.408556,2018-10-12 16:15:08.478789,0:00:04.070233,3,right,1,0.3507272295224766,21,f,1,15,2018_Oct_12_1602,MP_PerceptionTuring2,59.92475883663248,
126,resources/videos_generated\model(dmp)-dataset(walking)-npsi(80)_final(4).mov,resources/videos_natural\training(14).mov,False,False,right,0,125,125,125,2018-10-12 16:15:09.946873,2018-10-12 16:15:13.917100,0:00:03.970227,3,left,0,0.4173005122063387,21,f,1,15,2018_Oct_12_1602,MP_PerceptionTuring2,59.92475883663248,
127,resources/videos_generated\model(vcgpdm)-dataset(walking)-mode(ELBO)-parts(2)-dyn(24)-lvm(17)_final(9).mov,resources/videos_natural\training(21).mov,False,False,right,0,126,126,126,2018-10-12 16:15:15.451188,2018-10-12 16:15:19.354411,0:00:03.903223,3,right,1,0.31702316117537066,21,f,1,15,2018_Oct_12_1602,MP_PerceptionTuring2,59.92475883663248,
128,resources/videos_generated\model(vcgpdm)-dataset(walking)-mode(ELBO)-parts(2)-dyn(25)-lvm(18)_final(1).mov,resources/videos_natural\training(19).mov,True,True,left,0,127,127,127,2018-10-12 16:15:20.789493,2018-10-12 16:15:24.825724,0:00:04.036231,3,left,1,0.30044895991102294,21,f,1,15,2018_Oct_12_1602,MP_PerceptionTuring2,59.92475883663248,
129,resources/videos_generated\model(vcgpdm)-dataset(walking)-mode(ELBO)-parts(1)-dyn(23)-lvm(22)_final(9)_fail.mov,resources/videos_natural\training(38).mov,False,False,right,0,128,128,128,2018-10-12 16:15:26.243805,2018-10-12 16:15:30.181030,0:00:03.937225,3,right,1,0.30051853107875104,21,f,1,15,2018_Oct_12_1602,MP_PerceptionTuring2,59.92475883663248,
130,resources/videos_generated\model(vcgpdm)-dataset(walking)-mode(ELBO)-parts(1)-dyn(28)-lvm(27)_final(3).mov,resources/videos_natural\training(30).mov,True,True,left,0,129,129,129,2018-10-12 16:15:31.598111,2018-10-12 16:15:35.652343,0:00:04.054232,3,left,1,0.300514916991915,21,f,1,15,2018_Oct_12_1602,MP_PerceptionTuring2,59.92475883663248,
131,resources/videos_generated\model(vcgpdm)-dataset(walking)-mode(ELBO)-parts(2)-dyn(24)-lvm(19)_final(5).mov,resources/videos_natural\training(3).mov,False,True,left,0,130,130,130,2018-10-12 16:15:37.070424,2018-10-12 16:15:41.006649,0:00:03.936225,3,left,1,0.3839018341791416,21,f,1,15,2018_Oct_12_1602,MP_PerceptionTuring2,59.92475883663248,
132,resources/videos_generated\model(vcgpdm)-dataset(walking)-mode(ELBO)-parts(1)-dyn(28)-lvm(23)_final(7).mov,resources/videos_natural\training(46).mov,False,True,left,0,131,131,131,2018-10-12 16:15:42.507735,2018-10-12 16:15:46.544966,0:00:04.037231,3,right,0,0.3671201241077142,21,f,1,15,2018_Oct_12_1602,MP_PerceptionTuring2,59.92475883663248,
133,resources/videos_generated\model(vcgpdm)-dataset(walking)-mode(ELBO)-parts(1)-dyn(24)-lvm(27)_final(2).mov,resources/videos_natural\training(26).mov,True,True,left,0,132,132,132,2018-10-12 16:15:48.030051,2018-10-12 16:15:51.949275,0:00:03.919224,3,left,1,0.5673567865469522,21,f,1,15,2018_Oct_12_1602,MP_PerceptionTuring2,59.92475883663248,
134,resources/videos_generated\model(tmp)-dataset(walking)-numprim(13)_final(2).mov,resources/videos_natural\training(14).mov,False,True,left,0,133,133,133,2018-10-12 16:15:53.634371,2018-10-12 16:15:57.554596,0:00:03.920225,3,right,0,0.4505757089407325,21,f,1,15,2018_Oct_12_1602,MP_PerceptionTuring2,59.92475883663248,
135,resources/videos_generated\model(vcgpdm)-dataset(walking)-mode(ELBO)-parts(1)-dyn(23)-lvm(26)_final(3)_hip-corrected.mov,resources/videos_natural\training(17).mov,True,True,left,0,134,134,134,2018-10-12 16:15:59.122685,2018-10-12 16:16:03.192918,0:00:04.070233,3,left,1,0.5506940401601241,21,f,1,15,2018_Oct_12_1602,MP_PerceptionTuring2,59.92475883663248,
136,resources/videos_generated\model(vcgpdm)-dataset(walking)-mode(ELBO)-parts(2)-dyn(24)-lvm(19)_final(3).mov,resources/videos_natural\training(35).mov,True,True,left,0,135,135,135,2018-10-12 16:16:38.272925,2018-10-12 16:16:42.243152,0:00:03.970227,4,left,1,1.1678779378382842,21,f,1,15,2018_Oct_12_1602,MP_PerceptionTuring2,59.92475883663248,
137,resources/videos_generated\model(vcgpdm)-dataset(walking)-mode(ELBO)-parts(2)-dyn(28)-lvm(23)_final(3).mov,resources/videos_natural\training(29).mov,True,False,right,0,136,136,136,2018-10-12 16:16:44.528282,2018-10-12 16:16:48.431506,0:00:03.903224,4,right,1,0.2671837019149734,21,f,1,15,2018_Oct_12_1602,MP_PerceptionTuring2,59.92475883663248,
138,resources/videos_generated\model(vcgpdm)-dataset(walking)-mode(ELBO)-parts(2)-dyn(28)-lvm(17)_final(5).mov,resources/videos_natural\training(25).mov,False,True,left,0,137,137,137,2018-10-12 16:16:49.816585,2018-10-12 16:16:53.752810,0:00:03.936225,4,left,1,0.31717977159564725,21,f,1,15,2018_Oct_12_1602,MP_PerceptionTuring2,59.92475883663248,
139,resources/videos_generated\model(vcgpdm)-dataset(walking)-mode(ELBO)-parts(1)-dyn(23)-lvm(22)_final(5)_fail.mov,resources/videos_natural\training(31).mov,False,True,left,0,138,138,138,2018-10-12 16:16:55.187892,2018-10-12 16:16:59.274126,0:00:04.086234,4,left,1,0.5006428556584979,21,f,1,15,2018_Oct_12_1602,MP_PerceptionTuring2,59.92475883663248,
140,resources/videos_generated\model(vcgpdm)-dataset(walking)-mode(ELBO)-parts(1)-dyn(27)-lvm(26)_final(5).mov,resources/videos_natural\training(37).mov,True,True,left,0,139,139,139,2018-10-12 16:17:00.892218,2018-10-12 16:17:04.829444,0:00:03.937226,4,left,1,0.5173095173056481,21,f,1,15,2018_Oct_12_1602,MP_PerceptionTuring2,59.92475883663248,
141,resources/videos_generated\model(vcgpdm)-dataset(walking)-mode(ELBO)-parts(2)-dyn(24)-lvm(23)_final(9).mov,resources/videos_natural\training(36).mov,True,False,right,0,140,140,140,2018-10-12 16:17:06.464537,2018-10-12 16:17:10.650777,0:00:04.186240,4,right,1,0.3005591895530415,21,f,1,15,2018_Oct_12_1602,MP_PerceptionTuring2,59.92475883663248,
142,resources/videos_generated\model(vcgpdm)-dataset(walking)-mode(ELBO)-parts(2)-dyn(28)-lvm(21)_final(1).mov,resources/videos_natural\training(21).mov,False,True,left,0,141,141,141,2018-10-12 16:17:12.068858,2018-10-12 16:17:16.189093,0:00:04.120235,4,right,0,1.0011122351590984,21,f,1,15,2018_Oct_12_1602,MP_PerceptionTuring2,59.92475883663248,
143,resources/videos_generated\model(vcgpdm)-dataset(walking)-mode(ELBO)-parts(1)-dyn(25)-lvm(24)_final(1).mov,resources/videos_natural\training(18).mov,True,False,right,0,142,142,142,2018-10-12 16:17:18.307215,2018-10-12 16:17:22.244440,0:00:03.937225,4,right,1,0.5674640044501302,21,f,1,15,2018_Oct_12_1602,MP_PerceptionTuring2,59.92475883663248,
144,resources/videos_generated\model(vcgpdm)-dataset(walking)-mode(ELBO)-parts(2)-dyn(22)-lvm(17)_final(1).mov,resources/videos_natural\training(4).mov,False,True,left,0,143,143,143,2018-10-12 16:17:23.929536,2018-10-12 16:17:27.865761,0:00:03.936225,4,right,0,0.2504296998411064,21,f,1,15,2018_Oct_12_1602,MP_PerceptionTuring2,59.92475883663248,
145,resources/videos_generated\model(vcgpdm)-dataset(walking)-mode(ELBO)-parts(1)-dyn(22)-lvm(23)_final(8).mov,resources/videos_natural\training(47).mov,True,False,right,0,144,144,144,2018-10-12 16:17:29.233839,2018-10-12 16:17:33.170065,0:00:03.936226,4,right,1,0.26714876574419577,21,f,1,15,2018_Oct_12_1602,MP_PerceptionTuring2,59.92475883663248,
146,resources/videos_generated\model(vcgpdm)-dataset(walking)-mode(ELBO)-parts(1)-dyn(22)-lvm(28)_final(0).mov,resources/videos_natural\training(39).mov,False,True,left,0,145,145,145,2018-10-12 16:17:34.555144,2018-10-12 16:17:38.508370,0:00:03.953226,4,left,1,0.23377839806221345,21,f,1,15,2018_Oct_12_1602,MP_PerceptionTuring2,59.92475883663248,
147,resources/videos_generated\model(vcgpdm)-dataset(walking)-mode(ELBO)-parts(2)-dyn(23)-lvm(22)_final(1).mov,resources/videos_natural\training(13).mov,False,False,right,0,146,146,146,2018-10-12 16:17:39.859447,2018-10-12 16:17:43.862676,0:00:04.003229,4,right,1,0.5674736420146473,21,f,1,15,2018_Oct_12_1602,MP_PerceptionTuring2,59.92475883663248,
148,resources/videos_generated\model(dmp)-dataset(walking)-npsi(100)_final(2).mov,resources/videos_natural\training(47).mov,False,False,right,0,147,147,147,2018-10-12 16:17:45.547773,2018-10-12 16:17:49.467997,0:00:03.920224,4,right,1,0.4172420844727185,21,f,1,15,2018_Oct_12_1602,MP_PerceptionTuring2,59.92475883663248,
149,resources/videos_generated\model(vcgpdm)-dataset(walking)-mode(ELBO)-parts(2)-dyn(23)-lvm(22)_final(5).mov,resources/videos_natural\training(47).mov,True,False,right,0,148,148,148,2018-10-12 16:17:51.003085,2018-10-12 16:17:54.939310,0:00:03.936225,4,right,1,0.36725113474790305,21,f,1,15,2018_Oct_12_1602,MP_PerceptionTuring2,59.92475883663248,
150,resources/videos_generated\model(vcgpdm)-dataset(walking)-mode(ELBO)-parts(2)-dyn(26)-lvm(23)_final(9).mov,resources/videos_natural\training(42).mov,False,True,left,0,149,149,149,2018-10-12 16:17:56.424395,2018-10-12 16:18:00.544630,0:00:04.120235,4,left,1,0.3671493379747517,21,f,1,15,2018_Oct_12_1602,MP_PerceptionTuring2,59.92475883663248,
151,resources/videos_generated\model(vcgpdm)-dataset(walking)-mode(ELBO)-parts(1)-dyn(26)-lvm(23)_final(7).mov,resources/videos_natural\training(12).mov,False,False,right,0,150,150,150,2018-10-12 16:18:02.028715,2018-10-12 16:18:05.981941,0:00:03.953226,4,right,1,0.3840307366021989,21,f,1,15,2018_Oct_12_1602,MP_PerceptionTuring2,59.92475883663248,
152,resources/videos_generated\model(vcgpdm)-dataset(walking)-mode(ELBO)-parts(2)-dyn(27)-lvm(22)_final(5).mov,resources/videos_natural\training(32).mov,False,True,left,0,151,151,151,2018-10-12 16:18:07.483027,2018-10-12 16:18:11.537259,0:00:04.054232,4,left,1,0.36741858742834665,21,f,1,15,2018_Oct_12_1602,MP_PerceptionTuring2,59.92475883663248,
153,resources/videos_generated\model(vcgpdm)-dataset(walking)-mode(ELBO)-parts(2)-dyn(23)-lvm(20)_final(3).mov,resources/videos_natural\training(28).mov,True,True,left,0,152,152,152,2018-10-12 16:18:13.021344,2018-10-12 16:18:16.974570,0:00:03.953226,4,left,1,0.3004733549955745,21,f,1,15,2018_Oct_12_1602,MP_PerceptionTuring2,59.92475883663248,
154,resources/videos_generated\model(vcgpdm)-dataset(walking)-mode(ELBO)-parts(1)-dyn(24)-lvm(25)_final(2).mov,resources/videos_natural\training(9).mov,True,False,right,0,153,153,153,2018-10-12 16:18:18.392651,2018-10-12 16:18:22.295874,0:00:03.903223,4,right,1,0.3506989191771481,21,f,1,15,2018_Oct_12_1602,MP_PerceptionTuring2,59.92475883663248,
155,resources/videos_generated\model(vcgpdm)-dataset(walking)-mode(ELBO)-parts(1)-dyn(22)-lvm(27)_final(4)_fail.mov,resources/videos_natural\training(30).mov,True,False,right,0,154,154,154,2018-10-12 16:18:23.763958,2018-10-12 16:18:27.701184,0:00:03.937226,4,right,1,0.31716591759709445,21,f,1,15,2018_Oct_12_1602,MP_PerceptionTuring2,59.92475883663248,
156,resources/videos_generated\model(dmp)-dataset(walking)-npsi(100)_final(4).mov,resources/videos_natural\training(15).mov,True,True,left,0,155,155,155,2018-10-12 16:18:29.135266,2018-10-12 16:18:33.072491,0:00:03.937225,4,left,1,0.6507388849520339,21,f,1,15,2018_Oct_12_1602,MP_PerceptionTuring2,59.92475883663248,
157,resources/videos_generated\model(vcgpdm)-dataset(walking)-mode(ELBO)-parts(2)-dyn(24)-lvm(19)_final(7).mov,resources/videos_natural\training(42).mov,False,False,right,0,156,156,156,2018-10-12 16:18:34.840592,2018-10-12 16:18:38.743815,0:00:03.903223,4,right,1,0.3339979237073294,21,f,1,15,2018_Oct_12_1602,MP_PerceptionTuring2,59.92475883663248,
158,resources/videos_generated\model(tmp)-dataset(walking)-numprim(11)_final(2).mov,resources/videos_natural\training(23).mov,True,True,left,0,157,157,157,2018-10-12 16:18:40.194898,2018-10-12 16:18:44.115122,0:00:03.920224,4,right,0,0.28432170069277163,21,f,1,15,2018_Oct_12_1602,MP_PerceptionTuring2,59.92475883663248,
159,resources/videos_generated\model(dmp)-dataset(walking)-npsi(100)_final(6).mov,resources/videos_natural\training(42).mov,True,False,right,0,158,158,158,2018-10-12 16:18:45.516203,2018-10-12 16:18:49.419426,0:00:03.903223,4,left,0,0.2504944522263486,21,f,1,15,2018_Oct_12_1602,MP_PerceptionTuring2,59.92475883663248,
160,resources/videos_generated\model(vcgpdm)-dataset(walking)-mode(ELBO)-parts(2)-dyn(27)-lvm(22)_final(9).mov,resources/videos_natural\training(16).mov,True,False,right,0,159,159,159,2018-10-12 16:18:50.787504,2018-10-12 16:18:54.907740,0:00:04.120236,4,right,1,0.26706684644750567,21,f,1,15,2018_Oct_12_1602,MP_PerceptionTuring2,59.92475883663248,
161,resources/videos_generated\model(vcgpdm)-dataset(walking)-mode(ELBO)-parts(2)-dyn(28)-lvm(17)_final(9).mov,resources/videos_natural\training(28).mov,True,False,right,0,160,160,160,2018-10-12 16:18:56.291819,2018-10-12 16:19:00.229044,0:00:03.937225,4,right,1,0.2838127168263327,21,f,1,15,2018_Oct_12_1602,MP_PerceptionTuring2,59.92475883663248,
162,resources/videos_generated\model(vcgpdm)-dataset(walking)-mode(ELBO)-parts(1)-dyn(28)-lvm(24)_final(2).mov,resources/videos_natural\training(2).mov,True,True,left,0,161,161,161,2018-10-12 16:19:01.630124,2018-10-12 16:19:05.734359,0:00:04.104235,4,left,1,0.3839003283096645,21,f,1,15,2018_Oct_12_1602,MP_PerceptionTuring2,59.92475883663248,
163,resources/videos_generated\model(vcgpdm)-dataset(walking)-mode(ELBO)-parts(1)-dyn(25)-lvm(24)_final(9).mov,resources/videos_natural\training(23).mov,False,True,left,0,162,162,162,2018-10-12 16:19:07.235445,2018-10-12 16:19:11.188671,0:00:03.953226,4,left,1,0.4172405786032414,21,f,1,15,2018_Oct_12_1602,MP_PerceptionTuring2,59.92475883663248,
164,resources/videos_generated\model(vcgpdm)-dataset(walking)-mode(ELBO)-parts(1)-dyn(23)-lvm(22)_final(1)_fail.mov,resources/videos_natural\training(25).mov,True,True,left,0,163,163,163,2018-10-12 16:19:12.723759,2018-10-12 16:19:16.642983,0:00:03.919224,4,left,1,0.2339618129583414,21,f,1,15,2018_Oct_12_1602,MP_PerceptionTuring2,59.92475883663248,
165,resources/videos_generated\model(vcgpdm)-dataset(walking)-mode(ELBO)-parts(1)-dyn(26)-lvm(23)_final(3)_fail.mov,resources/videos_natural\training(24).mov,True,True,left,0,164,164,164,2018-10-12 16:19:17.994060,2018-10-12 16:19:22.114296,0:00:04.120236,4,left,1,0.6675269196746285,21,f,1,15,2018_Oct_12_1602,MP_PerceptionTuring2,59.92475883663248,
166,resources/videos_generated\model(vcgpdm)-dataset(walking)-mode(ELBO)-parts(1)-dyn(25)-lvm(22)_final(4).mov,resources/videos_natural\training(41).mov,False,False,right,0,165,165,165,2018-10-12 16:19:23.899398,2018-10-12 16:19:27.969631,0:00:04.070233,4,right,1,0.5172595224405541,21,f,1,15,2018_Oct_12_1602,MP_PerceptionTuring2,59.92475883663248,
167,resources/videos_generated\model(vcgpdm)-dataset(walking)-mode(ELBO)-parts(1)-dyn(25)-lvm(26)_final(8).mov,resources/videos_natural\training(45).mov,False,True,left,0,166,166,166,2018-10-12 16:19:29.604724,2018-10-12 16:19:33.507948,0:00:03.903224,4,right,0,0.6341192064307961,21,f,1,15,2018_Oct_12_1602,MP_PerceptionTuring2,59.92475883663248,
168,resources/videos_generated\model(tmp)-dataset(walking)-numprim(15)_final(4).mov,resources/videos_natural\training(3).mov,False,True,left,0,167,167,167,2018-10-12 16:19:35.259048,2018-10-12 16:19:39.213274,0:00:03.954226,4,right,0,0.38398194643264105,21,f,1,15,2018_Oct_12_1602,MP_PerceptionTuring2,59.92475883663248,
169,resources/videos_generated\model(vcgpdm)-dataset(walking)-mode(ELBO)-parts(1)-dyn(28)-lvm(23)_final(3)_fail.mov,resources/videos_natural\training(8).mov,True,True,left,0,168,168,168,2018-10-12 16:19:40.714360,2018-10-12 16:19:44.600582,0:00:03.886222,4,left,1,0.3005311803817676,21,f,1,15,2018_Oct_12_1602,MP_PerceptionTuring2,59.92475883663248,
170,resources/videos_generated\model(vcgpdm)-dataset(walking)-mode(ELBO)-parts(2)-dyn(27)-lvm(18)_final(9).mov,resources/videos_natural\training(17).mov,False,True,left,0,169,169,169,2018-10-12 16:19:46.018663,2018-10-12 16:19:49.955888,0:00:03.937225,4,left,1,0.2838452436060379,21,f,1,15,2018_Oct_12_1602,MP_PerceptionTuring2,59.92475883663248,
171,resources/videos_generated\model(dmp)-dataset(walking)-npsi(50)_final(0).mov,resources/videos_natural\training(28).mov,False,False,right,0,170,170,170,2018-10-12 16:19:51.356968,2018-10-12 16:19:55.243191,0:00:03.886223,4,left,0,0.8175581965829224,21,f,1,15,2018_Oct_12_1602,MP_PerceptionTuring2,59.92475883663248,
172,resources/videos_generated\model(vcgpdm)-dataset(walking)-mode(ELBO)-parts(1)-dyn(22)-lvm(25)_final(6).mov,resources/videos_natural\training(2).mov,False,False,right,0,171,171,171,2018-10-12 16:19:57.178301,2018-10-12 16:20:01.065524,0:00:03.887223,4,right,1,0.434065356540259,21,f,1,15,2018_Oct_12_1602,MP_PerceptionTuring2,59.92475883663248,
173,resources/videos_generated\model(vcgpdm)-dataset(walking)-mode(ELBO)-parts(2)-dyn(28)-lvm(19)_final(7).mov,resources/videos_natural\training(38).mov,True,False,right,0,172,172,172,2018-10-12 16:20:02.616612,2018-10-12 16:20:06.536837,0:00:03.920225,4,left,0,0.28375699965772583,21,f,1,15,2018_Oct_12_1602,MP_PerceptionTuring2,59.92475883663248,
174,resources/videos_generated\model(vcgpdm)-dataset(walking)-mode(ELBO)-parts(1)-dyn(25)-lvm(24)_final(5).mov,resources/videos_natural\training(43).mov,False,False,right,0,173,173,173,2018-10-12 16:20:07.937917,2018-10-12 16:20:12.041152,0:00:04.103235,4,right,1,0.5672513756869648,21,f,1,15,2018_Oct_12_1602,MP_PerceptionTuring2,59.92475883663248,
175,resources/videos_generated\model(vcgpdm)-dataset(walking)-mode(ELBO)-parts(2)-dyn(28)-lvm(19)_final(3).mov,resources/videos_natural\training(7).mov,False,False,right,0,174,174,174,2018-10-12 16:20:13.726248,2018-10-12 16:20:17.679474,0:00:03.953226,4,right,1,0.7675675480320479,21,f,1,15,2018_Oct_12_1602,MP_PerceptionTuring2,59.92475883663248,
176,resources/videos_generated\model(vcgpdm)-dataset(walking)-mode(ELBO)-parts(1)-dyn(27)-lvm(24)_final(9).mov,resources/videos_natural\training(35).mov,False,False,right,0,175,175,175,2018-10-12 16:20:19.564582,2018-10-12 16:20:23.517808,0:00:03.953226,4,right,1,0.4673128452768651,21,f,1,15,2018_Oct_12_1602,MP_PerceptionTuring2,59.92475883663248,
177,resources/videos_generated\model(vcgpdm)-dataset(walking)-mode(ELBO)-parts(2)-dyn(26)-lvm(21)_final(3).mov,resources/videos_natural\training(47).mov,False,False,right,0,176,176,176,2018-10-12 16:20:25.102899,2018-10-12 16:20:29.189132,0:00:04.086233,4,right,1,0.5006660460476269,21,f,1,15,2018_Oct_12_1602,MP_PerceptionTuring2,59.92475883663248,
178,resources/videos_generated\model(vcgpdm)-dataset(walking)-mode(ELBO)-parts(2)-dyn(24)-lvm(19)_final(9).mov,resources/videos_natural\training(24).mov,True,False,right,0,177,177,177,2018-10-12 16:20:30.807225,2018-10-12 16:20:34.760451,0:00:03.953226,4,left,0,0.350707352046129,21,f,1,15,2018_Oct_12_1602,MP_PerceptionTuring2,59.92475883663248,
179,resources/videos_generated\model(vcgpdm)-dataset(walking)-mode(ELBO)-parts(2)-dyn(27)-lvm(20)_final(3).mov,resources/videos_natural\training(21).mov,True,True,left,0,178,178,178,2018-10-12 16:20:36.228535,2018-10-12 16:20:40.248765,0:00:04.020230,4,left,1,0.6174799516072653,21,f,1,15,2018_Oct_12_1602,MP_PerceptionTuring2,59.92475883663248,
180,resources/videos_generated\model(dmp)-dataset(walking)-npsi(60)_final(2).mov,resources/videos_natural\training(29).mov,False,True,left,0,179,179,179,2018-10-12 16:20:41.983864,2018-10-12 16:20:45.920089,0:00:03.936225,4,right,0,0.40066848555625256,21,f,1,15,2018_Oct_12_1602,MP_PerceptionTuring2,59.92475883663248,
181,resources/videos_generated\model(vcgpdm)-dataset(walking)-mode(ELBO)-parts(2)-dyn(23)-lvm(20)_final(9).mov,resources/videos_natural\training(32).mov,False,False,right,0,180,180,180,2018-10-12 16:21:18.848973,2018-10-12 16:21:22.769197,0:00:03.920224,5,right,1,0.3171288732089579,21,f,1,15,2018_Oct_12_1602,MP_PerceptionTuring2,59.92475883663248,
182,resources/videos_generated\model(vcgpdm)-dataset(walking)-mode(ELBO)-parts(1)-dyn(24)-lvm(23)_final(0).mov,resources/videos_natural\training(10).mov,True,True,left,0,181,181,181,2018-10-12 16:21:24.203279,2018-10-12 16:21:28.157505,0:00:03.954226,5,left,1,0.40065402920981796,21,f,1,15,2018_Oct_12_1602,MP_PerceptionTuring2,59.92475883663248,
183,resources/videos_generated\model(vcgpdm)-dataset(walking)-mode(ELBO)-parts(1)-dyn(23)-lvm(24)_final(1).mov,resources/videos_natural\training(31).mov,False,False,right,0,182,182,182,2018-10-12 16:21:29.674592,2018-10-12 16:21:33.594816,0:00:03.920224,5,right,1,0.43393735763879704,21,f,1,15,2018_Oct_12_1602,MP_PerceptionTuring2,59.92475883663248,
184,resources/videos_generated\model(vcgpdm)-dataset(walking)-mode(ELBO)-parts(1)-dyn(26)-lvm(27)_final(3).mov,resources/videos_natural\training(30).mov,True,True,left,0,183,183,183,2018-10-12 16:21:35.145905,2018-10-12 16:21:39.250140,0:00:04.104235,5,left,1,0.3337952336823946,21,f,1,15,2018_Oct_12_1602,MP_PerceptionTuring2,59.92475883663248,
185,resources/videos_generated\model(vcgpdm)-dataset(walking)-mode(ELBO)-parts(2)-dyn(24)-lvm(21)_final(5).mov,resources/videos_natural\training(29).mov,True,False,right,0,184,184,184,2018-10-12 16:21:40.701223,2018-10-12 16:21:44.788456,0:00:04.087233,5,left,0,0.28376332430912043,21,f,1,15,2018_Oct_12_1602,MP_PerceptionTuring2,59.92475883663248,
186,resources/videos_generated\model(vcgpdm)-dataset(walking)-mode(ELBO)-parts(2)-dyn(22)-lvm(21)_final(3).mov,resources/videos_natural\training(5).mov,False,True,left,0,185,185,185,2018-10-12 16:21:46.189536,2018-10-12 16:21:50.142763,0:00:03.953227,5,right,0,0.2839723389856772,21,f,1,15,2018_Oct_12_1602,MP_PerceptionTuring2,59.92475883663248,
187,resources/videos_generated\model(vcgpdm)-dataset(walking)-mode(ELBO)-parts(2)-dyn(23)-lvm(18)_final(5).mov,resources/videos_natural\training(28).mov,False,False,right,0,186,186,186,2018-10-12 16:21:51.543843,2018-10-12 16:21:55.614076,0:00:04.070233,5,right,1,0.25031194085204334,21,f,1,15,2018_Oct_12_1602,MP_PerceptionTuring2,59.92475883663248,
188,resources/videos_generated\model(vcgpdm)-dataset(walking)-mode(ELBO)-parts(1)-dyn(22)-lvm(27)_final(8)_fail.mov,resources/videos_natural\training(0).mov,False,False,right,0,187,187,187,2018-10-12 16:21:56.982154,2018-10-12 16:22:00.902378,0:00:03.920224,5,right,1,0.46733181923195843,21,f,1,15,2018_Oct_12_1602,MP_PerceptionTuring2,59.92475883663248,
189,resources/videos_generated\model(vcgpdm)-dataset(walking)-mode(ELBO)-parts(2)-dyn(24)-lvm(21)_final(1).mov,resources/videos_natural\training(44).mov,True,True,left,0,188,188,188,2018-10-12 16:22:02.486469,2018-10-12 16:22:06.406693,0:00:03.920224,5,left,1,0.46729477484382187,21,f,1,15,2018_Oct_12_1602,MP_PerceptionTuring2,59.92475883663248,
190,resources/videos_generated\model(vcgpdm)-dataset(walking)-mode(ELBO)-parts(1)-dyn(22)-lvm(23)_final(4)_fail.mov,resources/videos_natural\training(13).mov,False,False,right,0,189,189,189,2018-10-12 16:22:07.991784,2018-10-12 16:22:12.095018,0:00:04.103234,5,right,1,0.31730265054102347,21,f,1,15,2018_Oct_12_1602,MP_PerceptionTuring2,59.92475883663248,
191,resources/videos_generated\model(tmp)-dataset(walking)-numprim(13)_final(0).mov,resources/videos_natural\training(10).mov,True,True,left,0,190,190,190,2018-10-12 16:22:13.529100,2018-10-12 16:22:17.466325,0:00:03.937225,5,left,1,0.3004739573434563,21,f,1,15,2018_Oct_12_1602,MP_PerceptionTuring2,59.92475883663248,
192,resources/videos_generated\model(vcgpdm)-dataset(walking)-mode(ELBO)-parts(2)-dyn(27)-lvm(22)_final(7).mov,resources/videos_natural\training(46).mov,True,False,right,0,191,191,191,2018-10-12 16:22:18.884407,2018-10-12 16:22:22.837633,0:00:03.953226,5,right,1,0.28384735182316945,21,f,1,15,2018_Oct_12_1602,MP_PerceptionTuring2,59.92475883663248,
193,resources/videos_generated\model(dmp)-dataset(walking)-npsi(50)_final(8).mov,resources/videos_natural\training(5).mov,False,True,left,0,192,192,192,2018-10-12 16:22:24.238713,2018-10-12 16:22:28.175938,0:00:03.937225,5,right,0,0.8342537709229418,21,f,1,15,2018_Oct_12_1602,MP_PerceptionTuring2,59.92475883663248,
194,resources/videos_generated\model(vcgpdm)-dataset(walking)-mode(ELBO)-parts(2)-dyn(25)-lvm(18)_final(5).mov,resources/videos_natural\training(10).mov,True,False,right,0,193,193,193,2018-10-12 16:22:30.127050,2018-10-12 16:22:34.047274,0:00:03.920224,5,right,1,0.3005359991639125,21,f,1,15,2018_Oct_12_1602,MP_PerceptionTuring2,59.92475883663248,
195,resources/videos_generated\model(vcgpdm)-dataset(walking)-mode(ELBO)-parts(2)-dyn(23)-lvm(22)_final(7).mov,resources/videos_natural\training(12).mov,False,False,right,0,194,194,194,2018-10-12 16:22:35.465355,2018-10-12 16:22:39.435582,0:00:03.970227,5,right,1,0.5006636366565544,21,f,1,15,2018_Oct_12_1602,MP_PerceptionTuring2,59.92475883663248,
196,resources/videos_generated\model(vcgpdm)-dataset(walking)-mode(ELBO)-parts(2)-dyn(27)-lvm(18)_final(7).mov,resources/videos_natural\training(39).mov,True,False,right,0,195,195,195,2018-10-12 16:22:41.053675,2018-10-12 16:22:45.039903,0:00:03.986228,5,right,1,0.3004664279962981,21,f,1,15,2018_Oct_12_1602,MP_PerceptionTuring2,59.92475883663248,
197,resources/videos_generated\model(vcgpdm)-dataset(walking)-mode(ELBO)-parts(1)-dyn(25)-lvm(25)_final(2).mov,resources/videos_natural\training(13).mov,True,False,right,0,196,196,196,2018-10-12 16:22:46.457984,2018-10-12 16:22:50.545217,0:00:04.087233,5,right,1,0.3504618953293175,21,f,1,15,2018_Oct_12_1602,MP_PerceptionTuring2,59.92475883663248,
198,resources/videos_generated\model(vcgpdm)-dataset(walking)-mode(ELBO)-parts(2)-dyn(26)-lvm(17)_final(3).mov,resources/videos_natural\training(11).mov,True,True,left,0,197,197,197,2018-10-12 16:22:52.012301,2018-10-12 16:22:55.966528,0:00:03.954227,5,left,1,0.41718787317336137,21,f,1,15,2018_Oct_12_1602,MP_PerceptionTuring2,59.92475883663248,
199,resources/videos_generated\model(vcgpdm)-dataset(walking)-mode(ELBO)-parts(2)-dyn(22)-lvm(23)_final(3).mov,resources/videos_natural\training(33).mov,True,True,left,0,198,198,198,2018-10-12 16:22:57.500615,2018-10-12 16:23:01.504844,0:00:04.004229,5,left,1,0.3172156112880202,21,f,1,15,2018_Oct_12_1602,MP_PerceptionTuring2,59.92475883663248,
200,resources/videos_generated\model(tmp)-dataset(walking)-numprim(11)_final(0).mov,resources/videos_natural\training(16).mov,True,False,right,0,199,199,199,2018-10-12 16:23:02.938926,2018-10-12 16:23:06.859151,0:00:03.920225,5,left,0,0.31717947042193373,21,f,1,15,2018_Oct_12_1602,MP_PerceptionTuring2,59.92475883663248,
201,resources/videos_generated\model(vcgpdm)-dataset(walking)-mode(ELBO)-parts(2)-dyn(28)-lvm(21)_final(7).mov,resources/videos_natural\training(35).mov,False,False,right,0,200,200,200,2018-10-12 16:23:08.293233,2018-10-12 16:23:12.380466,0:00:04.087233,5,right,1,1.4682275103671145,21,f,1,15,2018_Oct_12_1602,MP_PerceptionTuring2,59.92475883663248,
202,resources/videos_generated\model(vcgpdm)-dataset(walking)-mode(ELBO)-parts(2)-dyn(26)-lvm(17)_final(5).mov,resources/videos_natural\training(39).mov,False,True,left,0,201,201,201,2018-10-12 16:23:14.965614,2018-10-12 16:23:19.119852,0:00:04.154238,5,right,0,0.6174630858697583,21,f,1,15,2018_Oct_12_1602,MP_PerceptionTuring2,59.92475883663248,
203,resources/videos_generated\model(vcgpdm)-dataset(walking)-mode(ELBO)-parts(1)-dyn(22)-lvm(25)_final(4).mov,resources/videos_natural\training(4).mov,True,False,right,0,202,202,202,2018-10-12 16:23:20.853951,2018-10-12 16:23:24.758174,0:00:03.904223,5,right,1,0.43400572411087524,21,f,1,15,2018_Oct_12_1602,MP_PerceptionTuring2,59.92475883663248,
204,resources/videos_generated\model(vcgpdm)-dataset(walking)-mode(ELBO)-parts(1)-dyn(25)-lvm(24)_final(7).mov,resources/videos_natural\training(8).mov,False,True,left,0,203,203,203,2018-10-12 16:23:26.309263,2018-10-12 16:23:30.229487,0:00:03.920224,5,left,1,0.31713760725187967,21,f,1,15,2018_Oct_12_1602,MP_PerceptionTuring2,59.92475883663248,
205,resources/videos_generated\model(vcgpdm)-dataset(walking)-mode(ELBO)-parts(2)-dyn(25)-lvm(20)_final(7).mov,resources/videos_natural\training(38).mov,False,True,left,0,204,204,204,2018-10-12 16:23:31.663569,2018-10-12 16:23:35.600794,0:00:03.937225,5,left,1,0.5507069906375364,21,f,1,15,2018_Oct_12_1602,MP_PerceptionTuring2,59.92475883663248,
206,resources/videos_generated\model(vcgpdm)-dataset(walking)-mode(ELBO)-parts(1)-dyn(26)-lvm(27)_final(9).mov,resources/videos_natural\training(28).mov,True,True,left,0,205,205,205,2018-10-12 16:23:37.268890,2018-10-12 16:23:41.155112,0:00:03.886222,5,left,1,1.368130562493434,21,f,1,15,2018_Oct_12_1602,MP_PerceptionTuring2,59.92475883663248,
207,resources/videos_generated\model(tmp)-dataset(walking)-numprim(13)_final(8).mov,resources/videos_natural\training(4).mov,True,True,left,0,206,206,206,2018-10-12 16:23:43.640254,2018-10-12 16:23:47.610481,0:00:03.970227,5,left,1,0.30052726512144545,21,f,1,15,2018_Oct_12_1602,MP_PerceptionTuring2,59.92475883663248,
208,resources/videos_generated\model(vcgpdm)-dataset(walking)-mode(ELBO)-parts(1)-dyn(26)-lvm(23)_final(9).mov,resources/videos_natural\training(12).mov,False,False,right,0,207,207,207,2018-10-12 16:23:49.028562,2018-10-12 16:23:52.965788,0:00:03.937226,5,right,1,0.3170809865614501,21,f,1,15,2018_Oct_12_1602,MP_PerceptionTuring2,59.92475883663248,
209,resources/videos_generated\model(vcgpdm)-dataset(walking)-mode(ELBO)-parts(2)-dyn(28)-lvm(21)_final(9).mov,resources/videos_natural\training(26).mov,False,False,right,0,208,208,208,2018-10-12 16:23:54.399870,2018-10-12 16:23:58.353096,0:00:03.953226,5,right,1,0.30053389094678096,21,f,1,15,2018_Oct_12_1602,MP_PerceptionTuring2,59.92475883663248,
210,resources/videos_generated\model(vcgpdm)-dataset(walking)-mode(ELBO)-parts(2)-dyn(22)-lvm(19)_final(9).mov,resources/videos_natural\training(21).mov,False,True,left,0,209,209,209,2018-10-12 16:23:59.771177,2018-10-12 16:24:03.691401,0:00:03.920224,5,left,1,0.30043390121682023,21,f,1,15,2018_Oct_12_1602,MP_PerceptionTuring2,59.92475883663248,
211,resources/videos_generated\model(vcgpdm)-dataset(walking)-mode(ELBO)-parts(2)-dyn(22)-lvm(23)_final(1).mov,resources/videos_natural\training(40).mov,True,True,left,0,210,210,210,2018-10-12 16:24:05.109482,2018-10-12 16:24:09.045707,0:00:03.936225,5,left,1,0.4673664542287952,21,f,1,15,2018_Oct_12_1602,MP_PerceptionTuring2,59.92475883663248,
212,resources/videos_generated\model(vcgpdm)-dataset(walking)-mode(ELBO)-parts(2)-dyn(24)-lvm(17)_final(5).mov,resources/videos_natural\training(29).mov,False,True,left,0,211,211,211,2018-10-12 16:24:10.630798,2018-10-12 16:24:14.551022,0:00:03.920224,5,right,0,0.35047303876308433,21,f,1,15,2018_Oct_12_1602,MP_PerceptionTuring2,59.92475883663248,
213,resources/videos_generated\model(vcgpdm)-dataset(walking)-mode(ELBO)-parts(2)-dyn(26)-lvm(23)_final(3).mov,resources/videos_natural\training(15).mov,False,True,left,0,212,212,212,2018-10-12 16:24:16.019106,2018-10-12 16:24:20.089339,0:00:04.070233,5,left,1,0.33375999633767606,21,f,1,15,2018_Oct_12_1602,MP_PerceptionTuring2,59.92475883663248,
214,resources/videos_generated\model(vcgpdm)-dataset(walking)-mode(ELBO)-parts(1)-dyn(27)-lvm(26)_final(9).mov,resources/videos_natural\training(46).mov,True,False,right,0,213,213,213,2018-10-12 16:24:21.540422,2018-10-12 16:24:25.443645,0:00:03.903223,5,right,1,0.6008129887864015,21,f,1,15,2018_Oct_12_1602,MP_PerceptionTuring2,59.92475883663248,
215,resources/videos_generated\model(vcgpdm)-dataset(walking)-mode(ELBO)-parts(1)-dyn(27)-lvm(22)_final(9).mov,resources/videos_natural\training(39).mov,True,True,left,0,214,214,214,2018-10-12 16:24:27.161744,2018-10-12 16:24:31.064967,0:00:03.903223,5,right,0,0.383729863890494,21,f,1,15,2018_Oct_12_1602,MP_PerceptionTuring2,59.92475883663248,
216,resources/videos_generated\model(vcgpdm)-dataset(walking)-mode(ELBO)-parts(2)-dyn(26)-lvm(19)_final(5).mov,resources/videos_natural\training(0).mov,False,False,right,0,215,215,215,2018-10-12 16:24:32.566053,2018-10-12 16:24:36.553281,0:00:03.987228,5,right,1,0.26719424300108585,21,f,1,15,2018_Oct_12_1602,MP_PerceptionTuring2,59.92475883663248,
217,resources/videos_generated\model(tmp)-dataset(walking)-numprim(14)_final(0).mov,resources/videos_natural\training(3).mov,True,False,right,0,216,216,216,2018-10-12 16:24:37.937360,2018-10-12 16:24:41.957590,0:00:04.020230,5,left,0,0.26702076684296117,21,f,1,15,2018_Oct_12_1602,MP_PerceptionTuring2,59.92475883663248,
218,resources/videos_generated\model(vcgpdm)-dataset(walking)-mode(ELBO)-parts(1)-dyn(25)-lvm(26)_final(2).mov,resources/videos_natural\training(38).mov,True,True,left,0,217,217,217,2018-10-12 16:24:43.342669,2018-10-12 16:24:47.495907,0:00:04.153238,5,right,0,0.4006383681676198,21,f,1,15,2018_Oct_12_1602,MP_PerceptionTuring2,59.92475883663248,
219,resources/videos_generated\model(vcgpdm)-dataset(walking)-mode(ELBO)-parts(1)-dyn(28)-lvm(23)_final(1).mov,resources/videos_natural\training(30).mov,True,False,right,0,218,218,218,2018-10-12 16:24:49.013993,2018-10-12 16:24:52.984221,0:00:03.970228,5,right,1,0.3338946210647009,21,f,1,15,2018_Oct_12_1602,MP_PerceptionTuring2,59.92475883663248,
220,resources/videos_generated\model(dmp)-dataset(walking)-npsi(60)_final(0).mov,resources/videos_natural\training(40).mov,True,False,right,0,219,219,219,2018-10-12 16:24:54.435304,2018-10-12 16:24:58.522537,0:00:04.087233,5,left,0,0.8676051646502856,21,f,1,15,2018_Oct_12_1602,MP_PerceptionTuring2,59.92475883663248,
221,resources/videos_generated\model(vcgpdm)-dataset(walking)-mode(ELBO)-parts(2)-dyn(28)-lvm(21)_final(3).mov,resources/videos_natural\training(5).mov,True,True,left,0,220,220,220,2018-10-12 16:25:00.507651,2018-10-12 16:25:04.476878,0:00:03.969227,5,left,1,0.30050256886261195,21,f,1,15,2018_Oct_12_1602,MP_PerceptionTuring2,59.92475883663248,
222,resources/videos_generated\model(vcgpdm)-dataset(walking)-mode(ELBO)-parts(1)-dyn(22)-lvm(22)_final(8).mov,resources/videos_natural\training(43).mov,False,True,left,0,221,221,221,2018-10-12 16:25:05.894959,2018-10-12 16:25:09.999194,0:00:04.104235,5,left,1,0.41724840912434047,21,f,1,15,2018_Oct_12_1602,MP_PerceptionTuring2,59.92475883663248,
223,resources/videos_generated\model(vcgpdm)-dataset(walking)-mode(ELBO)-parts(1)-dyn(24)-lvm(23)_final(2).mov,resources/videos_natural\training(28).mov,True,False,right,0,222,222,222,2018-10-12 16:25:11.533281,2018-10-12 16:25:15.553511,0:00:04.020230,5,right,1,0.584014714151408,21,f,1,15,2018_Oct_12_1602,MP_PerceptionTuring2,59.92475883663248,
224,resources/videos_generated\model(vcgpdm)-dataset(walking)-mode(ELBO)-parts(2)-dyn(24)-lvm(23)_final(3).mov,resources/videos_natural\training(7).mov,False,True,left,0,223,223,223,2018-10-12 16:25:17.254609,2018-10-12 16:25:21.325842,0:00:04.071233,5,left,1,0.45054227863943197,21,f,1,15,2018_Oct_12_1602,MP_PerceptionTuring2,59.92475883663248,
225,resources/videos_generated\model(vcgpdm)-dataset(walking)-mode(ELBO)-parts(1)-dyn(26)-lvm(23)_final(5).mov,resources/videos_natural\training(19).mov,False,False,right,0,224,224,224,2018-10-12 16:25:22.892931,2018-10-12 16:25:27.047169,0:00:04.154238,5,right,1,0.3671866835363744,21,f,1,15,2018_Oct_12_1602,MP_PerceptionTuring2,59.92475883663248,
226,resources/videos_generated\model(vcgpdm)-dataset(walking)-mode(ELBO)-parts(2)-dyn(22)-lvm(17)_final(5).mov,resources/videos_natural\training(6).mov,False,True,left,0,225,225,225,2018-10-12 16:25:59.858046,2018-10-12 16:26:03.778270,0:00:03.920224,6,left,1,0.28384042482389304,21,f,1,15,2018_Oct_12_1602,MP_PerceptionTuring2,59.92475883663248,
227,resources/videos_generated\model(vcgpdm)-dataset(walking)-mode(ELBO)-parts(2)-dyn(22)-lvm(19)_final(7).mov,resources/videos_natural\training(11).mov,True,False,right,0,226,226,226,2018-10-12 16:26:05.179350,2018-10-12 16:26:09.250583,0:00:04.071233,6,right,1,0.05036711590764753,21,f,1,15,2018_Oct_12_1602,MP_PerceptionTuring2,59.92475883663248,
228,resources/videos_generated\model(vcgpdm)-dataset(walking)-mode(ELBO)-parts(2)-dyn(27)-lvm(20)_final(1).mov,resources/videos_natural\training(7).mov,True,True,left,0,227,227,227,2018-10-12 16:26:10.417649,2018-10-12 16:26:14.370876,0:00:03.953227,6,left,1,0.3339370865824094,21,f,1,15,2018_Oct_12_1602,MP_PerceptionTuring2,59.92475883663248,
229,resources/videos_generated\model(vcgpdm)-dataset(walking)-mode(ELBO)-parts(1)-dyn(27)-lvm(22)_final(3).mov,resources/videos_natural\training(34).mov,True,False,right,0,228,228,228,2018-10-12 16:26:15.821959,2018-10-12 16:26:19.876190,0:00:04.054231,6,right,1,0.31722555002625086,21,f,1,15,2018_Oct_12_1602,MP_PerceptionTuring2,59.92475883663248,
230,resources/videos_generated\model(vcgpdm)-dataset(walking)-mode(ELBO)-parts(2)-dyn(25)-lvm(18)_final(7).mov,resources/videos_natural\training(23).mov,False,True,left,0,229,229,229,2018-10-12 16:26:21.310273,2018-10-12 16:26:25.230497,0:00:03.920224,6,left,1,0.30049443716779933,21,f,1,15,2018_Oct_12_1602,MP_PerceptionTuring2,59.92475883663248,
231,resources/videos_generated\model(vcgpdm)-dataset(walking)-mode(ELBO)-parts(2)-dyn(26)-lvm(21)_final(1).mov,resources/videos_natural\training(30).mov,True,False,right,0,230,230,230,2018-10-12 16:26:26.648578,2018-10-12 16:26:30.685809,0:00:04.037231,6,right,1,0.3673761219104108,21,f,1,15,2018_Oct_12_1602,MP_PerceptionTuring2,59.92475883663248,
232,resources/videos_generated\model(vcgpdm)-dataset(walking)-mode(ELBO)-parts(2)-dyn(23)-lvm(22)_final(9).mov,resources/videos_natural\training(20).mov,False,False,right,0,231,231,231,2018-10-12 16:26:32.169894,2018-10-12 16:26:36.107119,0:00:03.937225,6,right,1,0.3506395879219326,21,f,1,15,2018_Oct_12_1602,MP_PerceptionTuring2,59.92475883663248,
233,resources/videos_generated\model(vcgpdm)-dataset(walking)-mode(ELBO)-parts(1)-dyn(25)-lvm(28)_final(0).mov,resources/videos_natural\training(31).mov,True,False,right,0,232,232,232,2018-10-12 16:26:37.574203,2018-10-12 16:26:41.527429,0:00:03.953226,6,right,1,0.33397714270904544,21,f,1,15,2018_Oct_12_1602,MP_PerceptionTuring2,59.92475883663248,
234,resources/videos_generated\model(dmp)-dataset(walking)-npsi(80)_final(2).mov,resources/videos_natural\training(7).mov,False,True,left,0,233,233,233,2018-10-12 16:26:42.979512,2018-10-12 16:26:46.932738,0:00:03.953226,6,right,0,0.35059772475187856,21,f,1,15,2018_Oct_12_1602,MP_PerceptionTuring2,59.92475883663248,
235,resources/videos_generated\model(vcgpdm)-dataset(walking)-mode(ELBO)-parts(2)-dyn(27)-lvm(20)_final(5).mov,resources/videos_natural\training(10).mov,False,False,right,0,234,234,234,2018-10-12 16:26:48.400822,2018-10-12 16:26:52.504057,0:00:04.103235,6,right,1,0.45054769976945863,21,f,1,15,2018_Oct_12_1602,MP_PerceptionTuring2,59.92475883663248,
236,resources/videos_generated\model(dmp)-dataset(walking)-npsi(80)_final(6).mov,resources/videos_natural\training(8).mov,False,True,left,0,235,235,235,2018-10-12 16:26:54.072146,2018-10-12 16:26:57.975370,0:00:03.903224,6,right,0,1.0511570950091027,21,f,1,15,2018_Oct_12_1602,MP_PerceptionTuring2,59.92475883663248,
237,resources/videos_generated\model(vcgpdm)-dataset(walking)-mode(ELBO)-parts(2)-dyn(26)-lvm(21)_final(5).mov,resources/videos_natural\training(39).mov,True,True,left,0,236,236,236,2018-10-12 16:27:00.143494,2018-10-12 16:27:04.247728,0:00:04.104234,6,left,1,0.40061909303881293,21,f,1,15,2018_Oct_12_1602,MP_PerceptionTuring2,59.92475883663248,
238,resources/videos_generated\model(vcgpdm)-dataset(walking)-mode(ELBO)-parts(2)-dyn(26)-lvm(17)_final(9).mov,resources/videos_natural\training(1).mov,True,False,right,0,237,237,237,2018-10-12 16:27:05.765815,2018-10-12 16:27:09.719041,0:00:03.953226,6,right,1,0.26714213991886027,21,f,1,15,2018_Oct_12_1602,MP_PerceptionTuring2,59.92475883663248,
239,resources/videos_generated\model(vcgpdm)-dataset(walking)-mode(ELBO)-parts(1)-dyn(22)-lvm(27)_final(6)_fail.mov,resources/videos_natural\training(16).mov,False,True,left,0,238,238,238,2018-10-12 16:27:11.103120,2018-10-12 16:27:15.057347,0:00:03.954227,6,left,1,0.4174188735435109,21,f,1,15,2018_Oct_12_1602,MP_PerceptionTuring2,59.92475883663248,
240,resources/videos_generated\model(tmp)-dataset(walking)-numprim(14)_final(8).mov,resources/videos_natural\training(48).mov,True,False,right,0,239,239,239,2018-10-12 16:27:16.591434,2018-10-12 16:27:20.478657,0:00:03.887223,6,left,0,0.23378803562627581,21,f,1,15,2018_Oct_12_1602,MP_PerceptionTuring2,59.92475883663248,
241,resources/videos_generated\model(vcgpdm)-dataset(walking)-mode(ELBO)-parts(2)-dyn(27)-lvm(22)_final(1).mov,resources/videos_natural\training(18).mov,True,False,right,0,240,240,240,2018-10-12 16:27:21.829734,2018-10-12 16:27:25.749958,0:00:03.920224,6,right,1,0.45066214584585396,21,f,1,15,2018_Oct_12_1602,MP_PerceptionTuring2,59.92475883663248,
242,resources/videos_generated\model(vcgpdm)-dataset(walking)-mode(ELBO)-parts(1)-dyn(25)-lvm(26)_final(6)_fail.mov,resources/videos_natural\training(33).mov,True,True,left,0,241,241,241,2018-10-12 16:27:27.317048,2018-10-12 16:27:31.421283,0:00:04.104235,6,left,1,0.55068380024818,21,f,1,15,2018_Oct_12_1602,MP_PerceptionTuring2,59.92475883663248,
243,resources/videos_generated\model(vcgpdm)-dataset(walking)-mode(ELBO)-parts(2)-dyn(27)-lvm(20)_final(9).mov,resources/videos_natural\training(32).mov,False,True,left,0,242,242,242,2018-10-12 16:27:33.089378,2018-10-12 16:27:36.992601,0:00:03.903223,6,right,0,0.4506654587585217,21,f,1,15,2018_Oct_12_1602,MP_PerceptionTuring2,59.92475883663248,
244,resources/videos_generated\model(dmp)-dataset(walking)-npsi(70)_final(8).mov,resources/videos_natural\training(24).mov,False,True,left,0,243,243,243,2018-10-12 16:27:38.560691,2018-10-12 16:27:42.480915,0:00:03.920224,6,left,1,0.3671713236683445,21,f,1,15,2018_Oct_12_1602,MP_PerceptionTuring2,59.92475883663248,
245,resources/videos_generated\model(vcgpdm)-dataset(walking)-mode(ELBO)-parts(1)-dyn(28)-lvm(27)_final(1).mov,resources/videos_natural\training(28).mov,False,False,right,0,244,244,244,2018-10-12 16:27:43.965000,2018-10-12 16:27:47.885224,0:00:03.920224,6,right,1,0.2838178367826458,21,f,1,15,2018_Oct_12_1602,MP_PerceptionTuring2,59.92475883663248,
246,resources/videos_generated\model(dmp)-dataset(walking)-npsi(50)_final(2).mov,resources/videos_natural\training(12).mov,True,False,right,0,245,245,245,2018-10-12 16:27:49.286304,2018-10-12 16:27:53.223530,0:00:03.937226,6,left,0,0.3005103993834837,21,f,1,15,2018_Oct_12_1602,MP_PerceptionTuring2,59.92475883663248,
247,resources/videos_generated\model(vcgpdm)-dataset(walking)-mode(ELBO)-parts(1)-dyn(27)-lvm(24)_final(5).mov,resources/videos_natural\training(35).mov,True,True,left,0,246,246,246,2018-10-12 16:27:54.640611,2018-10-12 16:27:58.594837,0:00:03.954226,6,left,1,0.5173293947821094,21,f,1,15,2018_Oct_12_1602,MP_PerceptionTuring2,59.92475883663248,
248,resources/videos_generated\model(vcgpdm)-dataset(walking)-mode(ELBO)-parts(1)-dyn(27)-lvm(22)_final(7).mov,resources/videos_natural\training(7).mov,False,True,left,0,247,247,247,2018-10-12 16:28:00.228930,2018-10-12 16:28:04.149155,0:00:03.920225,6,left,1,0.30065466167479826,21,f,1,15,2018_Oct_12_1602,MP_PerceptionTuring2,59.92475883663248,
249,resources/videos_generated\model(vcgpdm)-dataset(walking)-mode(ELBO)-parts(1)-dyn(28)-lvm(25)_final(1).mov,resources/videos_natural\training(25).mov,True,True,left,0,248,248,248,2018-10-12 16:28:05.567236,2018-10-12 16:28:09.604467,0:00:04.037231,6,left,1,1.0845642059052807,21,f,1,15,2018_Oct_12_1602,MP_PerceptionTuring2,59.92475883663248,
250,resources/videos_generated\model(vcgpdm)-dataset(walking)-mode(ELBO)-parts(1)-dyn(22)-lvm(23)_final(6)_fail.mov,resources/videos_natural\training(19).mov,False,True,left,0,249,249,249,2018-10-12 16:28:11.805592,2018-10-12 16:28:15.725817,0:00:03.920225,6,left,1,0.5172486801807281,21,f,1,15,2018_Oct_12_1602,MP_PerceptionTuring2,59.92475883663248,
251,resources/videos_generated\model(vcgpdm)-dataset(walking)-mode(ELBO)-parts(1)-dyn(27)-lvm(26)_final(7).mov,resources/videos_natural\training(30).mov,True,False,right,0,250,250,250,2018-10-12 16:28:17.360910,2018-10-12 16:28:21.464145,0:00:04.103235,6,right,1,0.41732340142175417,21,f,1,15,2018_Oct_12_1602,MP_PerceptionTuring2,59.92475883663248,
252,resources/videos_generated\model(tmp)-dataset(walking)-numprim(12)_final(4).mov,resources/videos_natural\training(27).mov,True,True,left,0,251,251,251,2018-10-12 16:28:22.999233,2018-10-12 16:28:26.985461,0:00:03.986228,6,left,1,2.168768207843641,21,f,1,15,2018_Oct_12_1602,MP_PerceptionTuring2,59.92475883663248,
253,resources/videos_generated\model(vcgpdm)-dataset(walking)-mode(ELBO)-parts(1)-dyn(22)-lvm(28)_final(7).mov,resources/videos_natural\training(34).mov,False,True,left,0,252,252,252,2018-10-12 16:28:30.271649,2018-10-12 16:28:34.358882,0:00:04.087233,6,right,0,0.350654646616249,21,f,1,15,2018_Oct_12_1602,MP_PerceptionTuring2,59.92475883663248,
254,resources/videos_generated\model(vcgpdm)-dataset(walking)-mode(ELBO)-parts(2)-dyn(25)-lvm(22)_final(1).mov,resources/videos_natural\training(41).mov,False,False,right,0,253,253,253,2018-10-12 16:28:35.826966,2018-10-12 16:28:39.747191,0:00:03.920225,6,right,1,0.35058868953524325,21,f,1,15,2018_Oct_12_1602,MP_PerceptionTuring2,59.92475883663248,
255,resources/videos_generated\model(vcgpdm)-dataset(walking)-mode(ELBO)-parts(1)-dyn(26)-lvm(25)_final(5).mov,resources/videos_natural\training(14).mov,True,True,left,0,254,254,254,2018-10-12 16:28:41.214275,2018-10-12 16:28:45.101497,0:00:03.887222,6,left,1,0.48382681176417464,21,f,1,15,2018_Oct_12_1602,MP_PerceptionTuring2,59.92475883663248,
256,resources/videos_generated\model(vcgpdm)-dataset(walking)-mode(ELBO)-parts(2)-dyn(25)-lvm(18)_final(3).mov,resources/videos_natural\training(13).mov,False,False,right,0,255,255,255,2018-10-12 16:28:46.702588,2018-10-12 16:28:50.639814,0:00:03.937226,6,right,1,0.5007124268261123,21,f,1,15,2018_Oct_12_1602,MP_PerceptionTuring2,59.92475883663248,
257,resources/videos_generated\model(vcgpdm)-dataset(walking)-mode(ELBO)-parts(2)-dyn(26)-lvm(23)_final(1).mov,resources/videos_natural\training(16).mov,False,True,left,0,256,256,256,2018-10-12 16:28:52.257906,2018-10-12 16:28:56.311138,0:00:04.053232,6,right,0,0.4338159845631253,21,f,1,15,2018_Oct_12_1602,MP_PerceptionTuring2,59.92475883663248,
258,resources/videos_generated\model(vcgpdm)-dataset(walking)-mode(ELBO)-parts(2)-dyn(24)-lvm(21)_final(3).mov,resources/videos_natural\training(42).mov,False,False,right,0,257,257,257,2018-10-12 16:28:57.862227,2018-10-12 16:29:01.949461,0:00:04.087234,6,right,1,0.3339154020627575,21,f,1,15,2018_Oct_12_1602,MP_PerceptionTuring2,59.92475883663248,
259,resources/videos_generated\model(vcgpdm)-dataset(walking)-mode(ELBO)-parts(2)-dyn(25)-lvm(22)_final(7).mov,resources/videos_natural\training(20).mov,True,True,left,0,258,258,258,2018-10-12 16:29:03.400544,2018-10-12 16:29:07.353770,0:00:03.953226,6,left,1,0.3503893124229762,21,f,1,15,2018_Oct_12_1602,MP_PerceptionTuring2,59.92475883663248,
260,resources/videos_generated\model(vcgpdm)-dataset(walking)-mode(ELBO)-parts(1)-dyn(24)-lvm(27)_final(6).mov,resources/videos_natural\training(21).mov,True,False,right,0,259,259,259,2018-10-12 16:29:08.821854,2018-10-12 16:29:12.725077,0:00:03.903223,6,right,1,0.36746888346715423,21,f,1,15,2018_Oct_12_1602,MP_PerceptionTuring2,59.92475883663248,
261,resources/videos_generated\model(vcgpdm)-dataset(walking)-mode(ELBO)-parts(1)-dyn(22)-lvm(25)_final(2).mov,resources/videos_natural\training(2).mov,False,True,left,0,260,260,260,2018-10-12 16:29:14.210162,2018-10-12 16:29:18.230392,0:00:04.020230,6,left,1,0.35068446283071353,21,f,1,15,2018_Oct_12_1602,MP_PerceptionTuring2,59.92475883663248,
262,resources/videos_generated\model(vcgpdm)-dataset(walking)-mode(ELBO)-parts(1)-dyn(23)-lvm(24)_final(7).mov,resources/videos_natural\training(34).mov,False,True,left,0,261,261,261,2018-10-12 16:29:19.697476,2018-10-12 16:29:23.617700,0:00:03.920224,6,left,1,0.3338395062435211,21,f,1,15,2018_Oct_12_1602,MP_PerceptionTuring2,59.92475883663248,
263,resources/videos_generated\model(vcgpdm)-dataset(walking)-mode(ELBO)-parts(1)-dyn(25)-lvm(28)_final(8).mov,resources/videos_natural\training(31).mov,False,True,left,0,262,262,262,2018-10-12 16:29:25.068783,2018-10-12 16:29:28.989007,0:00:03.920224,6,left,1,0.30046763269206167,21,f,1,15,2018_Oct_12_1602,MP_PerceptionTuring2,59.92475883663248,
264,resources/videos_generated\model(vcgpdm)-dataset(walking)-mode(ELBO)-parts(2)-dyn(25)-lvm(20)_final(1).mov,resources/videos_natural\training(43).mov,False,True,left,0,263,263,263,2018-10-12 16:29:30.407088,2018-10-12 16:29:34.344313,0:00:03.937225,6,left,1,0.28380488630546097,21,f,1,15,2018_Oct_12_1602,MP_PerceptionTuring2,59.92475883663248,
265,resources/videos_generated\model(vcgpdm)-dataset(walking)-mode(ELBO)-parts(1)-dyn(22)-lvm(22)_final(2).mov,resources/videos_natural\training(40).mov,True,False,right,0,264,264,264,2018-10-12 16:29:35.745394,2018-10-12 16:29:39.681619,0:00:03.936225,6,left,0,0.36733365639247495,21,f,1,15,2018_Oct_12_1602,MP_PerceptionTuring2,59.92475883663248,
266,resources/videos_generated\model(vcgpdm)-dataset(walking)-mode(ELBO)-parts(2)-dyn(26)-lvm(17)_final(1).mov,resources/videos_natural\training(48).mov,False,False,right,0,265,265,265,2018-10-12 16:29:41.166704,2018-10-12 16:29:45.102929,0:00:03.936225,6,left,0,0.2838425330410246,21,f,1,15,2018_Oct_12_1602,MP_PerceptionTuring2,59.92475883663248,
267,resources/videos_generated\model(vcgpdm)-dataset(walking)-mode(ELBO)-parts(1)-dyn(24)-lvm(27)_final(0).mov,resources/videos_natural\training(27).mov,True,False,right,0,266,266,266,2018-10-12 16:29:46.504009,2018-10-12 16:29:50.408232,0:00:03.904223,6,right,1,0.3338669130669132,21,f,1,15,2018_Oct_12_1602,MP_PerceptionTuring2,59.92475883663248,
268,resources/videos_generated\model(vcgpdm)-dataset(walking)-mode(ELBO)-parts(1)-dyn(23)-lvm(28)_final(8).mov,resources/videos_natural\training(33).mov,True,False,right,0,267,267,267,2018-10-12 16:29:51.859315,2018-10-12 16:29:55.829542,0:00:03.970227,6,right,1,0.6174314626118758,21,f,1,15,2018_Oct_12_1602,MP_PerceptionTuring2,59.92475883663248,
269,resources/videos_generated\model(tmp)-dataset(walking)-numprim(12)_final(6).mov,resources/videos_natural\training(47).mov,False,False,right,0,268,268,268,2018-10-12 16:29:57.563641,2018-10-12 16:30:01.533869,0:00:03.970228,6,right,1,0.35051791367232,21,f,1,15,2018_Oct_12_1602,MP_PerceptionTuring2,59.92475883663248,
270,resources/videos_generated\model(vcgpdm)-dataset(walking)-mode(ELBO)-parts(1)-dyn(28)-lvm(25)_final(9).mov,resources/videos_natural\training(27).mov,True,True,left,0,269,269,269,2018-10-12 16:30:03.001953,2018-10-12 16:30:07.105187,0:00:04.103234,6,right,0,0.667463070811209,21,f,1,15,2018_Oct_12_1602,MP_PerceptionTuring2,59.92475883663248,
271,resources/videos_generated\model(vcgpdm)-dataset(walking)-mode(ELBO)-parts(1)-dyn(27)-lvm(22)_final(5).mov,resources/videos_natural\training(33).mov,True,True,left,0,270,270,270,2018-10-12 16:30:41.568158,2018-10-12 16:30:45.622390,0:00:04.054232,7,left,1,0.30059141515880583,21,f,1,15,2018_Oct_12_1602,MP_PerceptionTuring2,59.92475883663248,
272,resources/videos_generated\model(vcgpdm)-dataset(walking)-mode(ELBO)-parts(2)-dyn(23)-lvm(20)_final(7).mov,resources/videos_natural\training(9).mov,True,True,left,0,271,271,271,2018-10-12 16:30:47.040471,2018-10-12 16:30:50.943695,0:00:03.903224,7,left,1,0.31730957754052724,21,f,1,15,2018_Oct_12_1602,MP_PerceptionTuring2,59.92475883663248,
273,resources/videos_generated\model(vcgpdm)-dataset(walking)-mode(ELBO)-parts(2)-dyn(23)-lvm(20)_final(5).mov,resources/videos_natural\training(37).mov,False,False,right,0,272,272,272,2018-10-12 16:30:52.377777,2018-10-12 16:30:56.415008,0:00:04.037231,7,right,1,0.3507684903449899,21,f,1,15,2018_Oct_12_1602,MP_PerceptionTuring2,59.92475883663248,
274,resources/videos_generated\model(vcgpdm)-dataset(walking)-mode(ELBO)-parts(2)-dyn(23)-lvm(18)_final(9).mov,resources/videos_natural\training(15).mov,True,True,left,0,273,273,273,2018-10-12 16:30:57.883092,2018-10-12 16:31:01.803316,0:00:03.920224,7,left,1,0.5339535909113238,21,f,1,15,2018_Oct_12_1602,MP_PerceptionTuring2,59.92475883663248,
275,resources/videos_generated\model(vcgpdm)-dataset(walking)-mode(ELBO)-parts(1)-dyn(23)-lvm(24)_final(5).mov,resources/videos_natural\training(23).mov,False,True,left,0,274,274,274,2018-10-12 16:31:03.454410,2018-10-12 16:31:07.574646,0:00:04.120236,7,left,1,0.33392473845287896,21,f,1,15,2018_Oct_12_1602,MP_PerceptionTuring2,59.92475883663248,
276,resources/videos_generated\model(vcgpdm)-dataset(walking)-mode(ELBO)-parts(2)-dyn(24)-lvm(21)_final(9).mov,resources/videos_natural\training(35).mov,False,True,left,0,275,275,275,2018-10-12 16:31:09.025729,2018-10-12 16:31:13.095962,0:00:04.070233,7,left,1,0.35055857214661046,21,f,1,15,2018_Oct_12_1602,MP_PerceptionTuring2,59.92475883663248,
277,resources/videos_generated\model(vcgpdm)-dataset(walking)-mode(ELBO)-parts(1)-dyn(28)-lvm(27)_final(5).mov,resources/videos_natural\training(4).mov,True,False,right,0,276,276,276,2018-10-12 16:31:14.564046,2018-10-12 16:31:18.517272,0:00:03.953226,7,left,0,0.8675855883475379,21,f,1,15,2018_Oct_12_1602,MP_PerceptionTuring2,59.92475883663248,
278,resources/videos_generated\model(vcgpdm)-dataset(walking)-mode(ELBO)-parts(2)-dyn(28)-lvm(19)_final(9).mov,resources/videos_natural\training(0).mov,True,False,right,0,277,277,277,2018-10-12 16:31:20.502385,2018-10-12 16:31:24.605620,0:00:04.103235,7,left,0,0.4339207930752309,21,f,1,15,2018_Oct_12_1602,MP_PerceptionTuring2,59.92475883663248,
279,resources/videos_generated\model(vcgpdm)-dataset(walking)-mode(ELBO)-parts(2)-dyn(22)-lvm(19)_final(5).mov,resources/videos_natural\training(0).mov,True,False,right,0,278,278,278,2018-10-12 16:31:26.157709,2018-10-12 16:31:30.260943,0:00:04.103234,7,right,1,0.3004540798672224,21,f,1,15,2018_Oct_12_1602,MP_PerceptionTuring2,59.92475883663248,
280,resources/videos_generated\model(tmp)-dataset(walking)-numprim(13)_final(4).mov,resources/videos_natural\training(14).mov,True,True,left,0,279,279,279,2018-10-12 16:31:31.679025,2018-10-12 16:31:35.649252,0:00:03.970227,7,left,1,0.2839590873347788,21,f,1,15,2018_Oct_12_1602,MP_PerceptionTuring2,59.92475883663248,
281,resources/videos_generated\model(vcgpdm)-dataset(walking)-mode(ELBO)-parts(1)-dyn(23)-lvm(24)_final(9).mov,resources/videos_natural\training(5).mov,True,False,right,0,280,280,280,2018-10-12 16:31:37.050332,2018-10-12 16:31:41.103564,0:00:04.053232,7,right,1,0.40064589751477797,21,f,1,15,2018_Oct_12_1602,MP_PerceptionTuring2,59.92475883663248,
282,resources/videos_generated\model(vcgpdm)-dataset(walking)-mode(ELBO)-parts(1)-dyn(22)-lvm(22)_final(0).mov,resources/videos_natural\training(34).mov,False,True,left,0,281,281,281,2018-10-12 16:31:42.621650,2018-10-12 16:31:46.591878,0:00:03.970228,7,left,1,0.5006943563928417,21,f,1,15,2018_Oct_12_1602,MP_PerceptionTuring2,59.92475883663248,
283,resources/videos_generated\model(vcgpdm)-dataset(walking)-mode(ELBO)-parts(2)-dyn(27)-lvm(18)_final(1).mov,resources/videos_natural\training(17).mov,False,True,left,0,282,282,282,2018-10-12 16:31:48.209970,2018-10-12 16:31:52.163196,0:00:03.953226,7,left,1,0.3005140134703197,21,f,1,15,2018_Oct_12_1602,MP_PerceptionTuring2,59.92475883663248,
284,resources/videos_generated\model(tmp)-dataset(walking)-numprim(12)_final(0).mov,resources/videos_natural\training(31).mov,False,False,right,0,283,283,283,2018-10-12 16:31:53.581277,2018-10-12 16:31:57.667511,0:00:04.086234,7,right,1,0.3171945291162501,21,f,1,15,2018_Oct_12_1602,MP_PerceptionTuring2,59.92475883663248,
285,resources/videos_generated\model(vcgpdm)-dataset(walking)-mode(ELBO)-parts(2)-dyn(25)-lvm(22)_final(5).mov,resources/videos_natural\training(22).mov,False,False,right,0,284,284,284,2018-10-12 16:31:59.102593,2018-10-12 16:32:03.038818,0:00:03.936225,7,right,1,0.3671963211008915,21,f,1,15,2018_Oct_12_1602,MP_PerceptionTuring2,59.92475883663248,
286,resources/videos_generated\model(vcgpdm)-dataset(walking)-mode(ELBO)-parts(1)-dyn(24)-lvm(25)_final(0).mov,resources/videos_natural\training(47).mov,False,False,right,0,285,285,285,2018-10-12 16:32:04.523903,2018-10-12 16:32:08.560134,0:00:04.036231,7,right,1,0.43410511149295417,21,f,1,15,2018_Oct_12_1602,MP_PerceptionTuring2,59.92475883663248,
287,resources/videos_generated\model(vcgpdm)-dataset(walking)-mode(ELBO)-parts(1)-dyn(28)-lvm(23)_final(5).mov,resources/videos_natural\training(8).mov,True,False,right,0,286,286,286,2018-10-12 16:32:10.112223,2018-10-12 16:32:14.048448,0:00:03.936225,7,right,1,0.31709604525553914,21,f,1,15,2018_Oct_12_1602,MP_PerceptionTuring2,59.92475883663248,
288,resources/videos_generated\model(vcgpdm)-dataset(walking)-mode(ELBO)-parts(1)-dyn(25)-lvm(22)_final(0).mov,resources/videos_natural\training(45).mov,False,False,right,0,287,287,287,2018-10-12 16:32:15.483530,2018-10-12 16:32:19.619767,0:00:04.136237,7,right,1,0.33389642810789155,21,f,1,15,2018_Oct_12_1602,MP_PerceptionTuring2,59.92475883663248,
289,resources/videos_generated\model(vcgpdm)-dataset(walking)-mode(ELBO)-parts(2)-dyn(25)-lvm(20)_final(9).mov,resources/videos_natural\training(22).mov,True,True,left,0,288,288,288,2018-10-12 16:32:21.070850,2018-10-12 16:32:25.008075,0:00:03.937225,7,left,1,0.8509785591297714,21,f,1,15,2018_Oct_12_1602,MP_PerceptionTuring2,59.92475883663248,
290,resources/videos_generated\model(vcgpdm)-dataset(walking)-mode(ELBO)-parts(2)-dyn(24)-lvm(21)_final(7).mov,resources/videos_natural\training(5).mov,False,True,left,0,289,289,289,2018-10-12 16:32:26.976187,2018-10-12 16:32:30.996417,0:00:04.020230,7,right,0,0.4006471022103142,21,f,1,15,2018_Oct_12_1602,MP_PerceptionTuring2,59.92475883663248,
291,resources/videos_generated\model(dmp)-dataset(walking)-npsi(70)_final(2).mov,resources/videos_natural\training(20).mov,False,False,right,0,290,290,290,2018-10-12 16:32:32.514504,2018-10-12 16:32:36.618739,0:00:04.104235,7,right,1,0.5339662402147951,21,f,1,15,2018_Oct_12_1602,MP_PerceptionTuring2,59.92475883663248,
