n_trial,mov_file_generated,mov_file_natural,mirrored,switch_stim_pos,correct_answer,trials.thisRepN,trials.thisTrialN,trials.thisN,trials.thisIndex,stimulus_onset,stimulus_off,stimulus_length,block,response.keys,response.corr,response.rt,age,gender,condition,participant,date,expName,frameRate,
1,resources/videos_generated\model(vcgpdm)-dataset(walking)-mode(ELBO)-parts(2)-dyn(24)-lvm(19)_final(8).mov,resources/videos_natural\training(6).mov,True,False,right,0,0,0,0,2018-10-12 10:05:16.665886,2018-10-12 10:05:21.320152,0:00:04.654266,1,right,1,2.3357031702466884,34,f,2,16,2018_Oct_12_1004,MP_PerceptionTuring2,59.97769131276919,
2,resources/videos_generated\model(vcgpdm)-dataset(walking)-mode(ELBO)-parts(1)-dyn(24)-lvm(27)_final(7).mov,resources/videos_natural\training(11).mov,False,True,left,0,1,1,1,2018-10-12 10:05:24.772349,2018-10-12 10:05:28.692574,0:00:03.920225,1,left,1,0.7842468589824421,34,f,2,16,2018_Oct_12_1004,MP_PerceptionTuring2,59.97769131276919,
3,resources/videos_generated\model(dmp)-dataset(walking)-npsi(70)_final(9).mov,resources/videos_natural\training(45).mov,True,True,left,0,2,2,2,2018-10-12 10:05:30.594682,2018-10-12 10:05:34.547908,0:00:03.953226,1,right,0,1.7518860261643567,34,f,2,16,2018_Oct_12_1004,MP_PerceptionTuring2,59.97769131276919,
4,resources/videos_generated\model(vcgpdm)-dataset(walking)-mode(ELBO)-parts(2)-dyn(26)-lvm(19)_final(2).mov,resources/videos_natural\training(33).mov,True,False,right,0,3,3,3,2018-10-12 10:05:37.417073,2018-10-12 10:05:41.487305,0:00:04.070232,1,left,0,0.6507418966907608,34,f,2,16,2018_Oct_12_1004,MP_PerceptionTuring2,59.97769131276919,
5,resources/videos_generated\model(vcgpdm)-dataset(walking)-mode(ELBO)-parts(1)-dyn(27)-lvm(28)_final(6).mov,resources/videos_natural\training(19).mov,True,True,left,0,4,4,4,2018-10-12 10:05:43.255407,2018-10-12 10:05:47.342640,0:00:04.087233,1,right,0,1.084597636207036,34,f,2,16,2018_Oct_12_1004,MP_PerceptionTuring2,59.97769131276919,
6,resources/videos_generated\model(vcgpdm)-dataset(walking)-mode(ELBO)-parts(2)-dyn(23)-lvm(22)_final(2).mov,resources/videos_natural\training(26).mov,True,False,right,0,5,5,5,2018-10-12 10:05:49.543766,2018-10-12 10:05:53.614999,0:00:04.071233,1,right,1,0.7508415551296821,34,f,2,16,2018_Oct_12_1004,MP_PerceptionTuring2,59.97769131276919,
7,resources/videos_generated\model(vcgpdm)-dataset(walking)-mode(ELBO)-parts(2)-dyn(23)-lvm(20)_final(6).mov,resources/videos_natural\training(43).mov,False,True,left,0,6,6,6,2018-10-12 10:05:55.483106,2018-10-12 10:05:59.586341,0:00:04.103235,1,left,1,1.7350272155781568,34,f,2,16,2018_Oct_12_1004,MP_PerceptionTuring2,59.97769131276919,
8,resources/videos_generated\model(dmp)-dataset(walking)-npsi(60)_final(9).mov,resources/videos_natural\training(17).mov,False,False,right,0,7,7,7,2018-10-12 10:06:02.438504,2018-10-12 10:06:06.508737,0:00:04.070233,1,left,0,2.3020554214162985,34,f,2,16,2018_Oct_12_1004,MP_PerceptionTuring2,59.97769131276919,
9,resources/videos_generated\model(vcgpdm)-dataset(walking)-mode(ELBO)-parts(2)-dyn(22)-lvm(23)_final(4).mov,resources/videos_natural\training(40).mov,False,True,left,0,8,8,8,2018-10-12 10:06:09.928932,2018-10-12 10:06:14.032167,0:00:04.103235,1,left,1,0.6341062559536113,34,f,2,16,2018_Oct_12_1004,MP_PerceptionTuring2,59.97769131276919,
10,resources/videos_generated\model(tmp)-dataset(walking)-numprim(13)_final(7).mov,resources/videos_natural\training(16).mov,False,False,right,0,9,9,9,2018-10-12 10:06:15.783267,2018-10-12 10:06:19.720492,0:00:03.937225,1,left,0,0.5673899156745392,34,f,2,16,2018_Oct_12_1004,MP_PerceptionTuring2,59.97769131276919,
11,resources/videos_generated\model(vcgpdm)-dataset(walking)-mode(ELBO)-parts(1)-dyn(26)-lvm(23)_final(4)_fail.mov,resources/videos_natural\training(32).mov,False,False,right,0,10,10,10,2018-10-12 10:06:21.404589,2018-10-12 10:06:25.474821,0:00:04.070232,1,right,1,0.9844838225953936,34,f,2,16,2018_Oct_12_1004,MP_PerceptionTuring2,59.97769131276919,
12,resources/videos_generated\model(vcgpdm)-dataset(walking)-mode(ELBO)-parts(2)-dyn(26)-lvm(17)_final(4).mov,resources/videos_natural\training(3).mov,True,False,right,0,11,11,11,2018-10-12 10:06:27.576942,2018-10-12 10:06:31.680176,0:00:04.103234,1,right,1,0.46724869523950474,34,f,2,16,2018_Oct_12_1004,MP_PerceptionTuring2,59.97769131276919,
13,resources/videos_generated\model(vcgpdm)-dataset(walking)-mode(ELBO)-parts(2)-dyn(22)-lvm(19)_final(2).mov,resources/videos_natural\training(40).mov,True,True,left,0,12,12,12,2018-10-12 10:06:33.265267,2018-10-12 10:06:37.318499,0:00:04.053232,1,right,0,1.5014861425379422,34,f,2,16,2018_Oct_12_1004,MP_PerceptionTuring2,59.97769131276919,
14,resources/videos_generated\model(tmp)-dataset(walking)-numprim(11)_final(5).mov,resources/videos_natural\training(27).mov,True,True,left,0,13,13,13,2018-10-12 10:06:39.937649,2018-10-12 10:06:44.007881,0:00:04.070232,1,left,1,0.7507716827881268,34,f,2,16,2018_Oct_12_1004,MP_PerceptionTuring2,59.97769131276919,
15,resources/videos_generated\model(vcgpdm)-dataset(walking)-mode(ELBO)-parts(1)-dyn(24)-lvm(23)_final(9).mov,resources/videos_natural\training(10).mov,False,False,right,0,14,14,14,2018-10-12 10:06:45.875988,2018-10-12 10:06:49.963222,0:00:04.087234,1,left,0,0.7675889313777589,34,f,2,16,2018_Oct_12_1004,MP_PerceptionTuring2,59.97769131276919,
16,resources/videos_generated\model(vcgpdm)-dataset(walking)-mode(ELBO)-parts(2)-dyn(24)-lvm(21)_final(4).mov,resources/videos_natural\training(30).mov,False,True,left,0,15,15,15,2018-10-12 10:06:51.848330,2018-10-12 10:06:55.768554,0:00:03.920224,1,left,1,1.3347370044220952,34,f,2,16,2018_Oct_12_1004,MP_PerceptionTuring2,59.97769131276919,
17,resources/videos_generated\model(vcgpdm)-dataset(walking)-mode(ELBO)-parts(1)-dyn(23)-lvm(22)_final(4)_fail.mov,resources/videos_natural\training(38).mov,True,False,right,0,16,16,16,2018-10-12 10:06:58.220694,2018-10-12 10:07:02.290927,0:00:04.070233,1,right,1,0.6007705232686931,34,f,2,16,2018_Oct_12_1004,MP_PerceptionTuring2,59.97769131276919,
18,resources/videos_generated\model(vcgpdm)-dataset(walking)-mode(ELBO)-parts(2)-dyn(24)-lvm(19)_final(4).mov,resources/videos_natural\training(47).mov,False,False,right,0,17,17,17,2018-10-12 10:07:04.008025,2018-10-12 10:07:08.095259,0:00:04.087234,1,right,1,0.5840598902341299,34,f,2,16,2018_Oct_12_1004,MP_PerceptionTuring2,59.97769131276919,
19,resources/videos_generated\model(vcgpdm)-dataset(walking)-mode(ELBO)-parts(2)-dyn(24)-lvm(23)_final(0).mov,resources/videos_natural\training(6).mov,True,False,right,0,18,18,18,2018-10-12 10:07:09.797356,2018-10-12 10:07:13.733582,0:00:03.936226,1,right,1,0.5173134325659703,34,f,2,16,2018_Oct_12_1004,MP_PerceptionTuring2,59.97769131276919,
20,resources/videos_generated\model(vcgpdm)-dataset(walking)-mode(ELBO)-parts(2)-dyn(25)-lvm(20)_final(8).mov,resources/videos_natural\training(5).mov,True,False,right,0,19,19,19,2018-10-12 10:07:15.368675,2018-10-12 10:07:19.288899,0:00:03.920224,1,right,1,0.5506419370781259,34,f,2,16,2018_Oct_12_1004,MP_PerceptionTuring2,59.97769131276919,
21,resources/videos_generated\model(vcgpdm)-dataset(walking)-mode(ELBO)-parts(1)-dyn(27)-lvm(28)_final(0).mov,resources/videos_natural\training(48).mov,True,False,right,0,20,20,20,2018-10-12 10:07:20.956995,2018-10-12 10:07:25.060229,0:00:04.103234,1,right,1,0.800986705883588,34,f,2,16,2018_Oct_12_1004,MP_PerceptionTuring2,59.97769131276919,
22,resources/videos_generated\model(vcgpdm)-dataset(walking)-mode(ELBO)-parts(2)-dyn(22)-lvm(17)_final(0).mov,resources/videos_natural\training(20).mov,True,False,right,0,21,21,21,2018-10-12 10:07:26.978339,2018-10-12 10:07:31.065573,0:00:04.087234,1,right,1,0.6341342651253399,34,f,2,16,2018_Oct_12_1004,MP_PerceptionTuring2,59.97769131276919,
23,resources/videos_generated\model(vcgpdm)-dataset(walking)-mode(ELBO)-parts(2)-dyn(24)-lvm(21)_final(2).mov,resources/videos_natural\training(34).mov,False,False,right,0,22,22,22,2018-10-12 10:07:32.816673,2018-10-12 10:07:36.919908,0:00:04.103235,1,right,1,0.5340385219469681,34,f,2,16,2018_Oct_12_1004,MP_PerceptionTuring2,59.97769131276919,
24,resources/videos_generated\model(dmp)-dataset(walking)-npsi(70)_final(7).mov,resources/videos_natural\training(28).mov,True,True,left,0,23,23,23,2018-10-12 10:07:38.572002,2018-10-12 10:07:42.675237,0:00:04.103235,1,left,1,0.71751335179124,34,f,2,16,2018_Oct_12_1004,MP_PerceptionTuring2,59.97769131276919,
25,resources/videos_generated\model(vcgpdm)-dataset(walking)-mode(ELBO)-parts(2)-dyn(26)-lvm(17)_final(6).mov,resources/videos_natural\training(25).mov,True,True,left,0,24,24,24,2018-10-12 10:07:44.510342,2018-10-12 10:07:48.597576,0:00:04.087234,1,right,0,0.5172712682219753,34,f,2,16,2018_Oct_12_1004,MP_PerceptionTuring2,59.97769131276919,
26,resources/videos_generated\model(dmp)-dataset(walking)-npsi(50)_final(3).mov,resources/videos_natural\training(37).mov,True,False,right,0,25,25,25,2018-10-12 10:07:50.231669,2018-10-12 10:07:54.285901,0:00:04.054232,1,right,1,0.38391026704766773,34,f,2,16,2018_Oct_12_1004,MP_PerceptionTuring2,59.97769131276919,
27,resources/videos_generated\model(vcgpdm)-dataset(walking)-mode(ELBO)-parts(1)-dyn(26)-lvm(27)_final(0).mov,resources/videos_natural\training(30).mov,True,False,right,0,26,26,26,2018-10-12 10:07:55.786987,2018-10-12 10:07:59.707211,0:00:03.920224,1,right,1,0.5507521667200308,34,f,2,16,2018_Oct_12_1004,MP_PerceptionTuring2,59.97769131276919,
28,resources/videos_generated\model(vcgpdm)-dataset(walking)-mode(ELBO)-parts(2)-dyn(23)-lvm(18)_final(2).mov,resources/videos_natural\training(43).mov,False,False,right,0,27,27,27,2018-10-12 10:08:01.375307,2018-10-12 10:08:05.278530,0:00:03.903223,1,right,1,1.067854777566481,34,f,2,16,2018_Oct_12_1004,MP_PerceptionTuring2,59.97769131276919,
29,resources/videos_generated\model(tmp)-dataset(walking)-numprim(11)_final(1).mov,resources/videos_natural\training(21).mov,True,False,right,0,28,28,28,2018-10-12 10:08:07.463655,2018-10-12 10:08:11.566889,0:00:04.103234,1,right,1,0.4840659438291368,34,f,2,16,2018_Oct_12_1004,MP_PerceptionTuring2,59.97769131276919,
30,resources/videos_generated\model(tmp)-dataset(walking)-numprim(14)_final(1).mov,resources/videos_natural\training(26).mov,True,True,left,0,29,29,29,2018-10-12 10:08:13.167981,2018-10-12 10:08:17.105206,0:00:03.937225,1,left,1,0.6007247448378621,34,f,2,16,2018_Oct_12_1004,MP_PerceptionTuring2,59.97769131276919,
31,resources/videos_generated\model(vcgpdm)-dataset(walking)-mode(ELBO)-parts(1)-dyn(22)-lvm(22)_final(3).mov,resources/videos_natural\training(42).mov,True,True,left,0,30,30,30,2018-10-12 10:08:18.823305,2018-10-12 10:08:22.926539,0:00:04.103234,1,right,0,0.56734473959159,34,f,2,16,2018_Oct_12_1004,MP_PerceptionTuring2,59.97769131276919,
32,resources/videos_generated\model(vcgpdm)-dataset(walking)-mode(ELBO)-parts(1)-dyn(24)-lvm(25)_final(5).mov,resources/videos_natural\training(11).mov,True,True,left,0,31,31,31,2018-10-12 10:08:24.611636,2018-10-12 10:08:28.548861,0:00:03.937225,1,right,0,0.5339825036039656,34,f,2,16,2018_Oct_12_1004,MP_PerceptionTuring2,59.97769131276919,
33,resources/videos_generated\model(vcgpdm)-dataset(walking)-mode(ELBO)-parts(1)-dyn(23)-lvm(28)_final(9).mov,resources/videos_natural\training(22).mov,False,False,right,0,32,32,32,2018-10-12 10:08:30.199955,2018-10-12 10:08:34.270188,0:00:04.070233,1,left,0,0.8175898198405775,34,f,2,16,2018_Oct_12_1004,MP_PerceptionTuring2,59.97769131276919,
34,resources/videos_generated\model(dmp)-dataset(walking)-npsi(100)_final(5).mov,resources/videos_natural\training(35).mov,True,True,left,0,33,33,33,2018-10-12 10:08:36.205299,2018-10-12 10:08:40.308533,0:00:04.103234,1,left,1,0.4838620491086658,34,f,2,16,2018_Oct_12_1004,MP_PerceptionTuring2,59.97769131276919,
35,resources/videos_generated\model(vcgpdm)-dataset(walking)-mode(ELBO)-parts(1)-dyn(23)-lvm(28)_final(5).mov,resources/videos_natural\training(30).mov,True,False,right,0,34,34,34,2018-10-12 10:08:41.909625,2018-10-12 10:08:45.979858,0:00:04.070233,1,left,0,0.9511209842603421,34,f,2,16,2018_Oct_12_1004,MP_PerceptionTuring2,59.97769131276919,
36,resources/videos_generated\model(vcgpdm)-dataset(walking)-mode(ELBO)-parts(2)-dyn(22)-lvm(23)_final(0).mov,resources/videos_natural\training(13).mov,False,False,right,0,35,35,35,2018-10-12 10:08:48.048976,2018-10-12 10:08:52.152211,0:00:04.103235,1,right,1,0.3839382762189416,34,f,2,16,2018_Oct_12_1004,MP_PerceptionTuring2,59.97769131276919,
37,resources/videos_generated\model(vcgpdm)-dataset(walking)-mode(ELBO)-parts(2)-dyn(25)-lvm(20)_final(6).mov,resources/videos_natural\training(21).mov,True,False,right,0,36,36,36,2018-10-12 10:08:53.653297,2018-10-12 10:08:57.656526,0:00:04.003229,1,right,1,0.4672989912783123,34,f,2,16,2018_Oct_12_1004,MP_PerceptionTuring2,59.97769131276919,
38,resources/videos_generated\model(vcgpdm)-dataset(walking)-mode(ELBO)-parts(2)-dyn(22)-lvm(21)_final(8).mov,resources/videos_natural\training(42).mov,False,False,right,0,37,37,37,2018-10-12 10:08:59.241616,2018-10-12 10:09:03.161841,0:00:03.920225,1,left,0,1.084520836865977,34,f,2,16,2018_Oct_12_1004,MP_PerceptionTuring2,59.97769131276919,
39,resources/videos_generated\model(vcgpdm)-dataset(walking)-mode(ELBO)-parts(1)-dyn(24)-lvm(27)_final(9).mov,resources/videos_natural\training(16).mov,True,False,right,0,38,38,38,2018-10-12 10:09:05.363966,2018-10-12 10:09:09.500203,0:00:04.136237,1,right,1,0.800980381231966,34,f,2,16,2018_Oct_12_1004,MP_PerceptionTuring2,59.97769131276919,
40,resources/videos_generated\model(vcgpdm)-dataset(walking)-mode(ELBO)-parts(1)-dyn(25)-lvm(24)_final(8).mov,resources/videos_natural\training(27).mov,False,True,left,0,39,39,39,2018-10-12 10:09:11.418313,2018-10-12 10:09:15.505547,0:00:04.087234,1,left,1,0.43394789872490946,34,f,2,16,2018_Oct_12_1004,MP_PerceptionTuring2,59.97769131276919,
41,resources/videos_generated\model(dmp)-dataset(walking)-npsi(90)_final(5).mov,resources/videos_natural\training(12).mov,True,True,left,0,40,40,40,2018-10-12 10:09:17.056635,2018-10-12 10:09:21.143869,0:00:04.087234,1,left,1,0.5841460259653104,34,f,2,16,2018_Oct_12_1004,MP_PerceptionTuring2,59.97769131276919,
42,resources/videos_generated\model(vcgpdm)-dataset(walking)-mode(ELBO)-parts(2)-dyn(27)-lvm(18)_final(0).mov,resources/videos_natural\training(14).mov,True,True,left,0,41,41,41,2018-10-12 10:09:22.844966,2018-10-12 10:09:26.949201,0:00:04.104235,1,left,1,0.567574535265976,34,f,2,16,2018_Oct_12_1004,MP_PerceptionTuring2,59.97769131276919,
43,resources/videos_generated\model(vcgpdm)-dataset(walking)-mode(ELBO)-parts(1)-dyn(22)-lvm(23)_final(3)_fail.mov,resources/videos_natural\training(2).mov,False,False,right,0,42,42,42,2018-10-12 10:09:28.633297,2018-10-12 10:09:32.720531,0:00:04.087234,1,right,1,0.5340150303836708,34,f,2,16,2018_Oct_12_1004,MP_PerceptionTuring2,59.97769131276919,
44,resources/videos_generated\model(vcgpdm)-dataset(walking)-mode(ELBO)-parts(2)-dyn(25)-lvm(22)_final(8).mov,resources/videos_natural\training(25).mov,False,False,right,0,43,43,43,2018-10-12 10:09:34.371626,2018-10-12 10:09:38.308851,0:00:03.937225,1,right,1,0.5506307936443591,34,f,2,16,2018_Oct_12_1004,MP_PerceptionTuring2,59.97769131276919,
45,resources/videos_generated\model(vcgpdm)-dataset(walking)-mode(ELBO)-parts(2)-dyn(28)-lvm(19)_final(0).mov,resources/videos_natural\training(20).mov,False,False,right,0,44,44,44,2018-10-12 10:09:39.976946,2018-10-12 10:09:43.947173,0:00:03.970227,1,right,1,0.41728515233853614,34,f,2,16,2018_Oct_12_1004,MP_PerceptionTuring2,59.97769131276919,
46,resources/videos_generated\model(vcgpdm)-dataset(walking)-mode(ELBO)-parts(2)-dyn(25)-lvm(20)_final(0).mov,resources/videos_natural\training(47).mov,True,False,right,0,45,45,45,2018-10-12 10:10:19.427203,2018-10-12 10:10:23.414431,0:00:03.987228,2,right,1,0.46732910866649036,34,f,2,16,2018_Oct_12_1004,MP_PerceptionTuring2,59.97769131276919,
47,resources/videos_generated\model(vcgpdm)-dataset(walking)-mode(ELBO)-parts(1)-dyn(23)-lvm(28)_final(1).mov,resources/videos_natural\training(33).mov,False,True,left,0,46,46,46,2018-10-12 10:10:24.999521,2018-10-12 10:10:29.035752,0:00:04.036231,2,right,0,0.7175579255263074,34,f,2,16,2018_Oct_12_1004,MP_PerceptionTuring2,59.97769131276919,
48,resources/videos_generated\model(vcgpdm)-dataset(walking)-mode(ELBO)-parts(1)-dyn(27)-lvm(26)_final(2).mov,resources/videos_natural\training(47).mov,False,True,left,0,47,47,47,2018-10-12 10:10:30.870857,2018-10-12 10:10:34.958091,0:00:04.087234,2,left,1,0.4841496701696997,34,f,2,16,2018_Oct_12_1004,MP_PerceptionTuring2,59.97769131276919,
49,resources/videos_generated\model(dmp)-dataset(walking)-npsi(70)_final(5).mov,resources/videos_natural\training(12).mov,False,False,right,0,48,48,48,2018-10-12 10:10:36.559183,2018-10-12 10:10:40.479407,0:00:03.920224,2,left,0,0.5339882259077058,34,f,2,16,2018_Oct_12_1004,MP_PerceptionTuring2,59.97769131276919,
50,resources/videos_generated\model(vcgpdm)-dataset(walking)-mode(ELBO)-parts(2)-dyn(28)-lvm(19)_final(2).mov,resources/videos_natural\training(9).mov,False,True,left,0,49,49,49,2018-10-12 10:10:42.130501,2018-10-12 10:10:46.217735,0:00:04.087234,2,right,0,0.5506886190300975,34,f,2,16,2018_Oct_12_1004,MP_PerceptionTuring2,59.97769131276919,
51,resources/videos_generated\model(tmp)-dataset(walking)-numprim(13)_final(9).mov,resources/videos_natural\training(22).mov,False,True,left,0,50,50,50,2018-10-12 10:10:47.885830,2018-10-12 10:10:51.806055,0:00:03.920225,2,right,0,1.017754501721356,34,f,2,16,2018_Oct_12_1004,MP_PerceptionTuring2,59.97769131276919,
52,resources/videos_generated\model(vcgpdm)-dataset(walking)-mode(ELBO)-parts(2)-dyn(22)-lvm(23)_final(2).mov,resources/videos_natural\training(14).mov,True,False,right,0,51,51,51,2018-10-12 10:10:53.941177,2018-10-12 10:10:58.044411,0:00:04.103234,2,right,1,0.4004362804903394,34,f,2,16,2018_Oct_12_1004,MP_PerceptionTuring2,59.97769131276919,
53,resources/videos_generated\model(vcgpdm)-dataset(walking)-mode(ELBO)-parts(2)-dyn(28)-lvm(23)_final(0).mov,resources/videos_natural\training(22).mov,True,False,right,0,52,52,52,2018-10-12 10:10:59.562498,2018-10-12 10:11:03.548726,0:00:03.986228,2,right,1,0.3839186999166486,34,f,2,16,2018_Oct_12_1004,MP_PerceptionTuring2,59.97769131276919,
54,resources/videos_generated\model(vcgpdm)-dataset(walking)-mode(ELBO)-parts(1)-dyn(25)-lvm(26)_final(1).mov,resources/videos_natural\training(18).mov,True,False,right,0,53,53,53,2018-10-12 10:11:05.050812,2018-10-12 10:11:09.121045,0:00:04.070233,2,right,1,0.550738312721478,34,f,2,16,2018_Oct_12_1004,MP_PerceptionTuring2,59.97769131276919,
55,resources/videos_generated\model(vcgpdm)-dataset(walking)-mode(ELBO)-parts(2)-dyn(27)-lvm(18)_final(2).mov,resources/videos_natural\training(6).mov,True,False,right,0,54,54,54,2018-10-12 10:11:10.789140,2018-10-12 10:11:14.892375,0:00:04.103235,2,left,0,0.5173676438653274,34,f,2,16,2018_Oct_12_1004,MP_PerceptionTuring2,59.97769131276919,
56,resources/videos_generated\model(dmp)-dataset(walking)-npsi(90)_final(3).mov,resources/videos_natural\training(12).mov,False,False,right,0,55,55,55,2018-10-12 10:11:16.526469,2018-10-12 10:11:20.446693,0:00:03.920224,2,left,0,0.4004974187892003,34,f,2,16,2018_Oct_12_1004,MP_PerceptionTuring2,59.97769131276919,
57,resources/videos_generated\model(vcgpdm)-dataset(walking)-mode(ELBO)-parts(2)-dyn(22)-lvm(21)_final(4).mov,resources/videos_natural\training(40).mov,False,True,left,0,56,56,56,2018-10-12 10:11:21.964780,2018-10-12 10:11:25.885004,0:00:03.920224,2,left,1,0.3172755448913449,34,f,2,16,2018_Oct_12_1004,MP_PerceptionTuring2,59.97769131276919,
58,resources/videos_generated\model(dmp)-dataset(walking)-npsi(100)_final(3).mov,resources/videos_natural\training(11).mov,False,False,right,0,57,57,57,2018-10-12 10:11:27.320086,2018-10-12 10:11:31.423321,0:00:04.103235,2,left,0,0.45055884320345285,34,f,2,16,2018_Oct_12_1004,MP_PerceptionTuring2,59.97769131276919,
59,resources/videos_generated\model(vcgpdm)-dataset(walking)-mode(ELBO)-parts(1)-dyn(27)-lvm(22)_final(4).mov,resources/videos_natural\training(29).mov,False,False,right,0,58,58,58,2018-10-12 10:11:32.991410,2018-10-12 10:11:37.078644,0:00:04.087234,2,left,0,0.884272127470922,34,f,2,16,2018_Oct_12_1004,MP_PerceptionTuring2,59.97769131276919,
60,resources/videos_generated\model(tmp)-dataset(walking)-numprim(15)_final(1).mov,resources/videos_natural\training(24).mov,True,False,right,0,59,59,59,2018-10-12 10:11:39.079759,2018-10-12 10:11:42.982982,0:00:03.903223,2,right,1,0.4508085163543001,34,f,2,16,2018_Oct_12_1004,MP_PerceptionTuring2,59.97769131276919,
61,resources/videos_generated\model(dmp)-dataset(walking)-npsi(80)_final(9).mov,resources/videos_natural\training(38).mov,True,True,left,0,60,60,60,2018-10-12 10:11:44.551071,2018-10-12 10:11:48.571301,0:00:04.020230,2,right,0,0.3837169134130818,34,f,2,16,2018_Oct_12_1004,MP_PerceptionTuring2,59.97769131276919,
62,resources/videos_generated\model(vcgpdm)-dataset(walking)-mode(ELBO)-parts(1)-dyn(22)-lvm(22)_final(1).mov,resources/videos_natural\training(13).mov,True,False,right,0,61,61,61,2018-10-12 10:11:50.072387,2018-10-12 10:11:54.192623,0:00:04.120236,2,right,1,0.5173839072554074,34,f,2,16,2018_Oct_12_1004,MP_PerceptionTuring2,59.97769131276919,
63,resources/videos_generated\model(vcgpdm)-dataset(walking)-mode(ELBO)-parts(2)-dyn(22)-lvm(17)_final(6).mov,resources/videos_natural\training(42).mov,False,True,left,0,62,62,62,2018-10-12 10:11:55.827716,2018-10-12 10:11:59.713939,0:00:03.886223,2,left,1,0.5341409210677739,34,f,2,16,2018_Oct_12_1004,MP_PerceptionTuring2,59.97769131276919,
64,resources/videos_generated\model(dmp)-dataset(walking)-npsi(50)_final(9).mov,resources/videos_natural\training(18).mov,True,True,left,0,63,63,63,2018-10-12 10:12:01.366033,2018-10-12 10:12:05.302258,0:00:03.936225,2,right,0,0.7675871243345682,34,f,2,16,2018_Oct_12_1004,MP_PerceptionTuring2,59.97769131276919,
65,resources/videos_generated\model(vcgpdm)-dataset(walking)-mode(ELBO)-parts(2)-dyn(26)-lvm(23)_final(0).mov,resources/videos_natural\training(3).mov,True,False,right,0,64,64,64,2018-10-12 10:12:07.187366,2018-10-12 10:12:11.307602,0:00:04.120236,2,right,1,0.534146041024087,34,f,2,16,2018_Oct_12_1004,MP_PerceptionTuring2,59.97769131276919,
66,resources/videos_generated\model(vcgpdm)-dataset(walking)-mode(ELBO)-parts(2)-dyn(28)-lvm(19)_final(8).mov,resources/videos_natural\training(13).mov,True,True,left,0,65,65,65,2018-10-12 10:12:12.958696,2018-10-12 10:12:16.878921,0:00:03.920225,2,right,0,0.5174284809904748,34,f,2,16,2018_Oct_12_1004,MP_PerceptionTuring2,59.97769131276919,
67,resources/videos_generated\model(vcgpdm)-dataset(walking)-mode(ELBO)-parts(1)-dyn(25)-lvm(25)_final(0).mov,resources/videos_natural\training(14).mov,False,False,right,0,66,66,66,2018-10-12 10:12:18.514014,2018-10-12 10:12:22.434238,0:00:03.920224,2,right,1,0.43389308507767055,34,f,2,16,2018_Oct_12_1004,MP_PerceptionTuring2,59.97769131276919,
68,resources/videos_generated\model(vcgpdm)-dataset(walking)-mode(ELBO)-parts(2)-dyn(25)-lvm(22)_final(0).mov,resources/videos_natural\training(8).mov,True,False,right,0,67,67,67,2018-10-12 10:12:23.985327,2018-10-12 10:12:28.038559,0:00:04.053232,2,right,1,0.5507916204992398,34,f,2,16,2018_Oct_12_1004,MP_PerceptionTuring2,59.97769131276919,
69,resources/videos_generated\model(vcgpdm)-dataset(walking)-mode(ELBO)-parts(1)-dyn(23)-lvm(24)_final(4).mov,resources/videos_natural\training(19).mov,False,False,right,0,68,68,68,2018-10-12 10:12:29.706654,2018-10-12 10:12:33.610878,0:00:03.904224,2,right,1,0.41718907786844284,34,f,2,16,2018_Oct_12_1004,MP_PerceptionTuring2,59.97769131276919,
70,resources/videos_generated\model(vcgpdm)-dataset(walking)-mode(ELBO)-parts(1)-dyn(26)-lvm(25)_final(8).mov,resources/videos_natural\training(29).mov,False,False,right,0,69,69,69,2018-10-12 10:12:35.144965,2018-10-12 10:12:39.232199,0:00:04.087234,2,right,1,0.5173781849516672,34,f,2,16,2018_Oct_12_1004,MP_PerceptionTuring2,59.97769131276919,
71,resources/videos_generated\model(vcgpdm)-dataset(walking)-mode(ELBO)-parts(2)-dyn(22)-lvm(19)_final(4).mov,resources/videos_natural\training(32).mov,True,False,right,0,70,70,70,2018-10-12 10:12:40.866293,2018-10-12 10:12:44.986528,0:00:04.120235,2,right,1,0.43410481031924064,34,f,2,16,2018_Oct_12_1004,MP_PerceptionTuring2,59.97769131276919,
72,resources/videos_generated\model(vcgpdm)-dataset(walking)-mode(ELBO)-parts(1)-dyn(27)-lvm(28)_final(8).mov,resources/videos_natural\training(1).mov,False,False,right,0,71,71,71,2018-10-12 10:12:46.538617,2018-10-12 10:12:50.591849,0:00:04.053232,2,right,1,0.4172779241648641,34,f,2,16,2018_Oct_12_1004,MP_PerceptionTuring2,59.97769131276919,
73,resources/videos_generated\model(vcgpdm)-dataset(walking)-mode(ELBO)-parts(2)-dyn(22)-lvm(21)_final(2).mov,resources/videos_natural\training(30).mov,False,False,right,0,72,72,72,2018-10-12 10:12:52.125937,2018-10-12 10:12:56.080163,0:00:03.954226,2,right,1,0.45061094628545106,34,f,2,16,2018_Oct_12_1004,MP_PerceptionTuring2,59.97769131276919,
74,resources/videos_generated\model(vcgpdm)-dataset(walking)-mode(ELBO)-parts(2)-dyn(24)-lvm(17)_final(0).mov,resources/videos_natural\training(31).mov,False,True,left,0,73,73,73,2018-10-12 10:12:57.647252,2018-10-12 10:13:01.734486,0:00:04.087234,2,left,1,0.41711107383252966,34,f,2,16,2018_Oct_12_1004,MP_PerceptionTuring2,59.97769131276919,
75,resources/videos_generated\model(vcgpdm)-dataset(walking)-mode(ELBO)-parts(1)-dyn(25)-lvm(23)_final(2).mov,resources/videos_natural\training(43).mov,False,True,left,0,74,74,74,2018-10-12 10:13:03.269574,2018-10-12 10:13:07.205799,0:00:03.936225,2,left,1,0.6841200948938422,34,f,2,16,2018_Oct_12_1004,MP_PerceptionTuring2,59.97769131276919,
76,resources/videos_generated\model(tmp)-dataset(walking)-numprim(14)_final(5).mov,resources/videos_natural\training(21).mov,False,True,left,0,75,75,75,2018-10-12 10:13:09.007902,2018-10-12 10:13:12.911125,0:00:03.903223,2,left,1,1.28454667758524,34,f,2,16,2018_Oct_12_1004,MP_PerceptionTuring2,59.97769131276919,
77,resources/videos_generated\model(tmp)-dataset(walking)-numprim(12)_final(1).mov,resources/videos_natural\training(4).mov,False,True,left,0,76,76,76,2018-10-12 10:13:15.313263,2018-10-12 10:13:19.233487,0:00:03.920224,2,left,1,0.4338295373877372,34,f,2,16,2018_Oct_12_1004,MP_PerceptionTuring2,59.97769131276919,
78,resources/videos_generated\model(vcgpdm)-dataset(walking)-mode(ELBO)-parts(1)-dyn(26)-lvm(27)_final(6).mov,resources/videos_natural\training(24).mov,True,True,left,0,77,77,77,2018-10-12 10:13:20.784576,2018-10-12 10:13:24.737802,0:00:03.953226,2,right,0,0.4171393841779718,34,f,2,16,2018_Oct_12_1004,MP_PerceptionTuring2,59.97769131276919,
79,resources/videos_generated\model(vcgpdm)-dataset(walking)-mode(ELBO)-parts(1)-dyn(28)-lvm(23)_final(8).mov,resources/videos_natural\training(6).mov,True,False,right,0,78,78,78,2018-10-12 10:13:26.272890,2018-10-12 10:13:30.309120,0:00:04.036230,2,right,1,0.500888312375082,34,f,2,16,2018_Oct_12_1004,MP_PerceptionTuring2,59.97769131276919,
80,resources/videos_generated\model(vcgpdm)-dataset(walking)-mode(ELBO)-parts(1)-dyn(25)-lvm(22)_final(1).mov,resources/videos_natural\training(43).mov,False,False,right,0,79,79,79,2018-10-12 10:13:31.927213,2018-10-12 10:13:35.830436,0:00:03.903223,2,right,1,0.36733576460983386,34,f,2,16,2018_Oct_12_1004,MP_PerceptionTuring2,59.97769131276919,
81,resources/videos_generated\model(vcgpdm)-dataset(walking)-mode(ELBO)-parts(2)-dyn(23)-lvm(22)_final(6).mov,resources/videos_natural\training(15).mov,False,False,right,0,80,80,80,2018-10-12 10:13:37.315521,2018-10-12 10:13:41.385754,0:00:04.070233,2,right,1,0.5005841267507094,34,f,2,16,2018_Oct_12_1004,MP_PerceptionTuring2,59.97769131276919,
82,resources/videos_generated\model(vcgpdm)-dataset(walking)-mode(ELBO)-parts(2)-dyn(26)-lvm(23)_final(2).mov,resources/videos_natural\training(29).mov,True,False,right,0,81,81,81,2018-10-12 10:13:43.003847,2018-10-12 10:13:46.924071,0:00:03.920224,2,right,1,0.4673068217994114,34,f,2,16,2018_Oct_12_1004,MP_PerceptionTuring2,59.97769131276919,
83,resources/videos_generated\model(vcgpdm)-dataset(walking)-mode(ELBO)-parts(1)-dyn(26)-lvm(23)_final(6)_fail.mov,resources/videos_natural\training(31).mov,False,False,right,0,82,82,82,2018-10-12 10:13:48.508161,2018-10-12 10:13:52.428386,0:00:03.920225,2,right,1,0.4673504920128835,34,f,2,16,2018_Oct_12_1004,MP_PerceptionTuring2,59.97769131276919,
84,resources/videos_generated\model(vcgpdm)-dataset(walking)-mode(ELBO)-parts(1)-dyn(25)-lvm(28)_final(9).mov,resources/videos_natural\training(47).mov,True,True,left,0,83,83,83,2018-10-12 10:13:54.013476,2018-10-12 10:13:57.933701,0:00:03.920225,2,right,0,0.5005997877929076,34,f,2,16,2018_Oct_12_1004,MP_PerceptionTuring2,59.97769131276919,
85,resources/videos_generated\model(vcgpdm)-dataset(walking)-mode(ELBO)-parts(2)-dyn(27)-lvm(22)_final(2).mov,resources/videos_natural\training(2).mov,False,False,right,0,84,84,84,2018-10-12 10:13:59.550793,2018-10-12 10:14:03.488018,0:00:03.937225,2,right,1,0.5006103288787926,34,f,2,16,2018_Oct_12_1004,MP_PerceptionTuring2,59.97769131276919,
86,resources/videos_generated\model(vcgpdm)-dataset(walking)-mode(ELBO)-parts(1)-dyn(23)-lvm(22)_final(0).mov,resources/videos_natural\training(32).mov,True,True,left,0,85,85,85,2018-10-12 10:14:05.106111,2018-10-12 10:14:09.026335,0:00:03.920224,2,left,1,0.43394036937797864,34,f,2,16,2018_Oct_12_1004,MP_PerceptionTuring2,59.97769131276919,
87,resources/videos_generated\model(vcgpdm)-dataset(walking)-mode(ELBO)-parts(1)-dyn(25)-lvm(26)_final(3)_fail.mov,resources/videos_natural\training(29).mov,True,False,right,0,86,86,86,2018-10-12 10:14:10.577424,2018-10-12 10:14:14.530650,0:00:03.953226,2,right,1,0.5006262910947044,34,f,2,16,2018_Oct_12_1004,MP_PerceptionTuring2,59.97769131276919,
88,resources/videos_generated\model(vcgpdm)-dataset(walking)-mode(ELBO)-parts(1)-dyn(22)-lvm(28)_final(2).mov,resources/videos_natural\training(22).mov,True,True,left,0,87,87,87,2018-10-12 10:14:16.148742,2018-10-12 10:14:20.068967,0:00:03.920225,2,right,0,0.3838831613984439,34,f,2,16,2018_Oct_12_1004,MP_PerceptionTuring2,59.97769131276919,
89,resources/videos_generated\model(tmp)-dataset(walking)-numprim(12)_final(5).mov,resources/videos_natural\training(33).mov,False,True,left,0,88,88,88,2018-10-12 10:14:21.570052,2018-10-12 10:14:25.640285,0:00:04.070233,2,left,1,0.5172938562636773,34,f,2,16,2018_Oct_12_1004,MP_PerceptionTuring2,59.97769131276919,
90,resources/videos_generated\model(vcgpdm)-dataset(walking)-mode(ELBO)-parts(2)-dyn(26)-lvm(23)_final(4).mov,resources/videos_natural\training(42).mov,True,True,left,0,89,89,89,2018-10-12 10:14:27.275379,2018-10-12 10:14:31.245606,0:00:03.970227,2,left,1,0.4005946979541477,34,f,2,16,2018_Oct_12_1004,MP_PerceptionTuring2,59.97769131276919,
91,resources/videos_generated\model(dmp)-dataset(walking)-npsi(90)_final(1).mov,resources/videos_natural\training(23).mov,False,True,left,0,90,90,90,2018-10-12 10:15:05.224549,2018-10-12 10:15:09.144774,0:00:03.920225,3,right,0,1.234652404677945,34,f,2,16,2018_Oct_12_1004,MP_PerceptionTuring2,59.97769131276919,
92,resources/videos_generated\model(vcgpdm)-dataset(walking)-mode(ELBO)-parts(1)-dyn(27)-lvm(26)_final(6).mov,resources/videos_natural\training(7).mov,False,False,right,0,91,91,91,2018-10-12 10:15:11.496908,2018-10-12 10:15:15.600143,0:00:04.103235,3,right,1,0.6174136933527734,34,f,2,16,2018_Oct_12_1004,MP_PerceptionTuring2,59.97769131276919,
93,resources/videos_generated\model(vcgpdm)-dataset(walking)-mode(ELBO)-parts(1)-dyn(22)-lvm(23)_final(7).mov,resources/videos_natural\training(43).mov,False,True,left,0,92,92,92,2018-10-12 10:15:17.335242,2018-10-12 10:15:21.372473,0:00:04.037231,3,right,0,1.03453591061907,34,f,2,16,2018_Oct_12_1004,MP_PerceptionTuring2,59.97769131276919,
94,resources/videos_generated\model(vcgpdm)-dataset(walking)-mode(ELBO)-parts(2)-dyn(27)-lvm(18)_final(6).mov,resources/videos_natural\training(38).mov,False,True,left,0,93,93,93,2018-10-12 10:15:23.523596,2018-10-12 10:15:27.443820,0:00:03.920224,3,left,1,0.4841855098616179,34,f,2,16,2018_Oct_12_1004,MP_PerceptionTuring2,59.97769131276919,
95,resources/videos_generated\model(vcgpdm)-dataset(walking)-mode(ELBO)-parts(2)-dyn(27)-lvm(18)_final(4).mov,resources/videos_natural\training(6).mov,False,True,left,0,94,94,94,2018-10-12 10:15:29.044912,2018-10-12 10:15:33.099144,0:00:04.054232,3,left,1,0.4841147339984673,34,f,2,16,2018_Oct_12_1004,MP_PerceptionTuring2,59.97769131276919,
96,resources/videos_generated\model(vcgpdm)-dataset(walking)-mode(ELBO)-parts(2)-dyn(24)-lvm(21)_final(6).mov,resources/videos_natural\training(10).mov,False,True,left,0,95,95,95,2018-10-12 10:15:34.700235,2018-10-12 10:15:38.653461,0:00:03.953226,3,right,0,0.3673315481755708,34,f,2,16,2018_Oct_12_1004,MP_PerceptionTuring2,59.97769131276919,
97,resources/videos_generated\model(vcgpdm)-dataset(walking)-mode(ELBO)-parts(2)-dyn(24)-lvm(19)_final(6).mov,resources/videos_natural\training(44).mov,True,False,right,0,96,96,96,2018-10-12 10:15:40.138546,2018-10-12 10:15:44.224780,0:00:04.086234,3,right,1,0.4674637333937426,34,f,2,16,2018_Oct_12_1004,MP_PerceptionTuring2,59.97769131276919,
98,resources/videos_generated\model(vcgpdm)-dataset(walking)-mode(ELBO)-parts(2)-dyn(28)-lvm(17)_final(0).mov,resources/videos_natural\training(31).mov,True,False,right,0,97,97,97,2018-10-12 10:15:45.809871,2018-10-12 10:15:49.897104,0:00:04.087233,3,right,1,0.6677476801328339,34,f,2,16,2018_Oct_12_1004,MP_PerceptionTuring2,59.97769131276919,
99,resources/videos_generated\model(tmp)-dataset(walking)-numprim(13)_final(3).mov,resources/videos_natural\training(31).mov,False,True,left,0,98,98,98,2018-10-12 10:15:51.681206,2018-10-12 10:15:55.618432,0:00:03.937226,3,left,1,0.5006000889666211,34,f,2,16,2018_Oct_12_1004,MP_PerceptionTuring2,59.97769131276919,
100,resources/videos_generated\model(vcgpdm)-dataset(walking)-mode(ELBO)-parts(2)-dyn(22)-lvm(19)_final(0).mov,resources/videos_natural\training(0).mov,True,False,right,0,99,99,99,2018-10-12 10:15:57.236524,2018-10-12 10:16:01.323758,0:00:04.087234,3,right,1,0.550725061070807,34,f,2,16,2018_Oct_12_1004,MP_PerceptionTuring2,59.97769131276919,
101,resources/videos_generated\model(vcgpdm)-dataset(walking)-mode(ELBO)-parts(1)-dyn(28)-lvm(25)_final(4).mov,resources/videos_natural\training(4).mov,True,False,right,0,100,100,100,2018-10-12 10:16:02.991853,2018-10-12 10:16:06.928079,0:00:03.936226,3,right,1,0.4672508034564089,34,f,2,16,2018_Oct_12_1004,MP_PerceptionTuring2,59.97769131276919,
102,resources/videos_generated\model(dmp)-dataset(walking)-npsi(100)_final(1).mov,resources/videos_natural\training(20).mov,False,False,right,0,101,101,101,2018-10-12 10:16:08.513169,2018-10-12 10:16:12.416392,0:00:03.903223,3,right,1,0.38375094606271887,34,f,2,16,2018_Oct_12_1004,MP_PerceptionTuring2,59.97769131276919,
103,resources/videos_generated\model(vcgpdm)-dataset(walking)-mode(ELBO)-parts(1)-dyn(26)-lvm(27)_final(2).mov,resources/videos_natural\training(34).mov,False,False,right,0,102,102,102,2018-10-12 10:16:13.917478,2018-10-12 10:16:17.837703,0:00:03.920225,3,right,1,0.5340590017713112,34,f,2,16,2018_Oct_12_1004,MP_PerceptionTuring2,59.97769131276919,
104,resources/videos_generated\model(vcgpdm)-dataset(walking)-mode(ELBO)-parts(1)-dyn(28)-lvm(23)_final(4)_fail.mov,resources/videos_natural\training(44).mov,True,False,right,0,103,103,103,2018-10-12 10:16:19.488797,2018-10-12 10:16:23.593032,0:00:04.104235,3,right,1,0.7341947709587657,34,f,2,16,2018_Oct_12_1004,MP_PerceptionTuring2,59.97769131276919,
105,resources/videos_generated\model(vcgpdm)-dataset(walking)-mode(ELBO)-parts(1)-dyn(25)-lvm(24)_final(2).mov,resources/videos_natural\training(0).mov,True,False,right,0,104,104,104,2018-10-12 10:16:25.444138,2018-10-12 10:16:29.364362,0:00:03.920224,3,right,1,0.41741134419635273,34,f,2,16,2018_Oct_12_1004,MP_PerceptionTuring2,59.97769131276919,
106,resources/videos_generated\model(vcgpdm)-dataset(walking)-mode(ELBO)-parts(1)-dyn(25)-lvm(26)_final(5).mov,resources/videos_natural\training(12).mov,True,True,left,0,105,105,105,2018-10-12 10:16:30.898450,2018-10-12 10:16:34.802673,0:00:03.904223,3,right,0,0.43391236020625,34,f,2,16,2018_Oct_12_1004,MP_PerceptionTuring2,59.97769131276919,
107,resources/videos_generated\model(vcgpdm)-dataset(walking)-mode(ELBO)-parts(2)-dyn(26)-lvm(19)_final(4).mov,resources/videos_natural\training(21).mov,False,False,right,0,106,106,106,2018-10-12 10:16:36.353762,2018-10-12 10:16:40.273986,0:00:03.920224,3,right,1,0.3672758310062818,34,f,2,16,2018_Oct_12_1004,MP_PerceptionTuring2,59.97769131276919,
108,resources/videos_generated\model(vcgpdm)-dataset(walking)-mode(ELBO)-parts(2)-dyn(25)-lvm(18)_final(8).mov,resources/videos_natural\training(5).mov,False,False,right,0,107,107,107,2018-10-12 10:16:41.758071,2018-10-12 10:16:45.745299,0:00:03.987228,3,right,1,0.45048927203561107,34,f,2,16,2018_Oct_12_1004,MP_PerceptionTuring2,59.97769131276919,
109,resources/videos_generated\model(vcgpdm)-dataset(walking)-mode(ELBO)-parts(1)-dyn(23)-lvm(26)_final(8)_hip-corrected.mov,resources/videos_natural\training(4).mov,True,True,left,0,108,108,108,2018-10-12 10:16:47.313388,2018-10-12 10:16:51.399622,0:00:04.086234,3,right,0,0.46709840947050907,34,f,2,16,2018_Oct_12_1004,MP_PerceptionTuring2,59.97769131276919,
110,resources/videos_generated\model(vcgpdm)-dataset(walking)-mode(ELBO)-parts(1)-dyn(24)-lvm(27)_final(5).mov,resources/videos_natural\training(28).mov,True,True,left,0,109,109,109,2018-10-12 10:16:52.984713,2018-10-12 10:16:56.921938,0:00:03.937225,3,right,0,0.5006636366565544,34,f,2,16,2018_Oct_12_1004,MP_PerceptionTuring2,59.97769131276919,
111,resources/videos_generated\model(vcgpdm)-dataset(walking)-mode(ELBO)-parts(2)-dyn(28)-lvm(21)_final(0).mov,resources/videos_natural\training(45).mov,True,False,right,0,110,110,110,2018-10-12 10:16:58.539031,2018-10-12 10:17:02.443254,0:00:03.904223,3,right,1,0.41723063986501074,34,f,2,16,2018_Oct_12_1004,MP_PerceptionTuring2,59.97769131276919,
112,resources/videos_generated\model(vcgpdm)-dataset(walking)-mode(ELBO)-parts(1)-dyn(23)-lvm(22)_final(6)_fail.mov,resources/videos_natural\training(12).mov,False,False,right,0,111,111,111,2018-10-12 10:17:03.977342,2018-10-12 10:17:08.064575,0:00:04.087233,3,right,1,0.4505660713762154,34,f,2,16,2018_Oct_12_1004,MP_PerceptionTuring2,59.97769131276919,
113,resources/videos_generated\model(vcgpdm)-dataset(walking)-mode(ELBO)-parts(1)-dyn(26)-lvm(22)_final(2).mov,resources/videos_natural\training(36).mov,False,False,right,0,112,112,112,2018-10-12 10:17:09.632665,2018-10-12 10:17:13.702898,0:00:04.070233,3,right,1,0.4672694762375613,34,f,2,16,2018_Oct_12_1004,MP_PerceptionTuring2,59.97769131276919,
114,resources/videos_generated\model(vcgpdm)-dataset(walking)-mode(ELBO)-parts(1)-dyn(25)-lvm(28)_final(7).mov,resources/videos_natural\training(46).mov,False,False,right,0,113,113,113,2018-10-12 10:17:15.286988,2018-10-12 10:17:19.224214,0:00:03.937226,3,right,1,0.6007741373550743,34,f,2,16,2018_Oct_12_1004,MP_PerceptionTuring2,59.97769131276919,
115,resources/videos_generated\model(vcgpdm)-dataset(walking)-mode(ELBO)-parts(2)-dyn(26)-lvm(17)_final(2).mov,resources/videos_natural\training(48).mov,False,True,left,0,114,114,114,2018-10-12 10:17:20.942312,2018-10-12 10:17:24.845535,0:00:03.903223,3,right,0,0.3838681027036728,34,f,2,16,2018_Oct_12_1004,MP_PerceptionTuring2,59.97769131276919,
116,resources/videos_generated\model(vcgpdm)-dataset(walking)-mode(ELBO)-parts(2)-dyn(26)-lvm(21)_final(2).mov,resources/videos_natural\training(23).mov,False,True,left,0,115,115,115,2018-10-12 10:17:26.346621,2018-10-12 10:17:30.283846,0:00:03.937225,3,right,0,0.6676184765360631,34,f,2,16,2018_Oct_12_1004,MP_PerceptionTuring2,59.97769131276919,
117,resources/videos_generated\model(vcgpdm)-dataset(walking)-mode(ELBO)-parts(1)-dyn(25)-lvm(28)_final(5).mov,resources/videos_natural\training(44).mov,True,False,right,0,116,116,116,2018-10-12 10:17:32.067948,2018-10-12 10:17:36.005173,0:00:03.937225,3,left,0,0.4171797414783214,34,f,2,16,2018_Oct_12_1004,MP_PerceptionTuring2,59.97769131276919,
118,resources/videos_generated\model(vcgpdm)-dataset(walking)-mode(ELBO)-parts(2)-dyn(25)-lvm(20)_final(4).mov,resources/videos_natural\training(46).mov,True,True,left,0,117,117,117,2018-10-12 10:17:37.540261,2018-10-12 10:17:41.459485,0:00:03.919224,3,left,1,0.43393193650899775,34,f,2,16,2018_Oct_12_1004,MP_PerceptionTuring2,59.97769131276919,
119,resources/videos_generated\model(vcgpdm)-dataset(walking)-mode(ELBO)-parts(1)-dyn(28)-lvm(24)_final(0).mov,resources/videos_natural\training(9).mov,False,False,right,0,118,118,118,2018-10-12 10:17:43.011574,2018-10-12 10:17:46.947799,0:00:03.936225,3,left,0,0.46731043588624743,34,f,2,16,2018_Oct_12_1004,MP_PerceptionTuring2,59.97769131276919,
120,resources/videos_generated\model(vcgpdm)-dataset(walking)-mode(ELBO)-parts(1)-dyn(22)-lvm(27)_final(1)_fail.mov,resources/videos_natural\training(23).mov,True,True,left,0,119,119,119,2018-10-12 10:17:48.532890,2018-10-12 10:17:52.469115,0:00:03.936225,3,left,1,0.35047574932832504,34,f,2,16,2018_Oct_12_1004,MP_PerceptionTuring2,59.97769131276919,
121,resources/videos_generated\model(vcgpdm)-dataset(walking)-mode(ELBO)-parts(2)-dyn(23)-lvm(22)_final(8).mov,resources/videos_natural\training(40).mov,False,True,left,0,120,120,120,2018-10-12 10:17:53.937199,2018-10-12 10:17:58.024433,0:00:04.087234,3,left,1,0.45094615281959705,34,f,2,16,2018_Oct_12_1004,MP_PerceptionTuring2,59.97769131276919,
122,resources/videos_generated\model(vcgpdm)-dataset(walking)-mode(ELBO)-parts(2)-dyn(22)-lvm(23)_final(8).mov,resources/videos_natural\training(8).mov,False,False,right,0,121,121,121,2018-10-12 10:17:59.592523,2018-10-12 10:18:03.678756,0:00:04.086233,3,right,1,0.46729266662669033,34,f,2,16,2018_Oct_12_1004,MP_PerceptionTuring2,59.97769131276919,
123,resources/videos_generated\model(vcgpdm)-dataset(walking)-mode(ELBO)-parts(1)-dyn(28)-lvm(25)_final(0).mov,resources/videos_natural\training(7).mov,False,True,left,0,122,122,122,2018-10-12 10:18:05.263847,2018-10-12 10:18:09.201072,0:00:03.937225,3,right,0,0.4840054078781577,34,f,2,16,2018_Oct_12_1004,MP_PerceptionTuring2,59.97769131276919,
124,resources/videos_generated\model(tmp)-dataset(walking)-numprim(14)_final(3).mov,resources/videos_natural\training(28).mov,False,True,left,0,123,123,123,2018-10-12 10:18:10.802164,2018-10-12 10:18:14.905398,0:00:04.103234,3,right,0,0.45058564767896314,34,f,2,16,2018_Oct_12_1004,MP_PerceptionTuring2,59.97769131276919,
125,resources/videos_generated\model(vcgpdm)-dataset(walking)-mode(ELBO)-parts(2)-dyn(22)-lvm(21)_final(6).mov,resources/videos_natural\training(35).mov,True,False,right,0,124,124,124,2018-10-12 10:18:16.473488,2018-10-12 10:18:20.376711,0:00:03.903223,3,right,1,0.45060883806809215,34,f,2,16,2018_Oct_12_1004,MP_PerceptionTuring2,59.97769131276919,
126,resources/videos_generated\model(vcgpdm)-dataset(walking)-mode(ELBO)-parts(1)-dyn(25)-lvm(25)_final(7).mov,resources/videos_natural\training(7).mov,False,False,right,0,125,125,125,2018-10-12 10:18:21.944801,2018-10-12 10:18:26.048036,0:00:04.103235,3,left,0,0.7844555724850579,34,f,2,16,2018_Oct_12_1004,MP_PerceptionTuring2,59.97769131276919,
127,resources/videos_generated\model(dmp)-dataset(walking)-npsi(60)_final(7).mov,resources/videos_natural\training(13).mov,False,True,left,0,126,126,126,2018-10-12 10:18:27.950145,2018-10-12 10:18:31.970375,0:00:04.020230,3,left,1,0.4341644427486244,34,f,2,16,2018_Oct_12_1004,MP_PerceptionTuring2,59.97769131276919,
128,resources/videos_generated\model(vcgpdm)-dataset(walking)-mode(ELBO)-parts(1)-dyn(27)-lvm(26)_final(4).mov,resources/videos_natural\training(0).mov,False,False,right,0,127,127,127,2018-10-12 10:18:33.521463,2018-10-12 10:18:37.508691,0:00:03.987228,3,right,1,0.38400905208209224,34,f,2,16,2018_Oct_12_1004,MP_PerceptionTuring2,59.97769131276919,
129,resources/videos_generated\model(vcgpdm)-dataset(walking)-mode(ELBO)-parts(1)-dyn(28)-lvm(25)_final(6).mov,resources/videos_natural\training(30).mov,False,False,right,0,128,128,128,2018-10-12 10:18:39.009777,2018-10-12 10:18:42.930001,0:00:03.920224,3,right,1,0.467321278145846,34,f,2,16,2018_Oct_12_1004,MP_PerceptionTuring2,59.97769131276919,
130,resources/videos_generated\model(vcgpdm)-dataset(walking)-mode(ELBO)-parts(2)-dyn(24)-lvm(17)_final(2).mov,resources/videos_natural\training(29).mov,False,True,left,0,129,129,129,2018-10-12 10:18:44.514092,2018-10-12 10:18:48.434316,0:00:03.920224,3,right,0,0.40056036413125184,34,f,2,16,2018_Oct_12_1004,MP_PerceptionTuring2,59.97769131276919,
131,resources/videos_generated\model(vcgpdm)-dataset(walking)-mode(ELBO)-parts(1)-dyn(28)-lvm(27)_final(2).mov,resources/videos_natural\training(33).mov,False,False,right,0,130,130,130,2018-10-12 10:18:49.952403,2018-10-12 10:18:53.939631,0:00:03.987228,3,right,1,0.3838795473116079,34,f,2,16,2018_Oct_12_1004,MP_PerceptionTuring2,59.97769131276919,
132,resources/videos_generated\model(vcgpdm)-dataset(walking)-mode(ELBO)-parts(1)-dyn(22)-lvm(22)_final(9).mov,resources/videos_natural\training(48).mov,False,True,left,0,131,131,131,2018-10-12 10:18:55.440717,2018-10-12 10:18:59.510950,0:00:04.070233,3,left,1,0.4342749735642428,34,f,2,16,2018_Oct_12_1004,MP_PerceptionTuring2,59.97769131276919,
133,resources/videos_generated\model(vcgpdm)-dataset(walking)-mode(ELBO)-parts(2)-dyn(22)-lvm(19)_final(6).mov,resources/videos_natural\training(16).mov,False,False,right,0,132,132,132,2018-10-12 10:19:01.062038,2018-10-12 10:19:04.999264,0:00:03.937226,3,right,1,0.5506913295953382,34,f,2,16,2018_Oct_12_1004,MP_PerceptionTuring2,59.97769131276919,
134,resources/videos_generated\model(vcgpdm)-dataset(walking)-mode(ELBO)-parts(2)-dyn(23)-lvm(20)_final(0).mov,resources/videos_natural\training(9).mov,True,False,right,0,133,133,133,2018-10-12 10:19:06.667359,2018-10-12 10:19:10.570582,0:00:03.903223,3,right,1,0.48392710266807626,34,f,2,16,2018_Oct_12_1004,MP_PerceptionTuring2,59.97769131276919,
135,resources/videos_generated\model(vcgpdm)-dataset(walking)-mode(ELBO)-parts(1)-dyn(27)-lvm(24)_final(6).mov,resources/videos_natural\training(8).mov,False,True,left,0,134,134,134,2018-10-12 10:19:12.171674,2018-10-12 10:19:16.291910,0:00:04.120236,3,left,1,0.9010872678436499,34,f,2,16,2018_Oct_12_1004,MP_PerceptionTuring2,59.97769131276919,
136,resources/videos_generated\model(vcgpdm)-dataset(walking)-mode(ELBO)-parts(2)-dyn(26)-lvm(17)_final(8).mov,resources/videos_natural\training(23).mov,False,True,left,0,135,135,135,2018-10-12 10:20:01.547498,2018-10-12 10:20:05.667734,0:00:04.120236,4,left,1,0.5840869958838084,34,f,2,16,2018_Oct_12_1004,MP_PerceptionTuring2,59.97769131276919,
137,resources/videos_generated\model(tmp)-dataset(walking)-numprim(14)_final(7).mov,resources/videos_natural\training(18).mov,False,False,right,0,136,136,136,2018-10-12 10:20:07.369831,2018-10-12 10:20:11.306056,0:00:03.936225,4,left,0,0.4338539324726298,34,f,2,16,2018_Oct_12_1004,MP_PerceptionTuring2,59.97769131276919,
138,resources/videos_generated\model(vcgpdm)-dataset(walking)-mode(ELBO)-parts(2)-dyn(26)-lvm(21)_final(6).mov,resources/videos_natural\training(2).mov,True,True,left,0,137,137,137,2018-10-12 10:20:12.857145,2018-10-12 10:20:16.777369,0:00:03.920224,4,left,1,0.5840761536237551,34,f,2,16,2018_Oct_12_1004,MP_PerceptionTuring2,59.97769131276919,
139,resources/videos_generated\model(vcgpdm)-dataset(walking)-mode(ELBO)-parts(1)-dyn(27)-lvm(22)_final(6).mov,resources/videos_natural\training(14).mov,False,True,left,0,138,138,138,2018-10-12 10:20:18.479466,2018-10-12 10:20:22.582701,0:00:04.103235,4,left,1,0.400555545349107,34,f,2,16,2018_Oct_12_1004,MP_PerceptionTuring2,59.97769131276919,
140,resources/videos_generated\model(dmp)-dataset(walking)-npsi(100)_final(9).mov,resources/videos_natural\training(15).mov,True,True,left,0,139,139,139,2018-10-12 10:20:24.100788,2018-10-12 10:20:28.171021,0:00:04.070233,4,right,0,0.567461896232544,34,f,2,16,2018_Oct_12_1004,MP_PerceptionTuring2,59.97769131276919,
141,resources/videos_generated\model(vcgpdm)-dataset(walking)-mode(ELBO)-parts(1)-dyn(27)-lvm(28)_final(2).mov,resources/videos_natural\training(40).mov,False,True,left,0,140,140,140,2018-10-12 10:20:29.855117,2018-10-12 10:20:33.775341,0:00:03.920224,4,left,1,0.4839981797049404,34,f,2,16,2018_Oct_12_1004,MP_PerceptionTuring2,59.97769131276919,
142,resources/videos_generated\model(vcgpdm)-dataset(walking)-mode(ELBO)-parts(2)-dyn(28)-lvm(23)_final(2).mov,resources/videos_natural\training(37).mov,True,True,left,0,141,141,141,2018-10-12 10:20:35.377433,2018-10-12 10:20:39.430665,0:00:04.053232,4,left,1,0.48397257992473897,34,f,2,16,2018_Oct_12_1004,MP_PerceptionTuring2,59.97769131276919,
143,resources/videos_generated\model(vcgpdm)-dataset(walking)-mode(ELBO)-parts(2)-dyn(24)-lvm(19)_final(0).mov,resources/videos_natural\training(15).mov,True,False,right,0,142,142,142,2018-10-12 10:20:41.031756,2018-10-12 10:20:44.984983,0:00:03.953227,4,left,0,0.40050073170186806,34,f,2,16,2018_Oct_12_1004,MP_PerceptionTuring2,59.97769131276919,
144,resources/videos_generated\model(vcgpdm)-dataset(walking)-mode(ELBO)-parts(1)-dyn(23)-lvm(22)_final(8)_fail.mov,resources/videos_natural\training(17).mov,False,True,left,0,143,143,143,2018-10-12 10:20:46.503069,2018-10-12 10:20:50.423294,0:00:03.920225,4,left,1,0.8511258331595855,34,f,2,16,2018_Oct_12_1004,MP_PerceptionTuring2,59.97769131276919,
145,resources/videos_generated\model(vcgpdm)-dataset(walking)-mode(ELBO)-parts(1)-dyn(27)-lvm(24)_final(0).mov,resources/videos_natural\training(26).mov,True,False,right,0,144,144,144,2018-10-12 10:20:52.391406,2018-10-12 10:20:56.344632,0:00:03.953226,4,right,1,0.4506127533286417,34,f,2,16,2018_Oct_12_1004,MP_PerceptionTuring2,59.97769131276919,
146,resources/videos_generated\model(vcgpdm)-dataset(walking)-mode(ELBO)-parts(1)-dyn(25)-lvm(22)_final(7).mov,resources/videos_natural\training(45).mov,True,False,right,0,145,145,145,2018-10-12 10:20:57.912722,2018-10-12 10:21:02.016957,0:00:04.104235,4,right,1,0.4841430443439094,34,f,2,16,2018_Oct_12_1004,MP_PerceptionTuring2,59.97769131276919,
147,resources/videos_generated\model(vcgpdm)-dataset(walking)-mode(ELBO)-parts(2)-dyn(24)-lvm(17)_final(4).mov,resources/videos_natural\training(38).mov,True,False,right,0,146,146,146,2018-10-12 10:21:03.618048,2018-10-12 10:21:07.721283,0:00:04.103235,4,right,1,0.7343104217306973,34,f,2,16,2018_Oct_12_1004,MP_PerceptionTuring2,59.97769131276919,
148,resources/videos_generated\model(vcgpdm)-dataset(walking)-mode(ELBO)-parts(1)-dyn(27)-lvm(22)_final(0).mov,resources/videos_natural\training(17).mov,False,True,left,0,147,147,147,2018-10-12 10:21:09.573389,2018-10-12 10:21:13.509614,0:00:03.936225,4,right,0,0.6341107735624973,34,f,2,16,2018_Oct_12_1004,MP_PerceptionTuring2,59.97769131276919,
149,resources/videos_generated\model(vcgpdm)-dataset(walking)-mode(ELBO)-parts(1)-dyn(27)-lvm(22)_final(2).mov,resources/videos_natural\training(7).mov,True,True,left,0,148,148,148,2018-10-12 10:21:15.261714,2018-10-12 10:21:19.181938,0:00:03.920224,4,left,1,0.500703391609477,34,f,2,16,2018_Oct_12_1004,MP_PerceptionTuring2,59.97769131276919,
150,resources/videos_generated\model(vcgpdm)-dataset(walking)-mode(ELBO)-parts(2)-dyn(26)-lvm(17)_final(0).mov,resources/videos_natural\training(10).mov,True,True,left,0,149,149,149,2018-10-12 10:21:20.799031,2018-10-12 10:21:24.719255,0:00:03.920224,4,right,0,0.4673577201861008,34,f,2,16,2018_Oct_12_1004,MP_PerceptionTuring2,59.97769131276919,
151,resources/videos_generated\model(dmp)-dataset(walking)-npsi(80)_final(3).mov,resources/videos_natural\training(1).mov,False,False,right,0,150,150,150,2018-10-12 10:21:26.304346,2018-10-12 10:21:30.224570,0:00:03.920224,4,left,0,0.3505853766223481,34,f,2,16,2018_Oct_12_1004,MP_PerceptionTuring2,59.97769131276919,
152,resources/videos_generated\model(dmp)-dataset(walking)-npsi(80)_final(1).mov,resources/videos_natural\training(6).mov,True,False,right,0,151,151,151,2018-10-12 10:21:31.692654,2018-10-12 10:21:35.595877,0:00:03.903223,4,right,1,0.43396958324456136,34,f,2,16,2018_Oct_12_1004,MP_PerceptionTuring2,59.97769131276919,
153,resources/videos_generated\model(vcgpdm)-dataset(walking)-mode(ELBO)-parts(1)-dyn(22)-lvm(22)_final(7).mov,resources/videos_natural\training(42).mov,True,True,left,0,152,152,152,2018-10-12 10:21:37.146966,2018-10-12 10:21:41.067190,0:00:03.920224,4,left,1,0.4338810381223084,34,f,2,16,2018_Oct_12_1004,MP_PerceptionTuring2,59.97769131276919,
154,resources/videos_generated\model(vcgpdm)-dataset(walking)-mode(ELBO)-parts(1)-dyn(23)-lvm(24)_final(6).mov,resources/videos_natural\training(3).mov,True,True,left,0,153,153,153,2018-10-12 10:21:42.618279,2018-10-12 10:21:46.555504,0:00:03.937225,4,left,1,0.5006446627016885,34,f,2,16,2018_Oct_12_1004,MP_PerceptionTuring2,59.97769131276919,
155,resources/videos_generated\model(vcgpdm)-dataset(walking)-mode(ELBO)-parts(2)-dyn(24)-lvm(21)_final(0).mov,resources/videos_natural\training(34).mov,False,True,left,0,154,154,154,2018-10-12 10:21:48.173597,2018-10-12 10:21:52.126823,0:00:03.953226,4,right,0,0.5508726362741072,34,f,2,16,2018_Oct_12_1004,MP_PerceptionTuring2,59.97769131276919,
156,resources/videos_generated\model(tmp)-dataset(walking)-numprim(12)_final(9).mov,resources/videos_natural\training(22).mov,False,True,left,0,155,155,155,2018-10-12 10:21:53.794918,2018-10-12 10:21:57.798147,0:00:04.003229,4,right,0,0.4005621711744425,34,f,2,16,2018_Oct_12_1004,MP_PerceptionTuring2,59.97769131276919,
157,resources/videos_generated\model(vcgpdm)-dataset(walking)-mode(ELBO)-parts(1)-dyn(24)-lvm(23)_final(5).mov,resources/videos_natural\training(15).mov,True,True,left,0,156,156,156,2018-10-12 10:21:59.316234,2018-10-12 10:22:03.219457,0:00:03.903223,4,right,0,1.384927331259405,34,f,2,16,2018_Oct_12_1004,MP_PerceptionTuring2,59.97769131276919,
158,resources/videos_generated\model(vcgpdm)-dataset(walking)-mode(ELBO)-parts(2)-dyn(28)-lvm(21)_final(8).mov,resources/videos_natural\training(25).mov,False,True,left,0,157,157,157,2018-10-12 10:22:05.721600,2018-10-12 10:22:09.674826,0:00:03.953226,4,left,1,0.8009011724998345,34,f,2,16,2018_Oct_12_1004,MP_PerceptionTuring2,59.97769131276919,
159,resources/videos_generated\model(vcgpdm)-dataset(walking)-mode(ELBO)-parts(1)-dyn(27)-lvm(22)_final(8).mov,resources/videos_natural\training(16).mov,False,False,right,0,158,158,158,2018-10-12 10:22:11.593936,2018-10-12 10:22:15.530161,0:00:03.936225,4,right,1,0.6508509216373568,34,f,2,16,2018_Oct_12_1004,MP_PerceptionTuring2,59.97769131276919,
160,resources/videos_generated\model(tmp)-dataset(walking)-numprim(11)_final(9).mov,resources/videos_natural\training(35).mov,True,True,left,0,159,159,159,2018-10-12 10:22:17.298263,2018-10-12 10:22:21.218487,0:00:03.920224,4,left,1,0.5840758524504963,34,f,2,16,2018_Oct_12_1004,MP_PerceptionTuring2,59.97769131276919,
161,resources/videos_generated\model(vcgpdm)-dataset(walking)-mode(ELBO)-parts(1)-dyn(23)-lvm(24)_final(2).mov,resources/videos_natural\training(7).mov,False,False,right,0,160,160,160,2018-10-12 10:22:22.919584,2018-10-12 10:22:26.823807,0:00:03.904223,4,right,1,0.40061517777849076,34,f,2,16,2018_Oct_12_1004,MP_PerceptionTuring2,59.97769131276919,
162,resources/videos_generated\model(vcgpdm)-dataset(walking)-mode(ELBO)-parts(1)-dyn(22)-lvm(23)_final(9).mov,resources/videos_natural\training(4).mov,True,True,left,0,161,161,161,2018-10-12 10:22:28.340894,2018-10-12 10:22:32.295120,0:00:03.954226,4,left,1,0.5172339226601252,34,f,2,16,2018_Oct_12_1004,MP_PerceptionTuring2,59.97769131276919,
163,resources/videos_generated\model(vcgpdm)-dataset(walking)-mode(ELBO)-parts(1)-dyn(22)-lvm(27)_final(5)_fail.mov,resources/videos_natural\training(41).mov,True,True,left,0,162,162,162,2018-10-12 10:22:33.929214,2018-10-12 10:22:37.866439,0:00:03.937225,4,left,1,0.45071183953677973,34,f,2,16,2018_Oct_12_1004,MP_PerceptionTuring2,59.97769131276919,
164,resources/videos_generated\model(vcgpdm)-dataset(walking)-mode(ELBO)-parts(1)-dyn(23)-lvm(28)_final(7).mov,resources/videos_natural\training(19).mov,False,False,right,0,163,163,163,2018-10-12 10:22:39.434529,2018-10-12 10:22:43.520762,0:00:04.086233,4,left,0,0.6007434176185598,34,f,2,16,2018_Oct_12_1004,MP_PerceptionTuring2,59.97769131276919,
165,resources/videos_generated\model(vcgpdm)-dataset(walking)-mode(ELBO)-parts(1)-dyn(23)-lvm(26)_final(2).mov,resources/videos_natural\training(19).mov,True,True,left,0,164,164,164,2018-10-12 10:22:45.238861,2018-10-12 10:22:49.209088,0:00:03.970227,4,left,1,0.4839683634904759,34,f,2,16,2018_Oct_12_1004,MP_PerceptionTuring2,59.97769131276919,
166,resources/videos_generated\model(dmp)-dataset(walking)-npsi(60)_final(3).mov,resources/videos_natural\training(34).mov,True,False,right,0,165,165,165,2018-10-12 10:22:50.811179,2018-10-12 10:22:54.730404,0:00:03.919225,4,right,1,0.41735773524442266,34,f,2,16,2018_Oct_12_1004,MP_PerceptionTuring2,59.97769131276919,
167,resources/videos_generated\model(vcgpdm)-dataset(walking)-mode(ELBO)-parts(1)-dyn(25)-lvm(24)_final(4).mov,resources/videos_natural\training(13).mov,False,True,left,0,166,166,166,2018-10-12 10:22:56.265491,2018-10-12 10:23:00.318723,0:00:04.053232,4,left,1,0.41718576495622983,34,f,2,16,2018_Oct_12_1004,MP_PerceptionTuring2,59.97769131276919,
168,resources/videos_generated\model(vcgpdm)-dataset(walking)-mode(ELBO)-parts(1)-dyn(26)-lvm(25)_final(2).mov,resources/videos_natural\training(28).mov,True,False,right,0,167,167,167,2018-10-12 10:23:01.853811,2018-10-12 10:23:05.957046,0:00:04.103235,4,right,1,0.5840854900143313,34,f,2,16,2018_Oct_12_1004,MP_PerceptionTuring2,59.97769131276919,
169,resources/videos_generated\model(vcgpdm)-dataset(walking)-mode(ELBO)-parts(1)-dyn(24)-lvm(23)_final(7).mov,resources/videos_natural\training(17).mov,False,True,left,0,168,168,168,2018-10-12 10:23:07.658143,2018-10-12 10:23:11.612369,0:00:03.954226,4,left,1,0.8843618772893933,34,f,2,16,2018_Oct_12_1004,MP_PerceptionTuring2,59.97769131276919,
170,resources/videos_generated\model(tmp)-dataset(walking)-numprim(12)_final(7).mov,resources/videos_natural\training(47).mov,True,False,right,0,169,169,169,2018-10-12 10:23:13.613484,2018-10-12 10:23:17.667715,0:00:04.054231,4,left,0,0.41731466737928713,34,f,2,16,2018_Oct_12_1004,MP_PerceptionTuring2,59.97769131276919,
171,resources/videos_generated\model(vcgpdm)-dataset(walking)-mode(ELBO)-parts(1)-dyn(28)-lvm(27)_final(4).mov,resources/videos_natural\training(40).mov,False,False,right,0,170,170,170,2018-10-12 10:23:19.201803,2018-10-12 10:23:23.272036,0:00:04.070233,4,left,0,0.45048866968772927,34,f,2,16,2018_Oct_12_1004,MP_PerceptionTuring2,59.97769131276919,
172,resources/videos_generated\model(vcgpdm)-dataset(walking)-mode(ELBO)-parts(2)-dyn(26)-lvm(21)_final(4).mov,resources/videos_natural\training(11).mov,False,True,left,0,171,171,171,2018-10-12 10:23:24.840126,2018-10-12 10:23:28.743349,0:00:03.903223,4,right,0,1.484913145968676,34,f,2,16,2018_Oct_12_1004,MP_PerceptionTuring2,59.97769131276919,
173,resources/videos_generated\model(vcgpdm)-dataset(walking)-mode(ELBO)-parts(2)-dyn(28)-lvm(23)_final(6).mov,resources/videos_natural\training(36).mov,False,True,left,0,172,172,172,2018-10-12 10:23:31.345498,2018-10-12 10:23:35.332726,0:00:03.987228,4,right,0,0.46732127814539126,34,f,2,16,2018_Oct_12_1004,MP_PerceptionTuring2,59.97769131276919,
174,resources/videos_generated\model(dmp)-dataset(walking)-npsi(80)_final(7).mov,resources/videos_natural\training(42).mov,False,True,left,0,173,173,173,2018-10-12 10:23:36.916816,2018-10-12 10:23:40.804039,0:00:03.887223,4,right,0,0.31736439118776616,34,f,2,16,2018_Oct_12_1004,MP_PerceptionTuring2,59.97769131276919,
175,resources/videos_generated\model(dmp)-dataset(walking)-npsi(80)_final(5).mov,resources/videos_natural\training(2).mov,False,True,left,0,174,174,174,2018-10-12 10:23:42.238121,2018-10-12 10:23:46.192347,0:00:03.954226,4,right,0,0.4839632435346175,34,f,2,16,2018_Oct_12_1004,MP_PerceptionTuring2,59.97769131276919,
176,resources/videos_generated\model(vcgpdm)-dataset(walking)-mode(ELBO)-parts(1)-dyn(28)-lvm(27)_final(6).mov,resources/videos_natural\training(34).mov,True,True,left,0,175,175,175,2018-10-12 10:23:47.793439,2018-10-12 10:23:51.713663,0:00:03.920224,4,right,0,0.5840321822370242,34,f,2,16,2018_Oct_12_1004,MP_PerceptionTuring2,59.97769131276919,
177,resources/videos_generated\model(vcgpdm)-dataset(walking)-mode(ELBO)-parts(2)-dyn(23)-lvm(18)_final(4).mov,resources/videos_natural\training(6).mov,True,True,left,0,176,176,176,2018-10-12 10:23:53.414760,2018-10-12 10:23:57.317983,0:00:03.903223,4,left,1,0.41718275321682086,34,f,2,16,2018_Oct_12_1004,MP_PerceptionTuring2,59.97769131276919,
178,resources/videos_generated\model(vcgpdm)-dataset(walking)-mode(ELBO)-parts(1)-dyn(27)-lvm(24)_final(4).mov,resources/videos_natural\training(39).mov,False,True,left,0,177,177,177,2018-10-12 10:23:58.853071,2018-10-12 10:24:02.939305,0:00:04.086234,4,right,0,0.6007575727917356,34,f,2,16,2018_Oct_12_1004,MP_PerceptionTuring2,59.97769131276919,
179,resources/videos_generated\model(vcgpdm)-dataset(walking)-mode(ELBO)-parts(1)-dyn(26)-lvm(25)_final(6).mov,resources/videos_natural\training(33).mov,True,False,right,0,178,178,178,2018-10-12 10:24:04.657403,2018-10-12 10:24:08.677633,0:00:04.020230,4,left,0,0.5840114012389677,34,f,2,16,2018_Oct_12_1004,MP_PerceptionTuring2,59.97769131276919,
180,resources/videos_generated\model(vcgpdm)-dataset(walking)-mode(ELBO)-parts(1)-dyn(22)-lvm(25)_final(1).mov,resources/videos_natural\training(36).mov,True,False,right,0,179,179,179,2018-10-12 10:24:10.379730,2018-10-12 10:24:14.482965,0:00:04.103235,4,right,1,0.484074677872286,34,f,2,16,2018_Oct_12_1004,MP_PerceptionTuring2,59.97769131276919,
181,resources/videos_generated\model(vcgpdm)-dataset(walking)-mode(ELBO)-parts(1)-dyn(22)-lvm(27)_final(3)_fail.mov,resources/videos_natural\training(39).mov,False,True,left,0,180,180,180,2018-10-12 10:25:12.483283,2018-10-12 10:25:16.586517,0:00:04.103234,5,left,1,12.828028807884493,34,f,2,16,2018_Oct_12_1004,MP_PerceptionTuring2,59.97769131276919,
182,resources/videos_generated\model(vcgpdm)-dataset(walking)-mode(ELBO)-parts(2)-dyn(27)-lvm(20)_final(2).mov,resources/videos_natural\training(39).mov,True,False,right,0,181,181,181,2018-10-12 10:25:30.532315,2018-10-12 10:25:34.435538,0:00:03.903223,5,left,0,1.5016587151740168,34,f,2,16,2018_Oct_12_1004,MP_PerceptionTuring2,59.97769131276919,
183,resources/videos_generated\model(vcgpdm)-dataset(walking)-mode(ELBO)-parts(2)-dyn(26)-lvm(19)_final(0).mov,resources/videos_natural\training(39).mov,False,False,right,0,182,182,182,2018-10-12 10:25:37.054688,2018-10-12 10:25:41.140922,0:00:04.086234,5,left,0,0.7174260113647506,34,f,2,16,2018_Oct_12_1004,MP_PerceptionTuring2,59.97769131276919,
184,resources/videos_generated\model(vcgpdm)-dataset(walking)-mode(ELBO)-parts(1)-dyn(25)-lvm(22)_final(9).mov,resources/videos_natural\training(0).mov,False,True,left,0,183,183,183,2018-10-12 10:25:42.976027,2018-10-12 10:25:46.879250,0:00:03.903223,5,left,1,0.667505235155204,34,f,2,16,2018_Oct_12_1004,MP_PerceptionTuring2,59.97769131276919,
185,resources/videos_generated\model(vcgpdm)-dataset(walking)-mode(ELBO)-parts(1)-dyn(24)-lvm(25)_final(1).mov,resources/videos_natural\training(28).mov,False,True,left,0,184,184,184,2018-10-12 10:25:48.664352,2018-10-12 10:25:52.567575,0:00:03.903223,5,right,0,1.0677529807931023,34,f,2,16,2018_Oct_12_1004,MP_PerceptionTuring2,59.97769131276919,
186,resources/videos_generated\model(vcgpdm)-dataset(walking)-mode(ELBO)-parts(1)-dyn(26)-lvm(27)_final(4).mov,resources/videos_natural\training(12).mov,False,False,right,0,185,185,185,2018-10-12 10:25:54.752700,2018-10-12 10:25:58.789931,0:00:04.037231,5,left,0,0.45076002735868315,34,f,2,16,2018_Oct_12_1004,MP_PerceptionTuring2,59.97769131276919,
187,resources/videos_generated\model(vcgpdm)-dataset(walking)-mode(ELBO)-parts(2)-dyn(26)-lvm(23)_final(6).mov,resources/videos_natural\training(3).mov,True,True,left,0,186,186,186,2018-10-12 10:26:00.358021,2018-10-12 10:26:04.395252,0:00:04.037231,5,left,1,0.3340530385285092,34,f,2,16,2018_Oct_12_1004,MP_PerceptionTuring2,59.97769131276919,
188,resources/videos_generated\model(dmp)-dataset(walking)-npsi(60)_final(5).mov,resources/videos_natural\training(39).mov,True,False,right,0,187,187,187,2018-10-12 10:26:05.846335,2018-10-12 10:26:09.849564,0:00:04.003229,5,right,1,0.5174194457740668,34,f,2,16,2018_Oct_12_1004,MP_PerceptionTuring2,59.97769131276919,
189,resources/videos_generated\model(vcgpdm)-dataset(walking)-mode(ELBO)-parts(2)-dyn(26)-lvm(21)_final(0).mov,resources/videos_natural\training(38).mov,True,True,left,0,188,188,188,2018-10-12 10:26:11.484657,2018-10-12 10:26:15.470885,0:00:03.986228,5,left,1,0.4674860202612763,34,f,2,16,2018_Oct_12_1004,MP_PerceptionTuring2,59.97769131276919,
190,resources/videos_generated\model(vcgpdm)-dataset(walking)-mode(ELBO)-parts(1)-dyn(28)-lvm(23)_final(0).mov,resources/videos_natural\training(15).mov,False,True,left,0,189,189,189,2018-10-12 10:26:17.055976,2018-10-12 10:26:21.042204,0:00:03.986228,5,left,1,0.63426075815687,34,f,2,16,2018_Oct_12_1004,MP_PerceptionTuring2,59.97769131276919,
191,resources/videos_generated\model(vcgpdm)-dataset(walking)-mode(ELBO)-parts(1)-dyn(22)-lvm(23)_final(1).mov,resources/videos_natural\training(10).mov,False,True,left,0,190,190,190,2018-10-12 10:26:22.794304,2018-10-12 10:26:26.880538,0:00:04.086234,5,right,0,0.5507160258539443,34,f,2,16,2018_Oct_12_1004,MP_PerceptionTuring2,59.97769131276919,
192,resources/videos_generated\model(vcgpdm)-dataset(walking)-mode(ELBO)-parts(1)-dyn(23)-lvm(26)_final(4)_hip-corrected.mov,resources/videos_natural\training(27).mov,True,True,left,0,191,191,191,2018-10-12 10:26:28.548633,2018-10-12 10:26:32.485858,0:00:03.937225,5,right,0,0.4508247797439253,34,f,2,16,2018_Oct_12_1004,MP_PerceptionTuring2,59.97769131276919,
193,resources/videos_generated\model(vcgpdm)-dataset(walking)-mode(ELBO)-parts(1)-dyn(27)-lvm(28)_final(4).mov,resources/videos_natural\training(31).mov,False,False,right,0,192,192,192,2018-10-12 10:26:34.053948,2018-10-12 10:26:37.990173,0:00:03.936225,5,left,0,0.5507295786792383,34,f,2,16,2018_Oct_12_1004,MP_PerceptionTuring2,59.97769131276919,
194,resources/videos_generated\model(vcgpdm)-dataset(walking)-mode(ELBO)-parts(2)-dyn(28)-lvm(19)_final(4).mov,resources/videos_natural\training(12).mov,True,False,right,0,193,193,193,2018-10-12 10:26:39.658269,2018-10-12 10:26:43.612495,0:00:03.954226,5,right,1,0.4007528142442425,34,f,2,16,2018_Oct_12_1004,MP_PerceptionTuring2,59.97769131276919,
195,resources/videos_generated\model(vcgpdm)-dataset(walking)-mode(ELBO)-parts(2)-dyn(26)-lvm(19)_final(8).mov,resources/videos_natural\training(31).mov,False,True,left,0,194,194,194,2018-10-12 10:26:45.119581,2018-10-12 10:26:49.133811,0:00:04.014230,5,left,1,0.367377326605947,34,f,2,16,2018_Oct_12_1004,MP_PerceptionTuring2,59.97769131276919,
196,resources/videos_generated\model(vcgpdm)-dataset(walking)-mode(ELBO)-parts(2)-dyn(25)-lvm(18)_final(6).mov,resources/videos_natural\training(27).mov,False,False,right,0,195,195,195,2018-10-12 10:26:50.617896,2018-10-12 10:26:54.538120,0:00:03.920224,5,right,1,0.4840066125739213,34,f,2,16,2018_Oct_12_1004,MP_PerceptionTuring2,59.97769131276919,
197,resources/videos_generated\model(vcgpdm)-dataset(walking)-mode(ELBO)-parts(2)-dyn(27)-lvm(22)_final(6).mov,resources/videos_natural\training(37).mov,True,False,right,0,196,196,196,2018-10-12 10:26:56.139211,2018-10-12 10:27:00.126439,0:00:03.987228,5,left,0,0.9343227096251212,34,f,2,16,2018_Oct_12_1004,MP_PerceptionTuring2,59.97769131276919,
198,resources/videos_generated\model(vcgpdm)-dataset(walking)-mode(ELBO)-parts(1)-dyn(28)-lvm(24)_final(5).mov,resources/videos_natural\training(9).mov,False,False,right,0,197,197,197,2018-10-12 10:27:02.177557,2018-10-12 10:27:06.164785,0:00:03.987228,5,right,1,0.3838569592703607,34,f,2,16,2018_Oct_12_1004,MP_PerceptionTuring2,59.97769131276919,
199,resources/videos_generated\model(vcgpdm)-dataset(walking)-mode(ELBO)-parts(2)-dyn(27)-lvm(18)_final(8).mov,resources/videos_natural\training(24).mov,True,True,left,0,198,198,198,2018-10-12 10:27:07.665871,2018-10-12 10:27:11.586095,0:00:03.920224,5,left,1,0.45062389676240855,34,f,2,16,2018_Oct_12_1004,MP_PerceptionTuring2,59.97769131276919,
200,resources/videos_generated\model(vcgpdm)-dataset(walking)-mode(ELBO)-parts(1)-dyn(26)-lvm(23)_final(0).mov,resources/videos_natural\training(41).mov,False,False,right,0,199,199,199,2018-10-12 10:27:13.154185,2018-10-12 10:27:17.241418,0:00:04.087233,5,right,1,0.5175185319822049,34,f,2,16,2018_Oct_12_1004,MP_PerceptionTuring2,59.97769131276919,
201,resources/videos_generated\model(vcgpdm)-dataset(walking)-mode(ELBO)-parts(2)-dyn(24)-lvm(23)_final(2).mov,resources/videos_natural\training(9).mov,False,True,left,0,200,200,200,2018-10-12 10:27:18.875512,2018-10-12 10:27:22.812737,0:00:03.937225,5,left,1,0.5005639481000799,34,f,2,16,2018_Oct_12_1004,MP_PerceptionTuring2,59.97769131276919,
202,resources/videos_generated\model(vcgpdm)-dataset(walking)-mode(ELBO)-parts(2)-dyn(25)-lvm(18)_final(4).mov,resources/videos_natural\training(1).mov,True,True,left,0,201,201,201,2018-10-12 10:27:24.430830,2018-10-12 10:27:28.367055,0:00:03.936225,5,left,1,0.3838801496594897,34,f,2,16,2018_Oct_12_1004,MP_PerceptionTuring2,59.97769131276919,
203,resources/videos_generated\model(vcgpdm)-dataset(walking)-mode(ELBO)-parts(2)-dyn(23)-lvm(20)_final(4).mov,resources/videos_natural\training(17).mov,True,True,left,0,202,202,202,2018-10-12 10:27:29.868141,2018-10-12 10:27:33.788365,0:00:03.920224,5,right,0,0.6008343721318852,34,f,2,16,2018_Oct_12_1004,MP_PerceptionTuring2,59.97769131276919,
204,resources/videos_generated\model(vcgpdm)-dataset(walking)-mode(ELBO)-parts(1)-dyn(25)-lvm(28)_final(1).mov,resources/videos_natural\training(21).mov,True,False,right,0,203,203,203,2018-10-12 10:27:35.506463,2018-10-12 10:27:39.476690,0:00:03.970227,5,left,0,0.650829839465132,34,f,2,16,2018_Oct_12_1004,MP_PerceptionTuring2,59.97769131276919,
205,resources/videos_generated\model(vcgpdm)-dataset(walking)-mode(ELBO)-parts(2)-dyn(27)-lvm(20)_final(6).mov,resources/videos_natural\training(41).mov,False,False,right,0,204,204,204,2018-10-12 10:27:41.244791,2018-10-12 10:27:45.182016,0:00:03.937225,5,right,1,0.4507494862727981,34,f,2,16,2018_Oct_12_1004,MP_PerceptionTuring2,59.97769131276919,
206,resources/videos_generated\model(tmp)-dataset(walking)-numprim(15)_final(9).mov,resources/videos_natural\training(48).mov,False,True,left,0,205,205,205,2018-10-12 10:27:46.750106,2018-10-12 10:27:50.803338,0:00:04.053232,5,left,1,0.4006103589963459,34,f,2,16,2018_Oct_12_1004,MP_PerceptionTuring2,59.97769131276919,
207,resources/videos_generated\model(dmp)-dataset(walking)-npsi(60)_final(1).mov,resources/videos_natural\training(39).mov,True,False,right,0,206,206,206,2018-10-12 10:27:52.321425,2018-10-12 10:27:56.374657,0:00:04.053232,5,right,1,0.4506163674154777,34,f,2,16,2018_Oct_12_1004,MP_PerceptionTuring2,59.97769131276919,
208,resources/videos_generated\model(vcgpdm)-dataset(walking)-mode(ELBO)-parts(1)-dyn(25)-lvm(22)_final(5).mov,resources/videos_natural\training(23).mov,False,True,left,0,207,207,207,2018-10-12 10:27:57.942746,2018-10-12 10:28:01.845970,0:00:03.903224,5,left,1,0.45059739346015704,34,f,2,16,2018_Oct_12_1004,MP_PerceptionTuring2,59.97769131276919,
209,resources/videos_generated\model(dmp)-dataset(walking)-npsi(70)_final(3).mov,resources/videos_natural\training(18).mov,False,True,left,0,208,208,208,2018-10-12 10:28:03.414059,2018-10-12 10:28:07.551296,0:00:04.137237,5,left,1,0.48405419804748817,34,f,2,16,2018_Oct_12_1004,MP_PerceptionTuring2,59.97769131276919,
210,resources/videos_generated\model(dmp)-dataset(walking)-npsi(70)_final(1).mov,resources/videos_natural\training(19).mov,False,True,left,0,209,209,209,2018-10-12 10:28:09.152387,2018-10-12 10:28:13.239621,0:00:04.087234,5,left,1,0.5174143258177537,34,f,2,16,2018_Oct_12_1004,MP_PerceptionTuring2,59.97769131276919,
211,resources/videos_generated\model(vcgpdm)-dataset(walking)-mode(ELBO)-parts(1)-dyn(26)-lvm(27)_final(8).mov,resources/videos_natural\training(30).mov,True,False,right,0,210,210,210,2018-10-12 10:28:14.873715,2018-10-12 10:28:18.760937,0:00:03.887222,5,left,0,0.417556208834867,34,f,2,16,2018_Oct_12_1004,MP_PerceptionTuring2,59.97769131276919,
212,resources/videos_generated\model(vcgpdm)-dataset(walking)-mode(ELBO)-parts(1)-dyn(22)-lvm(25)_final(7).mov,resources/videos_natural\training(1).mov,True,False,right,0,211,211,211,2018-10-12 10:28:20.296025,2018-10-12 10:28:24.316255,0:00:04.020230,5,right,1,0.4841255762585206,34,f,2,16,2018_Oct_12_1004,MP_PerceptionTuring2,59.97769131276919,
213,resources/videos_generated\model(vcgpdm)-dataset(walking)-mode(ELBO)-parts(1)-dyn(23)-lvm(22)_final(2).mov,resources/videos_natural\training(10).mov,False,False,right,0,212,212,212,2018-10-12 10:28:25.917346,2018-10-12 10:28:29.853571,0:00:03.936225,5,left,0,0.3838924977885654,34,f,2,16,2018_Oct_12_1004,MP_PerceptionTuring2,59.97769131276919,
214,resources/videos_generated\model(vcgpdm)-dataset(walking)-mode(ELBO)-parts(2)-dyn(24)-lvm(21)_final(8).mov,resources/videos_natural\training(1).mov,True,True,left,0,213,213,213,2018-10-12 10:28:31.354657,2018-10-12 10:28:35.308883,0:00:03.954226,5,left,1,0.417164682784005,34,f,2,16,2018_Oct_12_1004,MP_PerceptionTuring2,59.97769131276919,
215,resources/videos_generated\model(vcgpdm)-dataset(walking)-mode(ELBO)-parts(2)-dyn(24)-lvm(19)_final(2).mov,resources/videos_natural\training(20).mov,True,True,left,0,214,214,214,2018-10-12 10:28:36.842971,2018-10-12 10:28:40.847200,0:00:04.004229,5,left,1,0.43387742403547236,34,f,2,16,2018_Oct_12_1004,MP_PerceptionTuring2,59.97769131276919,
216,resources/videos_generated\model(tmp)-dataset(walking)-numprim(11)_final(7).mov,resources/videos_natural\training(3).mov,False,False,right,0,215,215,215,2018-10-12 10:28:42.398289,2018-10-12 10:28:46.334514,0:00:03.936225,5,right,1,0.43399608654635813,34,f,2,16,2018_Oct_12_1004,MP_PerceptionTuring2,59.97769131276919,
217,resources/videos_generated\model(vcgpdm)-dataset(walking)-mode(ELBO)-parts(1)-dyn(24)-lvm(27)_final(1).mov,resources/videos_natural\training(7).mov,False,True,left,0,216,216,216,2018-10-12 10:28:47.885603,2018-10-12 10:28:51.972837,0:00:04.087234,5,left,1,0.4339993994590259,34,f,2,16,2018_Oct_12_1004,MP_PerceptionTuring2,59.97769131276919,
218,resources/videos_generated\model(vcgpdm)-dataset(walking)-mode(ELBO)-parts(1)-dyn(24)-lvm(25)_final(9).mov,resources/videos_natural\training(29).mov,False,False,right,0,217,217,217,2018-10-12 10:28:53.523925,2018-10-12 10:28:57.444150,0:00:03.920225,5,right,1,0.5007142338690755,34,f,2,16,2018_Oct_12_1004,MP_PerceptionTuring2,59.97769131276919,
219,resources/videos_generated\model(vcgpdm)-dataset(walking)-mode(ELBO)-parts(1)-dyn(25)-lvm(24)_final(0).mov,resources/videos_natural\training(11).mov,False,True,left,0,218,218,218,2018-10-12 10:28:59.062242,2018-10-12 10:29:03.015468,0:00:03.953226,5,left,1,0.36732853643661656,34,f,2,16,2018_Oct_12_1004,MP_PerceptionTuring2,59.97769131276919,
220,resources/videos_generated\model(vcgpdm)-dataset(walking)-mode(ELBO)-parts(1)-dyn(23)-lvm(27)_final(0).mov,resources/videos_natural\training(9).mov,True,True,left,0,219,219,219,2018-10-12 10:29:04.500553,2018-10-12 10:29:08.537784,0:00:04.037231,5,right,0,0.6508491145941662,34,f,2,16,2018_Oct_12_1004,MP_PerceptionTuring2,59.97769131276919,
221,resources/videos_generated\model(vcgpdm)-dataset(walking)-mode(ELBO)-parts(2)-dyn(27)-lvm(20)_final(0).mov,resources/videos_natural\training(25).mov,False,True,left,0,220,220,220,2018-10-12 10:29:10.305885,2018-10-12 10:29:14.276112,0:00:03.970227,5,right,0,0.500852472682709,34,f,2,16,2018_Oct_12_1004,MP_PerceptionTuring2,59.97769131276919,
222,resources/videos_generated\model(vcgpdm)-dataset(walking)-mode(ELBO)-parts(1)-dyn(23)-lvm(26)_final(0).mov,resources/videos_natural\training(0).mov,False,False,right,0,221,221,221,2018-10-12 10:29:15.893205,2018-10-12 10:29:19.780427,0:00:03.887222,5,left,0,0.7009096354863686,34,f,2,16,2018_Oct_12_1004,MP_PerceptionTuring2,59.97769131276919,
223,resources/videos_generated\model(vcgpdm)-dataset(walking)-mode(ELBO)-parts(2)-dyn(23)-lvm(18)_final(0).mov,resources/videos_natural\training(46).mov,False,False,right,0,222,222,222,2018-10-12 10:29:21.598531,2018-10-12 10:29:25.501754,0:00:03.903223,5,right,1,0.38395122669635384,34,f,2,16,2018_Oct_12_1004,MP_PerceptionTuring2,59.97769131276919,
224,resources/videos_generated\model(vcgpdm)-dataset(walking)-mode(ELBO)-parts(1)-dyn(24)-lvm(23)_final(3)_fail.mov,resources/videos_natural\training(41).mov,False,True,left,0,223,223,223,2018-10-12 10:29:27.002840,2018-10-12 10:29:31.057072,0:00:04.054232,5,left,1,0.5674781596226239,34,f,2,16,2018_Oct_12_1004,MP_PerceptionTuring2,59.97769131276919,
225,resources/videos_generated\model(vcgpdm)-dataset(walking)-mode(ELBO)-parts(1)-dyn(25)-lvm(22)_final(3).mov,resources/videos_natural\training(0).mov,False,False,right,0,224,224,224,2018-10-12 10:29:32.741168,2018-10-12 10:29:36.661393,0:00:03.920225,5,right,1,0.45069316675608206,34,f,2,16,2018_Oct_12_1004,MP_PerceptionTuring2,59.97769131276919,
226,resources/videos_generated\model(vcgpdm)-dataset(walking)-mode(ELBO)-parts(2)-dyn(25)-lvm(22)_final(6).mov,resources/videos_natural\training(18).mov,True,True,left,0,225,225,225,2018-10-12 10:30:22.585019,2018-10-12 10:30:26.488243,0:00:03.903224,6,left,1,0.5674221412800762,34,f,2,16,2018_Oct_12_1004,MP_PerceptionTuring2,59.97769131276919,
227,resources/videos_generated\model(vcgpdm)-dataset(walking)-mode(ELBO)-parts(2)-dyn(26)-lvm(21)_final(8).mov,resources/videos_natural\training(4).mov,False,False,right,0,226,226,226,2018-10-12 10:30:28.172339,2018-10-12 10:30:32.109564,0:00:03.937225,6,left,0,1.5014695779741487,34,f,2,16,2018_Oct_12_1004,MP_PerceptionTuring2,59.97769131276919,
228,resources/videos_generated\model(vcgpdm)-dataset(walking)-mode(ELBO)-parts(1)-dyn(28)-lvm(23)_final(2).mov,resources/videos_natural\training(44).mov,True,True,left,0,227,227,227,2018-10-12 10:30:34.728714,2018-10-12 10:30:38.681940,0:00:03.953226,6,right,0,0.7675585128154125,34,f,2,16,2018_Oct_12_1004,MP_PerceptionTuring2,59.97769131276919,
229,resources/videos_generated\model(vcgpdm)-dataset(walking)-mode(ELBO)-parts(2)-dyn(23)-lvm(20)_final(8).mov,resources/videos_natural\training(19).mov,True,True,left,0,228,228,228,2018-10-12 10:30:40.567048,2018-10-12 10:30:44.503273,0:00:03.936225,6,left,1,1.0178439503656591,34,f,2,16,2018_Oct_12_1004,MP_PerceptionTuring2,59.97769131276919,
230,resources/videos_generated\model(vcgpdm)-dataset(walking)-mode(ELBO)-parts(1)-dyn(27)-lvm(24)_final(2).mov,resources/videos_natural\training(12).mov,False,True,left,0,229,229,229,2018-10-12 10:30:46.638395,2018-10-12 10:30:50.592621,0:00:03.954226,6,right,0,0.6340960160414397,34,f,2,16,2018_Oct_12_1004,MP_PerceptionTuring2,59.97769131276919,
231,resources/videos_generated\model(vcgpdm)-dataset(walking)-mode(ELBO)-parts(1)-dyn(26)-lvm(23)_final(8).mov,resources/videos_natural\training(5).mov,True,False,right,0,230,230,230,2018-10-12 10:30:52.343721,2018-10-12 10:30:56.246945,0:00:03.903224,6,right,1,0.9178656650028643,34,f,2,16,2018_Oct_12_1004,MP_PerceptionTuring2,59.97769131276919,
232,resources/videos_generated\model(vcgpdm)-dataset(walking)-mode(ELBO)-parts(2)-dyn(28)-lvm(17)_final(8).mov,resources/videos_natural\training(14).mov,True,True,left,0,231,231,231,2018-10-12 10:30:58.282061,2018-10-12 10:31:02.369295,0:00:04.087234,6,left,1,0.8010538676599026,34,f,2,16,2018_Oct_12_1004,MP_PerceptionTuring2,59.97769131276919,
233,resources/videos_generated\model(vcgpdm)-dataset(walking)-mode(ELBO)-parts(2)-dyn(23)-lvm(18)_final(8).mov,resources/videos_natural\training(20).mov,False,True,left,0,232,232,232,2018-10-12 10:31:04.287405,2018-10-12 10:31:08.324635,0:00:04.037230,6,right,0,0.4339488022465048,34,f,2,16,2018_Oct_12_1004,MP_PerceptionTuring2,59.97769131276919,
234,resources/videos_generated\model(tmp)-dataset(walking)-numprim(15)_final(3).mov,resources/videos_natural\training(8).mov,True,True,left,0,233,233,233,2018-10-12 10:31:09.875724,2018-10-12 10:31:13.832951,0:00:03.957227,6,right,0,0.6174624835221039,34,f,2,16,2018_Oct_12_1004,MP_PerceptionTuring2,59.97769131276919,
235,resources/videos_generated\model(vcgpdm)-dataset(walking)-mode(ELBO)-parts(1)-dyn(22)-lvm(27)_final(9)_hip-corrected.mov,resources/videos_natural\training(46).mov,True,False,right,0,234,234,234,2018-10-12 10:31:15.564050,2018-10-12 10:31:19.484274,0:00:03.920224,6,right,1,0.43399247245997685,34,f,2,16,2018_Oct_12_1004,MP_PerceptionTuring2,59.97769131276919,
236,resources/videos_generated\model(vcgpdm)-dataset(walking)-mode(ELBO)-parts(2)-dyn(25)-lvm(22)_final(2).mov,resources/videos_natural\training(14).mov,True,False,right,0,235,235,235,2018-10-12 10:31:21.035363,2018-10-12 10:31:24.938586,0:00:03.903223,6,right,1,0.4172029318674504,34,f,2,16,2018_Oct_12_1004,MP_PerceptionTuring2,59.97769131276919,
237,resources/videos_generated\model(vcgpdm)-dataset(walking)-mode(ELBO)-parts(1)-dyn(28)-lvm(25)_final(8).mov,resources/videos_natural\training(18).mov,False,False,right,0,236,236,236,2018-10-12 10:31:26.473674,2018-10-12 10:31:30.392898,0:00:03.919224,6,left,0,0.3505712214500818,34,f,2,16,2018_Oct_12_1004,MP_PerceptionTuring2,59.97769131276919,
238,resources/videos_generated\model(vcgpdm)-dataset(walking)-mode(ELBO)-parts(2)-dyn(26)-lvm(23)_final(8).mov,resources/videos_natural\training(2).mov,False,True,left,0,237,237,237,2018-10-12 10:31:31.860982,2018-10-12 10:31:35.781206,0:00:03.920224,6,left,1,0.43398343724311417,34,f,2,16,2018_Oct_12_1004,MP_PerceptionTuring2,59.97769131276919,
239,resources/videos_generated\model(vcgpdm)-dataset(walking)-mode(ELBO)-parts(2)-dyn(28)-lvm(21)_final(2).mov,resources/videos_natural\training(34).mov,False,True,left,0,238,238,238,2018-10-12 10:31:37.332295,2018-10-12 10:31:41.269520,0:00:03.937225,6,left,1,0.7842601106331131,34,f,2,16,2018_Oct_12_1004,MP_PerceptionTuring2,59.97769131276919,
240,resources/videos_generated\model(vcgpdm)-dataset(walking)-mode(ELBO)-parts(1)-dyn(28)-lvm(27)_final(0).mov,resources/videos_natural\training(15).mov,False,True,left,0,239,239,239,2018-10-12 10:31:43.170629,2018-10-12 10:31:47.090853,0:00:03.920224,6,left,1,0.43418130848613146,34,f,2,16,2018_Oct_12_1004,MP_PerceptionTuring2,59.97769131276919,
241,resources/videos_generated\model(tmp)-dataset(walking)-numprim(13)_final(1).mov,resources/videos_natural\training(36).mov,False,True,left,0,240,240,240,2018-10-12 10:31:48.641942,2018-10-12 10:31:52.579167,0:00:03.937225,6,left,1,0.7842339085050298,34,f,2,16,2018_Oct_12_1004,MP_PerceptionTuring2,59.97769131276919,
242,resources/videos_generated\model(vcgpdm)-dataset(walking)-mode(ELBO)-parts(2)-dyn(27)-lvm(22)_final(4).mov,resources/videos_natural\training(2).mov,True,True,left,0,241,241,241,2018-10-12 10:31:54.480275,2018-10-12 10:31:58.417501,0:00:03.937226,6,right,0,0.3838946060059243,34,f,2,16,2018_Oct_12_1004,MP_PerceptionTuring2,59.97769131276919,
243,resources/videos_generated\model(vcgpdm)-dataset(walking)-mode(ELBO)-parts(1)-dyn(25)-lvm(26)_final(9).mov,resources/videos_natural\training(5).mov,False,True,left,0,242,242,242,2018-10-12 10:31:59.918587,2018-10-12 10:32:03.821810,0:00:03.903223,6,right,0,0.3506182045762216,34,f,2,16,2018_Oct_12_1004,MP_PerceptionTuring2,59.97769131276919,
244,resources/videos_generated\model(vcgpdm)-dataset(walking)-mode(ELBO)-parts(1)-dyn(24)-lvm(25)_final(7).mov,resources/videos_natural\training(43).mov,True,True,left,0,243,243,243,2018-10-12 10:32:05.289894,2018-10-12 10:32:09.244120,0:00:03.954226,6,right,0,0.3839003283096645,34,f,2,16,2018_Oct_12_1004,MP_PerceptionTuring2,59.97769131276919,
245,resources/videos_generated\model(vcgpdm)-dataset(walking)-mode(ELBO)-parts(2)-dyn(28)-lvm(17)_final(6).mov,resources/videos_natural\training(26).mov,False,True,left,0,244,244,244,2018-10-12 10:32:10.744206,2018-10-12 10:32:14.798438,0:00:04.054232,6,left,1,0.5339809977344885,34,f,2,16,2018_Oct_12_1004,MP_PerceptionTuring2,59.97769131276919,
246,resources/videos_generated\model(vcgpdm)-dataset(walking)-mode(ELBO)-parts(2)-dyn(28)-lvm(21)_final(4).mov,resources/videos_natural\training(35).mov,False,True,left,0,245,245,245,2018-10-12 10:32:16.449532,2018-10-12 10:32:20.386757,0:00:03.937225,6,right,0,0.4506741928012161,34,f,2,16,2018_Oct_12_1004,MP_PerceptionTuring2,59.97769131276919,
247,resources/videos_generated\model(vcgpdm)-dataset(walking)-mode(ELBO)-parts(2)-dyn(23)-lvm(22)_final(4).mov,resources/videos_natural\training(45).mov,False,True,left,0,246,246,246,2018-10-12 10:32:21.954847,2018-10-12 10:32:26.058082,0:00:04.103235,6,left,1,0.41722491756127056,34,f,2,16,2018_Oct_12_1004,MP_PerceptionTuring2,59.97769131276919,
248,resources/videos_generated\model(vcgpdm)-dataset(walking)-mode(ELBO)-parts(2)-dyn(24)-lvm(17)_final(8).mov,resources/videos_natural\training(5).mov,True,False,right,0,247,247,247,2018-10-12 10:32:27.592169,2018-10-12 10:32:31.496393,0:00:03.904224,6,right,1,0.43392199777053975,34,f,2,16,2018_Oct_12_1004,MP_PerceptionTuring2,59.97769131276919,
249,resources/videos_generated\model(vcgpdm)-dataset(walking)-mode(ELBO)-parts(2)-dyn(27)-lvm(22)_final(0).mov,resources/videos_natural\training(29).mov,True,False,right,0,248,248,248,2018-10-12 10:32:33.047481,2018-10-12 10:32:36.967706,0:00:03.920225,6,right,1,0.33390004219427283,34,f,2,16,2018_Oct_12_1004,MP_PerceptionTuring2,59.97769131276919,
250,resources/videos_generated\model(vcgpdm)-dataset(walking)-mode(ELBO)-parts(2)-dyn(28)-lvm(17)_final(4).mov,resources/videos_natural\training(46).mov,True,True,left,0,249,249,249,2018-10-12 10:32:38.418789,2018-10-12 10:32:42.322012,0:00:03.903223,6,left,1,0.40051548922247093,34,f,2,16,2018_Oct_12_1004,MP_PerceptionTuring2,59.97769131276919,
251,resources/videos_generated\model(vcgpdm)-dataset(walking)-mode(ELBO)-parts(2)-dyn(27)-lvm(20)_final(8).mov,resources/videos_natural\training(37).mov,False,True,left,0,250,250,250,2018-10-12 10:32:43.840099,2018-10-12 10:32:47.760323,0:00:03.920224,6,left,1,0.3338244475494321,34,f,2,16,2018_Oct_12_1004,MP_PerceptionTuring2,59.97769131276919,
252,resources/videos_generated\model(tmp)-dataset(walking)-numprim(15)_final(5).mov,resources/videos_natural\training(26).mov,False,True,left,0,251,251,251,2018-10-12 10:32:49.211406,2018-10-12 10:32:53.114629,0:00:03.903223,6,right,0,0.5341237541565533,34,f,2,16,2018_Oct_12_1004,MP_PerceptionTuring2,59.97769131276919,
253,resources/videos_generated\model(vcgpdm)-dataset(walking)-mode(ELBO)-parts(2)-dyn(28)-lvm(19)_final(6).mov,resources/videos_natural\training(24).mov,True,True,left,0,252,252,252,2018-10-12 10:32:54.766724,2018-10-12 10:32:58.702949,0:00:03.936225,6,right,0,0.4340090370233156,34,f,2,16,2018_Oct_12_1004,MP_PerceptionTuring2,59.97769131276919,
254,resources/videos_generated\model(vcgpdm)-dataset(walking)-mode(ELBO)-parts(1)-dyn(24)-lvm(23)_final(1).mov,resources/videos_natural\training(16).mov,True,True,left,0,253,253,253,2018-10-12 10:33:00.254037,2018-10-12 10:33:04.157261,0:00:03.903224,6,right,0,0.48406895556809104,34,f,2,16,2018_Oct_12_1004,MP_PerceptionTuring2,59.97769131276919,
255,resources/videos_generated\model(vcgpdm)-dataset(walking)-mode(ELBO)-parts(2)-dyn(28)-lvm(17)_final(2).mov,resources/videos_natural\training(37).mov,True,False,right,0,254,254,254,2018-10-12 10:33:05.759352,2018-10-12 10:33:09.812584,0:00:04.053232,6,right,1,0.484118046911135,34,f,2,16,2018_Oct_12_1004,MP_PerceptionTuring2,59.97769131276919,
256,resources/videos_generated\model(vcgpdm)-dataset(walking)-mode(ELBO)-parts(1)-dyn(22)-lvm(27)_final(7)_hip-corrected.mov,resources/videos_natural\training(3).mov,False,True,left,0,255,255,255,2018-10-12 10:33:11.413676,2018-10-12 10:33:15.316899,0:00:03.903223,6,left,1,0.584061396103607,34,f,2,16,2018_Oct_12_1004,MP_PerceptionTuring2,59.97769131276919,
257,resources/videos_generated\model(vcgpdm)-dataset(walking)-mode(ELBO)-parts(2)-dyn(24)-lvm(23)_final(8).mov,resources/videos_natural\training(10).mov,False,False,right,0,256,256,256,2018-10-12 10:33:17.018996,2018-10-12 10:33:20.955222,0:00:03.936226,6,right,1,0.5174926310282899,34,f,2,16,2018_Oct_12_1004,MP_PerceptionTuring2,59.97769131276919,
258,resources/videos_generated\model(vcgpdm)-dataset(walking)-mode(ELBO)-parts(1)-dyn(24)-lvm(27)_final(3).mov,resources/videos_natural\training(44).mov,True,False,right,0,257,257,257,2018-10-12 10:33:22.590315,2018-10-12 10:33:26.577543,0:00:03.987228,6,right,1,0.3671381945405301,34,f,2,16,2018_Oct_12_1004,MP_PerceptionTuring2,59.97769131276919,
259,resources/videos_generated\model(vcgpdm)-dataset(walking)-mode(ELBO)-parts(2)-dyn(28)-lvm(23)_final(8).mov,resources/videos_natural\training(1).mov,True,True,left,0,258,258,258,2018-10-12 10:33:28.061628,2018-10-12 10:33:32.181864,0:00:04.120236,6,right,0,0.4506311249360806,34,f,2,16,2018_Oct_12_1004,MP_PerceptionTuring2,59.97769131276919,
260,resources/videos_generated\model(vcgpdm)-dataset(walking)-mode(ELBO)-parts(2)-dyn(24)-lvm(17)_final(6).mov,resources/videos_natural\training(45).mov,False,False,right,0,259,259,259,2018-10-12 10:33:33.749953,2018-10-12 10:33:37.687179,0:00:03.937226,6,right,1,0.3672496288786533,34,f,2,16,2018_Oct_12_1004,MP_PerceptionTuring2,59.97769131276919,
261,resources/videos_generated\model(vcgpdm)-dataset(walking)-mode(ELBO)-parts(1)-dyn(23)-lvm(26)_final(6)_hip-corrected.mov,resources/videos_natural\training(44).mov,True,True,left,0,260,260,260,2018-10-12 10:33:39.171263,2018-10-12 10:33:43.108489,0:00:03.937226,6,left,1,0.5173634274310643,34,f,2,16,2018_Oct_12_1004,MP_PerceptionTuring2,59.97769131276919,
262,resources/videos_generated\model(vcgpdm)-dataset(walking)-mode(ELBO)-parts(2)-dyn(27)-lvm(22)_final(8).mov,resources/videos_natural\training(25).mov,True,False,right,0,261,261,261,2018-10-12 10:33:44.742582,2018-10-12 10:33:48.662806,0:00:03.920224,6,right,1,0.41731316150935527,34,f,2,16,2018_Oct_12_1004,MP_PerceptionTuring2,59.97769131276919,
263,resources/videos_generated\model(vcgpdm)-dataset(walking)-mode(ELBO)-parts(2)-dyn(22)-lvm(19)_final(8).mov,resources/videos_natural\training(45).mov,False,False,right,0,262,262,262,2018-10-12 10:33:50.197894,2018-10-12 10:33:54.134119,0:00:03.936225,6,right,1,0.38386509096471855,34,f,2,16,2018_Oct_12_1004,MP_PerceptionTuring2,59.97769131276919,
264,resources/videos_generated\model(dmp)-dataset(walking)-npsi(100)_final(7).mov,resources/videos_natural\training(18).mov,True,True,left,0,263,263,263,2018-10-12 10:33:55.635205,2018-10-12 10:33:59.555429,0:00:03.920224,6,right,0,0.6842604419243798,34,f,2,16,2018_Oct_12_1004,MP_PerceptionTuring2,59.97769131276919,
265,resources/videos_generated\model(vcgpdm)-dataset(walking)-mode(ELBO)-parts(2)-dyn(24)-lvm(23)_final(4).mov,resources/videos_natural\training(20).mov,False,False,right,0,264,264,264,2018-10-12 10:34:01.357532,2018-10-12 10:34:05.276757,0:00:03.919225,6,left,0,0.5340614111623836,34,f,2,16,2018_Oct_12_1004,MP_PerceptionTuring2,59.97769131276919,
266,resources/videos_generated\model(tmp)-dataset(walking)-numprim(15)_final(7).mov,resources/videos_natural\training(0).mov,True,False,right,0,265,265,265,2018-10-12 10:34:06.928851,2018-10-12 10:34:10.849075,0:00:03.920224,6,right,1,0.4006455963408371,34,f,2,16,2018_Oct_12_1004,MP_PerceptionTuring2,59.97769131276919,
267,resources/videos_generated\model(vcgpdm)-dataset(walking)-mode(ELBO)-parts(1)-dyn(27)-lvm(24)_final(8).mov,resources/videos_natural\training(32).mov,True,True,left,0,266,266,266,2018-10-12 10:34:12.366162,2018-10-12 10:34:16.286386,0:00:03.920224,6,right,0,0.3839108693955495,34,f,2,16,2018_Oct_12_1004,MP_PerceptionTuring2,59.97769131276919,
268,resources/videos_generated\model(vcgpdm)-dataset(walking)-mode(ELBO)-parts(1)-dyn(27)-lvm(26)_final(0).mov,resources/videos_natural\training(32).mov,True,True,left,0,267,267,267,2018-10-12 10:34:17.787472,2018-10-12 10:34:21.857705,0:00:04.070233,6,left,1,0.5674112990204776,34,f,2,16,2018_Oct_12_1004,MP_PerceptionTuring2,59.97769131276919,
269,resources/videos_generated\model(vcgpdm)-dataset(walking)-mode(ELBO)-parts(2)-dyn(25)-lvm(18)_final(0).mov,resources/videos_natural\training(13).mov,False,False,right,0,268,268,268,2018-10-12 10:34:23.542801,2018-10-12 10:34:27.613034,0:00:04.070233,6,right,1,0.43399608654635813,34,f,2,16,2018_Oct_12_1004,MP_PerceptionTuring2,59.97769131276919,
270,resources/videos_generated\model(vcgpdm)-dataset(walking)-mode(ELBO)-parts(2)-dyn(28)-lvm(23)_final(4)_fail.mov,resources/videos_natural\training(38).mov,False,True,left,0,269,269,269,2018-10-12 10:34:29.164123,2018-10-12 10:34:33.118349,0:00:03.954226,6,left,1,0.4505699866372197,34,f,2,16,2018_Oct_12_1004,MP_PerceptionTuring2,59.97769131276919,
271,resources/videos_generated\model(vcgpdm)-dataset(walking)-mode(ELBO)-parts(2)-dyn(22)-lvm(17)_final(2).mov,resources/videos_natural\training(48).mov,False,True,left,0,270,270,270,2018-10-12 10:35:06.847278,2018-10-12 10:35:10.833506,0:00:03.986228,7,left,1,0.4172179905617668,34,f,2,16,2018_Oct_12_1004,MP_PerceptionTuring2,59.97769131276919,
272,resources/videos_generated\model(vcgpdm)-dataset(walking)-mode(ELBO)-parts(1)-dyn(26)-lvm(25)_final(4).mov,resources/videos_natural\training(24).mov,False,False,right,0,271,271,271,2018-10-12 10:35:12.368594,2018-10-12 10:35:16.271817,0:00:03.903223,7,right,1,0.5006241828773454,34,f,2,16,2018_Oct_12_1004,MP_PerceptionTuring2,59.97769131276919,
273,resources/videos_generated\model(vcgpdm)-dataset(walking)-mode(ELBO)-parts(2)-dyn(22)-lvm(21)_final(0).mov,resources/videos_natural\training(19).mov,False,True,left,0,272,272,272,2018-10-12 10:35:17.889910,2018-10-12 10:35:21.960143,0:00:04.070233,7,right,0,0.3671999351872728,34,f,2,16,2018_Oct_12_1004,MP_PerceptionTuring2,59.97769131276919,
274,resources/videos_generated\model(vcgpdm)-dataset(walking)-mode(ELBO)-parts(1)-dyn(28)-lvm(23)_final(6)_fail.mov,resources/videos_natural\training(22).mov,True,False,right,0,273,273,273,2018-10-12 10:35:23.444228,2018-10-12 10:35:27.364452,0:00:03.920224,7,right,1,0.38387924613789437,34,f,2,16,2018_Oct_12_1004,MP_PerceptionTuring2,59.97769131276919,
275,resources/videos_generated\model(tmp)-dataset(walking)-numprim(12)_final(3).mov,resources/videos_natural\training(22).mov,True,True,left,0,274,274,274,2018-10-12 10:35:28.865538,2018-10-12 10:35:32.835765,0:00:03.970227,7,right,0,0.4172065459542864,34,f,2,16,2018_Oct_12_1004,MP_PerceptionTuring2,59.97769131276919,
276,resources/videos_generated\model(vcgpdm)-dataset(walking)-mode(ELBO)-parts(1)-dyn(22)-lvm(25)_final(9).mov,resources/videos_natural\training(27).mov,False,True,left,0,275,275,275,2018-10-12 10:35:34.370852,2018-10-12 10:35:38.274076,0:00:03.903224,7,left,1,0.43396024685398515,34,f,2,16,2018_Oct_12_1004,MP_PerceptionTuring2,59.97769131276919,
277,resources/videos_generated\model(vcgpdm)-dataset(walking)-mode(ELBO)-parts(2)-dyn(28)-lvm(21)_final(6).mov,resources/videos_natural\training(48).mov,True,False,right,0,276,276,276,2018-10-12 10:35:39.825164,2018-10-12 10:35:43.862395,0:00:04.037231,7,right,1,0.3338479391122746,34,f,2,16,2018_Oct_12_1004,MP_PerceptionTuring2,59.97769131276919,
278,resources/videos_generated\model(vcgpdm)-dataset(walking)-mode(ELBO)-parts(2)-dyn(25)-lvm(22)_final(4).mov,resources/videos_natural\training(8).mov,True,False,right,0,277,277,277,2018-10-12 10:35:45.313478,2018-10-12 10:35:49.350709,0:00:04.037231,7,right,1,0.3671201241077142,34,f,2,16,2018_Oct_12_1004,MP_PerceptionTuring2,59.97769131276919,
279,resources/videos_generated\model(vcgpdm)-dataset(walking)-mode(ELBO)-parts(1)-dyn(23)-lvm(27)_final(7).mov,resources/videos_natural\training(34).mov,True,True,left,0,278,278,278,2018-10-12 10:35:50.834794,2018-10-12 10:35:54.805021,0:00:03.970227,7,right,0,0.36727191574573226,34,f,2,16,2018_Oct_12_1004,MP_PerceptionTuring2,59.97769131276919,
280,resources/videos_generated\model(tmp)-dataset(walking)-numprim(14)_final(9).mov,resources/videos_natural\training(19).mov,True,False,right,0,279,279,279,2018-10-12 10:35:56.290106,2018-10-12 10:36:00.393341,0:00:04.103235,7,right,1,0.41724359034196823,34,f,2,16,2018_Oct_12_1004,MP_PerceptionTuring2,59.97769131276919,
281,resources/videos_generated\model(tmp)-dataset(walking)-numprim(13)_final(5).mov,resources/videos_natural\training(46).mov,True,False,right,0,280,280,280,2018-10-12 10:36:01.928429,2018-10-12 10:36:05.831652,0:00:03.903223,7,right,1,0.5172538001370413,34,f,2,16,2018_Oct_12_1004,MP_PerceptionTuring2,59.97769131276919,
282,resources/videos_generated\model(vcgpdm)-dataset(walking)-mode(ELBO)-parts(1)-dyn(28)-lvm(27)_final(8).mov,resources/videos_natural\training(21).mov,True,True,left,0,281,281,281,2018-10-12 10:36:07.465745,2018-10-12 10:36:11.385970,0:00:03.920225,7,right,0,0.43409697979814155,34,f,2,16,2018_Oct_12_1004,MP_PerceptionTuring2,59.97769131276919,
283,resources/videos_generated\model(vcgpdm)-dataset(walking)-mode(ELBO)-parts(1)-dyn(25)-lvm(28)_final(3).mov,resources/videos_natural\training(5).mov,True,False,right,0,282,282,282,2018-10-12 10:36:12.937058,2018-10-12 10:36:16.857283,0:00:03.920225,7,right,1,0.384104524203849,34,f,2,16,2018_Oct_12_1004,MP_PerceptionTuring2,59.97769131276919,
284,resources/videos_generated\model(vcgpdm)-dataset(walking)-mode(ELBO)-parts(1)-dyn(22)-lvm(25)_final(5).mov,resources/videos_natural\training(37).mov,True,False,right,0,283,283,283,2018-10-12 10:36:18.358368,2018-10-12 10:36:22.445602,0:00:04.087234,7,right,1,0.3672945037874342,34,f,2,16,2018_Oct_12_1004,MP_PerceptionTuring2,59.97769131276919,
285,resources/videos_generated\model(vcgpdm)-dataset(walking)-mode(ELBO)-parts(2)-dyn(23)-lvm(22)_final(0).mov,resources/videos_natural\training(35).mov,False,True,left,0,284,284,284,2018-10-12 10:36:23.930687,2018-10-12 10:36:27.849911,0:00:03.919224,7,left,1,0.45080429991958226,34,f,2,16,2018_Oct_12_1004,MP_PerceptionTuring2,59.97769131276919,
286,resources/videos_generated\model(tmp)-dataset(walking)-numprim(11)_final(3).mov,resources/videos_natural\training(16).mov,True,True,left,0,285,285,285,2018-10-12 10:36:29.418001,2018-10-12 10:36:33.372227,0:00:03.954226,7,left,1,0.4338421866914359,34,f,2,16,2018_Oct_12_1004,MP_PerceptionTuring2,59.97769131276919,
287,resources/videos_generated\model(vcgpdm)-dataset(walking)-mode(ELBO)-parts(2)-dyn(23)-lvm(20)_final(2).mov,resources/videos_natural\training(4).mov,False,True,left,0,286,286,286,2018-10-12 10:36:34.923316,2018-10-12 10:36:38.959547,0:00:04.036231,7,left,1,0.40059289091095707,34,f,2,16,2018_Oct_12_1004,MP_PerceptionTuring2,59.97769131276919,
288,resources/videos_generated\model(vcgpdm)-dataset(walking)-mode(ELBO)-parts(2)-dyn(25)-lvm(20)_final(2).mov,resources/videos_natural\training(31).mov,True,True,left,0,287,287,287,2018-10-12 10:36:40.477634,2018-10-12 10:36:44.614870,0:00:04.137236,7,left,1,0.45064407541258333,34,f,2,16,2018_Oct_12_1004,MP_PerceptionTuring2,59.97769131276919,
289,resources/videos_generated\model(vcgpdm)-dataset(walking)-mode(ELBO)-parts(1)-dyn(27)-lvm(26)_final(8).mov,resources/videos_natural\training(32).mov,True,False,right,0,288,288,288,2018-10-12 10:36:46.182960,2018-10-12 10:36:50.253193,0:00:04.070233,7,right,1,0.46739717396485503,34,f,2,16,2018_Oct_12_1004,MP_PerceptionTuring2,59.97769131276919,
290,resources/videos_generated\model(vcgpdm)-dataset(walking)-mode(ELBO)-parts(1)-dyn(24)-lvm(25)_final(3).mov,resources/videos_natural\training(0).mov,True,True,left,0,289,289,289,2018-10-12 10:36:51.837283,2018-10-12 10:36:55.791509,0:00:03.954226,7,right,0,0.4005772298692136,34,f,2,16,2018_Oct_12_1004,MP_PerceptionTuring2,59.97769131276919,
291,resources/videos_generated\model(vcgpdm)-dataset(walking)-mode(ELBO)-parts(2)-dyn(25)-lvm(18)_final(2).mov,resources/videos_natural\training(25).mov,True,True,left,0,290,290,290,2018-10-12 10:36:57.309596,2018-10-12 10:37:01.262822,0:00:03.953226,7,left,1,0.7341456796157217,34,f,2,16,2018_Oct_12_1004,MP_PerceptionTuring2,59.97769131276919,
