n_trial,mov_file_generated,mov_file_natural,mirrored,switch_stim_pos,correct_answer,trials.thisRepN,trials.thisTrialN,trials.thisN,trials.thisIndex,stimulus_onset,stimulus_off,stimulus_length,block,response.keys,response.corr,response.rt,age,gender,condition,participant,date,expName,frameRate,
1,resources/videos_generated\model(vcgpdm)-dataset(walking)-mode(ELBO)-parts(1)-dyn(25)-lvm(25)_final(7).mov,resources/videos_natural\training(47).mov,False,False,right,0,0,0,0,2018-10-12 11:40:13.088702,2018-10-12 11:40:17.375948,0:00:04.287246,1,right,1,0.26732525364150206,20,m,2,17,2018_Oct_12_1140,MP_PerceptionTuring2,59.934169437403376,
2,resources/videos_generated\model(vcgpdm)-dataset(walking)-mode(ELBO)-parts(1)-dyn(22)-lvm(27)_final(3)_fail.mov,resources/videos_natural\training(42).mov,True,True,left,0,1,1,1,2018-10-12 11:40:18.761027,2018-10-12 11:40:22.714253,0:00:03.953226,1,left,1,0.2338615220551219,20,m,2,17,2018_Oct_12_1140,MP_PerceptionTuring2,59.934169437403376,
3,resources/videos_generated\model(vcgpdm)-dataset(walking)-mode(ELBO)-parts(1)-dyn(23)-lvm(24)_final(4).mov,resources/videos_natural\training(48).mov,False,True,left,0,2,2,2,2018-10-12 11:40:24.065330,2018-10-12 11:40:27.952553,0:00:03.887223,1,left,1,0.40056488173922844,20,m,2,17,2018_Oct_12_1140,MP_PerceptionTuring2,59.934169437403376,
4,resources/videos_generated\model(vcgpdm)-dataset(walking)-mode(ELBO)-parts(2)-dyn(25)-lvm(18)_final(8).mov,resources/videos_natural\training(39).mov,False,True,left,0,3,3,3,2018-10-12 11:40:29.469639,2018-10-12 11:40:33.389864,0:00:03.920225,1,left,1,0.033572455359717424,20,m,2,17,2018_Oct_12_1140,MP_PerceptionTuring2,59.934169437403376,
5,resources/videos_generated\model(vcgpdm)-dataset(walking)-mode(ELBO)-parts(1)-dyn(28)-lvm(24)_final(5).mov,resources/videos_natural\training(39).mov,False,False,right,0,4,4,4,2018-10-12 11:40:34.540929,2018-10-12 11:40:38.428152,0:00:03.887223,1,right,1,0.01691181718979351,20,m,2,17,2018_Oct_12_1140,MP_PerceptionTuring2,59.934169437403376,
6,resources/videos_generated\model(vcgpdm)-dataset(walking)-mode(ELBO)-parts(1)-dyn(26)-lvm(23)_final(8).mov,resources/videos_natural\training(7).mov,True,False,right,0,5,5,5,2018-10-12 11:40:39.562217,2018-10-12 11:40:43.498442,0:00:03.936225,1,right,1,0.3506188069241034,20,m,2,17,2018_Oct_12_1140,MP_PerceptionTuring2,59.934169437403376,
7,resources/videos_generated\model(vcgpdm)-dataset(walking)-mode(ELBO)-parts(2)-dyn(25)-lvm(22)_final(2).mov,resources/videos_natural\training(25).mov,False,True,left,0,6,6,6,2018-10-12 11:40:44.966526,2018-10-12 11:40:48.886750,0:00:03.920224,1,left,1,0.21713251741311979,20,m,2,17,2018_Oct_12_1140,MP_PerceptionTuring2,59.934169437403376,
8,resources/videos_generated\model(vcgpdm)-dataset(walking)-mode(ELBO)-parts(2)-dyn(22)-lvm(21)_final(8).mov,resources/videos_natural\training(45).mov,True,False,right,0,7,7,7,2018-10-12 11:40:50.220826,2018-10-12 11:40:54.158051,0:00:03.937225,1,left,0,0.23374888302078034,20,m,2,17,2018_Oct_12_1140,MP_PerceptionTuring2,59.934169437403376,
9,resources/videos_generated\model(vcgpdm)-dataset(walking)-mode(ELBO)-parts(2)-dyn(22)-lvm(19)_final(4).mov,resources/videos_natural\training(19).mov,False,False,right,0,8,8,8,2018-10-12 11:40:55.509129,2018-10-12 11:40:59.412352,0:00:03.903223,1,right,1,0.38399007812768104,20,m,2,17,2018_Oct_12_1140,MP_PerceptionTuring2,59.934169437403376,
10,resources/videos_generated\model(vcgpdm)-dataset(walking)-mode(ELBO)-parts(2)-dyn(24)-lvm(19)_final(4).mov,resources/videos_natural\training(19).mov,True,False,right,0,9,9,9,2018-10-12 11:41:00.913438,2018-10-12 11:41:04.817661,0:00:03.904223,1,right,1,0.15041256304721173,20,m,2,17,2018_Oct_12_1140,MP_PerceptionTuring2,59.934169437403376,
11,resources/videos_generated\model(vcgpdm)-dataset(walking)-mode(ELBO)-parts(1)-dyn(22)-lvm(22)_final(9).mov,resources/videos_natural\training(16).mov,False,True,left,0,10,10,10,2018-10-12 11:41:06.084734,2018-10-12 11:41:10.004958,0:00:03.920224,1,right,0,0.21707198146214068,20,m,2,17,2018_Oct_12_1140,MP_PerceptionTuring2,59.934169437403376,
12,resources/videos_generated\model(dmp)-dataset(walking)-npsi(90)_final(3).mov,resources/videos_natural\training(44).mov,False,False,right,0,11,11,11,2018-10-12 11:41:11.339034,2018-10-12 11:41:15.243257,0:00:03.904223,1,right,1,0.2838253661293493,20,m,2,17,2018_Oct_12_1140,MP_PerceptionTuring2,59.934169437403376,
13,resources/videos_generated\model(vcgpdm)-dataset(walking)-mode(ELBO)-parts(2)-dyn(26)-lvm(21)_final(8).mov,resources/videos_natural\training(34).mov,False,False,right,0,12,12,12,2018-10-12 11:41:16.644338,2018-10-12 11:41:20.547561,0:00:03.903223,1,right,1,0.20034357916847512,20,m,2,17,2018_Oct_12_1140,MP_PerceptionTuring2,59.934169437403376,
14,resources/videos_generated\model(vcgpdm)-dataset(walking)-mode(ELBO)-parts(1)-dyn(23)-lvm(22)_final(6)_fail.mov,resources/videos_natural\training(31).mov,False,False,right,0,13,13,13,2018-10-12 11:41:21.865636,2018-10-12 11:41:25.768860,0:00:03.903224,1,right,1,0.2506983469475017,20,m,2,17,2018_Oct_12_1140,MP_PerceptionTuring2,59.934169437403376,
15,resources/videos_generated\model(vcgpdm)-dataset(walking)-mode(ELBO)-parts(1)-dyn(24)-lvm(25)_final(3).mov,resources/videos_natural\training(5).mov,False,False,right,0,14,14,14,2018-10-12 11:41:27.136938,2018-10-12 11:41:31.040161,0:00:03.903223,1,right,1,0.30054202264091145,20,m,2,17,2018_Oct_12_1140,MP_PerceptionTuring2,59.934169437403376,
16,resources/videos_generated\model(vcgpdm)-dataset(walking)-mode(ELBO)-parts(2)-dyn(22)-lvm(23)_final(8).mov,resources/videos_natural\training(38).mov,False,False,right,0,15,15,15,2018-10-12 11:41:32.458242,2018-10-12 11:41:36.394467,0:00:03.936225,1,right,1,1.1511230322430492,20,m,2,17,2018_Oct_12_1140,MP_PerceptionTuring2,59.934169437403376,
17,resources/videos_generated\model(vcgpdm)-dataset(walking)-mode(ELBO)-parts(2)-dyn(28)-lvm(19)_final(0).mov,resources/videos_natural\training(11).mov,True,False,right,0,16,16,16,2018-10-12 11:41:38.662597,2018-10-12 11:41:42.649825,0:00:03.987228,1,left,0,0.21706384976732807,20,m,2,17,2018_Oct_12_1140,MP_PerceptionTuring2,59.934169437403376,
18,resources/videos_generated\model(vcgpdm)-dataset(walking)-mode(ELBO)-parts(1)-dyn(27)-lvm(28)_final(4).mov,resources/videos_natural\training(31).mov,True,False,right,0,17,17,17,2018-10-12 11:41:43.983901,2018-10-12 11:41:47.904126,0:00:03.920225,1,left,0,0.20038483999087475,20,m,2,17,2018_Oct_12_1140,MP_PerceptionTuring2,59.934169437403376,
19,resources/videos_generated\model(vcgpdm)-dataset(walking)-mode(ELBO)-parts(1)-dyn(25)-lvm(22)_final(3).mov,resources/videos_natural\training(28).mov,False,False,right,0,18,18,18,2018-10-12 11:41:49.222201,2018-10-12 11:41:53.142425,0:00:03.920224,1,right,1,0.10042402271301398,20,m,2,17,2018_Oct_12_1140,MP_PerceptionTuring2,59.934169437403376,
20,resources/videos_generated\model(vcgpdm)-dataset(walking)-mode(ELBO)-parts(1)-dyn(26)-lvm(23)_final(2).mov,resources/videos_natural\training(12).mov,False,True,left,0,19,19,19,2018-10-12 11:41:54.359495,2018-10-12 11:41:58.229716,0:00:03.870221,1,right,0,0.05028007665532641,20,m,2,17,2018_Oct_12_1140,MP_PerceptionTuring2,59.934169437403376,
21,resources/videos_generated\model(vcgpdm)-dataset(walking)-mode(ELBO)-parts(2)-dyn(22)-lvm(19)_final(0).mov,resources/videos_natural\training(42).mov,True,True,left,0,20,20,20,2018-10-12 11:41:59.397783,2018-10-12 11:42:03.301006,0:00:03.903223,1,left,1,0.28384885769264656,20,m,2,17,2018_Oct_12_1140,MP_PerceptionTuring2,59.934169437403376,
22,resources/videos_generated\model(vcgpdm)-dataset(walking)-mode(ELBO)-parts(2)-dyn(23)-lvm(22)_final(6).mov,resources/videos_natural\training(24).mov,False,False,right,0,21,21,21,2018-10-12 11:42:04.702086,2018-10-12 11:42:08.572308,0:00:03.870222,1,right,1,0.25050288509464735,20,m,2,17,2018_Oct_12_1140,MP_PerceptionTuring2,59.934169437403376,
23,resources/videos_generated\model(vcgpdm)-dataset(walking)-mode(ELBO)-parts(1)-dyn(24)-lvm(27)_final(3).mov,resources/videos_natural\training(44).mov,True,False,right,0,22,22,22,2018-10-12 11:42:09.940386,2018-10-12 11:42:13.843609,0:00:03.903223,1,right,1,0.10041348162667418,20,m,2,17,2018_Oct_12_1140,MP_PerceptionTuring2,59.934169437403376,
24,resources/videos_generated\model(vcgpdm)-dataset(walking)-mode(ELBO)-parts(2)-dyn(24)-lvm(21)_final(6).mov,resources/videos_natural\training(15).mov,False,False,right,0,23,23,23,2018-10-12 11:42:15.060679,2018-10-12 11:42:18.980903,0:00:03.920224,1,right,1,0.3171520635978595,20,m,2,17,2018_Oct_12_1140,MP_PerceptionTuring2,59.934169437403376,
25,resources/videos_generated\model(vcgpdm)-dataset(walking)-mode(ELBO)-parts(1)-dyn(26)-lvm(23)_final(0).mov,resources/videos_natural\training(14).mov,False,False,right,0,24,24,24,2018-10-12 11:42:20.415985,2018-10-12 11:42:24.352210,0:00:03.936225,1,left,0,0.3338211346363096,20,m,2,17,2018_Oct_12_1140,MP_PerceptionTuring2,59.934169437403376,
26,resources/videos_generated\model(vcgpdm)-dataset(walking)-mode(ELBO)-parts(2)-dyn(22)-lvm(21)_final(2).mov,resources/videos_natural\training(22).mov,True,False,right,0,25,25,25,2018-10-12 11:42:25.803293,2018-10-12 11:42:29.740518,0:00:03.937225,1,left,0,0.3675264076791791,20,m,2,17,2018_Oct_12_1140,MP_PerceptionTuring2,59.934169437403376,
27,resources/videos_generated\model(vcgpdm)-dataset(walking)-mode(ELBO)-parts(1)-dyn(25)-lvm(22)_final(7).mov,resources/videos_natural\training(20).mov,False,False,right,0,26,26,26,2018-10-12 11:42:31.225603,2018-10-12 11:42:35.128827,0:00:03.903224,1,right,1,0.2004971778505933,20,m,2,17,2018_Oct_12_1140,MP_PerceptionTuring2,59.934169437403376,
28,resources/videos_generated\model(vcgpdm)-dataset(walking)-mode(ELBO)-parts(2)-dyn(22)-lvm(23)_final(0).mov,resources/videos_natural\training(0).mov,False,True,left,0,27,27,27,2018-10-12 11:42:36.446902,2018-10-12 11:42:40.350125,0:00:03.903223,1,left,1,0.36736527965058485,20,m,2,17,2018_Oct_12_1140,MP_PerceptionTuring2,59.934169437403376,
29,resources/videos_generated\model(vcgpdm)-dataset(walking)-mode(ELBO)-parts(2)-dyn(26)-lvm(21)_final(6).mov,resources/videos_natural\training(30).mov,False,False,right,0,28,28,28,2018-10-12 11:42:41.834210,2018-10-12 11:42:45.721433,0:00:03.887223,1,right,1,0.30049624421098997,20,m,2,17,2018_Oct_12_1140,MP_PerceptionTuring2,59.934169437403376,
30,resources/videos_generated\model(vcgpdm)-dataset(walking)-mode(ELBO)-parts(1)-dyn(26)-lvm(25)_final(2).mov,resources/videos_natural\training(48).mov,False,True,left,0,29,29,29,2018-10-12 11:42:47.138514,2018-10-12 11:42:51.058738,0:00:03.920224,1,left,1,0.850918926700615,20,m,2,17,2018_Oct_12_1140,MP_PerceptionTuring2,59.934169437403376,
31,resources/videos_generated\model(vcgpdm)-dataset(walking)-mode(ELBO)-parts(2)-dyn(26)-lvm(17)_final(8).mov,resources/videos_natural\training(34).mov,True,False,right,0,30,30,30,2018-10-12 11:42:53.027850,2018-10-12 11:42:56.914073,0:00:03.886223,1,left,0,0.23400969960584916,20,m,2,17,2018_Oct_12_1140,MP_PerceptionTuring2,59.934169437403376,
32,resources/videos_generated\model(tmp)-dataset(walking)-numprim(13)_final(9).mov,resources/videos_natural\training(32).mov,False,True,left,0,31,31,31,2018-10-12 11:42:58.265150,2018-10-12 11:43:02.168373,0:00:03.903223,1,left,1,0.08362454338293901,20,m,2,17,2018_Oct_12_1140,MP_PerceptionTuring2,59.934169437403376,
33,resources/videos_generated\model(vcgpdm)-dataset(walking)-mode(ELBO)-parts(1)-dyn(26)-lvm(27)_final(6).mov,resources/videos_natural\training(24).mov,False,False,right,0,32,32,32,2018-10-12 11:43:03.369442,2018-10-12 11:43:07.306667,0:00:03.937225,1,left,0,0.3005332885986718,20,m,2,17,2018_Oct_12_1140,MP_PerceptionTuring2,59.934169437403376,
34,resources/videos_generated\model(vcgpdm)-dataset(walking)-mode(ELBO)-parts(2)-dyn(22)-lvm(21)_final(6).mov,resources/videos_natural\training(33).mov,True,False,right,0,33,33,33,2018-10-12 11:43:08.724748,2018-10-12 11:43:12.627972,0:00:03.903224,1,left,0,0.23370461046033597,20,m,2,17,2018_Oct_12_1140,MP_PerceptionTuring2,59.934169437403376,
35,resources/videos_generated\model(vcgpdm)-dataset(walking)-mode(ELBO)-parts(1)-dyn(27)-lvm(22)_final(6).mov,resources/videos_natural\training(13).mov,False,True,left,0,34,34,34,2018-10-12 11:43:13.979049,2018-10-12 11:43:17.915274,0:00:03.936225,1,left,1,0.11688709081408888,20,m,2,17,2018_Oct_12_1140,MP_PerceptionTuring2,59.934169437403376,
36,resources/videos_generated\model(dmp)-dataset(walking)-npsi(60)_final(3).mov,resources/videos_natural\training(23).mov,True,True,left,0,35,35,35,2018-10-12 11:43:19.150345,2018-10-12 11:43:23.053568,0:00:03.903223,1,left,1,0.25035651458620123,20,m,2,17,2018_Oct_12_1140,MP_PerceptionTuring2,59.934169437403376,
37,resources/videos_generated\model(vcgpdm)-dataset(walking)-mode(ELBO)-parts(1)-dyn(27)-lvm(24)_final(8).mov,resources/videos_natural\training(19).mov,True,True,left,0,36,36,36,2018-10-12 11:43:24.420646,2018-10-12 11:43:28.357871,0:00:03.937225,1,left,1,0.2172183519705868,20,m,2,17,2018_Oct_12_1140,MP_PerceptionTuring2,59.934169437403376,
38,resources/videos_generated\model(vcgpdm)-dataset(walking)-mode(ELBO)-parts(2)-dyn(24)-lvm(17)_final(4).mov,resources/videos_natural\training(0).mov,True,True,left,0,37,37,37,2018-10-12 11:43:29.691948,2018-10-12 11:43:33.596171,0:00:03.904223,1,left,1,0.38391779639459855,20,m,2,17,2018_Oct_12_1140,MP_PerceptionTuring2,59.934169437403376,
39,resources/videos_generated\model(vcgpdm)-dataset(walking)-mode(ELBO)-parts(1)-dyn(25)-lvm(26)_final(5).mov,resources/videos_natural\training(42).mov,False,False,right,0,38,38,38,2018-10-12 11:43:35.097257,2018-10-12 11:43:38.983479,0:00:03.886222,1,right,1,0.2503797049766945,20,m,2,17,2018_Oct_12_1140,MP_PerceptionTuring2,59.934169437403376,
40,resources/videos_generated\model(vcgpdm)-dataset(walking)-mode(ELBO)-parts(1)-dyn(24)-lvm(23)_final(9).mov,resources/videos_natural\training(43).mov,True,False,right,0,39,39,39,2018-10-12 11:43:40.351557,2018-10-12 11:43:44.238780,0:00:03.887223,1,left,0,0.26715117513504083,20,m,2,17,2018_Oct_12_1140,MP_PerceptionTuring2,59.934169437403376,
41,resources/videos_generated\model(tmp)-dataset(walking)-numprim(15)_final(7).mov,resources/videos_natural\training(14).mov,False,True,left,0,40,40,40,2018-10-12 11:43:45.622859,2018-10-12 11:43:49.543083,0:00:03.920224,1,left,1,0.21707168028751767,20,m,2,17,2018_Oct_12_1140,MP_PerceptionTuring2,59.934169437403376,
42,resources/videos_generated\model(vcgpdm)-dataset(walking)-mode(ELBO)-parts(2)-dyn(25)-lvm(18)_final(2).mov,resources/videos_natural\training(45).mov,False,False,right,0,41,41,41,2018-10-12 11:43:50.877159,2018-10-12 11:43:54.780382,0:00:03.903223,1,right,1,0.08370826972259238,20,m,2,17,2018_Oct_12_1140,MP_PerceptionTuring2,59.934169437403376,
43,resources/videos_generated\model(vcgpdm)-dataset(walking)-mode(ELBO)-parts(2)-dyn(25)-lvm(18)_final(6).mov,resources/videos_natural\training(6).mov,True,True,left,0,42,42,42,2018-10-12 11:43:55.981451,2018-10-12 11:43:59.901675,0:00:03.920224,1,right,0,0.16711416086400277,20,m,2,17,2018_Oct_12_1140,MP_PerceptionTuring2,59.934169437403376,
44,resources/videos_generated\model(vcgpdm)-dataset(walking)-mode(ELBO)-parts(2)-dyn(25)-lvm(18)_final(0).mov,resources/videos_natural\training(14).mov,True,False,right,0,43,43,43,2018-10-12 11:44:01.186749,2018-10-12 11:44:05.105973,0:00:03.919224,1,right,1,0.23382508001395763,20,m,2,17,2018_Oct_12_1140,MP_PerceptionTuring2,59.934169437403376,
45,resources/videos_generated\model(vcgpdm)-dataset(walking)-mode(ELBO)-parts(1)-dyn(23)-lvm(24)_final(0).mov,resources/videos_natural\training(28).mov,True,False,right,0,44,44,44,2018-10-12 11:44:06.457050,2018-10-12 11:44:10.394276,0:00:03.937226,1,right,1,0.06694583478019922,20,m,2,17,2018_Oct_12_1140,MP_PerceptionTuring2,59.934169437403376,
46,resources/videos_generated\model(vcgpdm)-dataset(walking)-mode(ELBO)-parts(2)-dyn(22)-lvm(23)_final(2).mov,resources/videos_natural\training(22).mov,False,False,right,0,45,45,45,2018-10-12 11:44:57.451967,2018-10-12 11:45:01.355190,0:00:03.903223,2,right,1,0.25045048083939037,20,m,2,17,2018_Oct_12_1140,MP_PerceptionTuring2,59.934169437403376,
47,resources/videos_generated\model(vcgpdm)-dataset(walking)-mode(ELBO)-parts(2)-dyn(23)-lvm(18)_final(6).mov,resources/videos_natural\training(6).mov,False,True,left,0,46,46,46,2018-10-12 11:45:02.723269,2018-10-12 11:45:06.642493,0:00:03.919224,2,left,1,0.1504372593062726,20,m,2,17,2018_Oct_12_1140,MP_PerceptionTuring2,59.934169437403376,
48,resources/videos_generated\model(vcgpdm)-dataset(walking)-mode(ELBO)-parts(1)-dyn(26)-lvm(27)_final(8).mov,resources/videos_natural\training(9).mov,True,False,right,0,47,47,47,2018-10-12 11:45:07.910565,2018-10-12 11:45:11.813789,0:00:03.903224,2,left,0,0.23366545785575,20,m,2,17,2018_Oct_12_1140,MP_PerceptionTuring2,59.934169437403376,
49,resources/videos_generated\model(vcgpdm)-dataset(walking)-mode(ELBO)-parts(2)-dyn(28)-lvm(19)_final(6).mov,resources/videos_natural\training(35).mov,True,True,left,0,48,48,48,2018-10-12 11:45:13.164866,2018-10-12 11:45:17.068089,0:00:03.903223,2,left,1,0.4173080415539516,20,m,2,17,2018_Oct_12_1140,MP_PerceptionTuring2,59.934169437403376,
50,resources/videos_generated\model(vcgpdm)-dataset(walking)-mode(ELBO)-parts(1)-dyn(22)-lvm(25)_final(7).mov,resources/videos_natural\training(13).mov,True,False,right,0,49,49,49,2018-10-12 11:45:18.603177,2018-10-12 11:45:22.523401,0:00:03.920224,2,right,1,0.20044838768080808,20,m,2,17,2018_Oct_12_1140,MP_PerceptionTuring2,59.934169437403376,
51,resources/videos_generated\model(vcgpdm)-dataset(walking)-mode(ELBO)-parts(1)-dyn(26)-lvm(25)_final(6).mov,resources/videos_natural\training(47).mov,True,True,left,0,50,50,50,2018-10-12 11:45:23.841476,2018-10-12 11:45:27.744700,0:00:03.903224,2,left,1,0.23378984266946645,20,m,2,17,2018_Oct_12_1140,MP_PerceptionTuring2,59.934169437403376,
52,resources/videos_generated\model(dmp)-dataset(walking)-npsi(50)_final(9).mov,resources/videos_natural\training(2).mov,False,False,right,0,51,51,51,2018-10-12 11:45:29.095777,2018-10-12 11:45:32.999000,0:00:03.903223,2,left,0,0.15040774426415737,20,m,2,17,2018_Oct_12_1140,MP_PerceptionTuring2,59.934169437403376,
53,resources/videos_generated\model(vcgpdm)-dataset(walking)-mode(ELBO)-parts(2)-dyn(28)-lvm(19)_final(4).mov,resources/videos_natural\training(4).mov,False,False,right,0,52,52,52,2018-10-12 11:45:34.267073,2018-10-12 11:45:38.170296,0:00:03.903223,2,right,1,0.03371882586816355,20,m,2,17,2018_Oct_12_1140,MP_PerceptionTuring2,59.934169437403376,
54,resources/videos_generated\model(vcgpdm)-dataset(walking)-mode(ELBO)-parts(2)-dyn(22)-lvm(19)_final(8).mov,resources/videos_natural\training(9).mov,True,True,left,0,53,53,53,2018-10-12 11:45:39.321362,2018-10-12 11:45:43.241586,0:00:03.920224,2,left,1,0.033608596225349174,20,m,2,17,2018_Oct_12_1140,MP_PerceptionTuring2,59.934169437403376,
55,resources/videos_generated\model(vcgpdm)-dataset(walking)-mode(ELBO)-parts(1)-dyn(28)-lvm(25)_final(8).mov,resources/videos_natural\training(22).mov,True,True,left,0,54,54,54,2018-10-12 11:45:44.391652,2018-10-12 11:45:48.295875,0:00:03.904223,2,left,1,0.050343925518973265,20,m,2,17,2018_Oct_12_1140,MP_PerceptionTuring2,59.934169437403376,
56,resources/videos_generated\model(vcgpdm)-dataset(walking)-mode(ELBO)-parts(1)-dyn(26)-lvm(27)_final(0).mov,resources/videos_natural\training(6).mov,True,False,right,0,55,55,55,2018-10-12 11:45:49.462942,2018-10-12 11:45:53.367165,0:00:03.904223,2,left,0,0.2003776118181122,20,m,2,17,2018_Oct_12_1140,MP_PerceptionTuring2,59.934169437403376,
57,resources/videos_generated\model(vcgpdm)-dataset(walking)-mode(ELBO)-parts(2)-dyn(28)-lvm(23)_final(8).mov,resources/videos_natural\training(25).mov,False,True,left,0,56,56,56,2018-10-12 11:45:54.684241,2018-10-12 11:45:58.571463,0:00:03.887222,2,right,0,0.35073265065148007,20,m,2,17,2018_Oct_12_1140,MP_PerceptionTuring2,59.934169437403376,
58,resources/videos_generated\model(vcgpdm)-dataset(walking)-mode(ELBO)-parts(1)-dyn(25)-lvm(23)_final(2).mov,resources/videos_natural\training(12).mov,True,True,left,0,57,57,57,2018-10-12 11:46:00.038547,2018-10-12 11:46:03.908768,0:00:03.870221,2,left,1,0.2838795774296159,20,m,2,17,2018_Oct_12_1140,MP_PerceptionTuring2,59.934169437403376,
59,resources/videos_generated\model(vcgpdm)-dataset(walking)-mode(ELBO)-parts(2)-dyn(22)-lvm(19)_final(2).mov,resources/videos_natural\training(22).mov,True,False,right,0,58,58,58,2018-10-12 11:46:05.310848,2018-10-12 11:46:09.247074,0:00:03.936226,2,right,1,0.2837810935670859,20,m,2,17,2018_Oct_12_1140,MP_PerceptionTuring2,59.934169437403376,
60,resources/videos_generated\model(dmp)-dataset(walking)-npsi(90)_final(5).mov,resources/videos_natural\training(26).mov,False,False,right,0,59,59,59,2018-10-12 11:46:10.648154,2018-10-12 11:46:14.534376,0:00:03.886222,2,left,0,0.21699729033935,20,m,2,17,2018_Oct_12_1140,MP_PerceptionTuring2,59.934169437403376,
61,resources/videos_generated\model(dmp)-dataset(walking)-npsi(90)_final(7).mov,resources/videos_natural\training(36).mov,False,False,right,0,60,60,60,2018-10-12 11:46:15.869452,2018-10-12 11:46:19.806678,0:00:03.937226,2,right,1,0.2338076119285688,20,m,2,17,2018_Oct_12_1140,MP_PerceptionTuring2,59.934169437403376,
62,resources/videos_generated\model(vcgpdm)-dataset(walking)-mode(ELBO)-parts(1)-dyn(27)-lvm(24)_final(6).mov,resources/videos_natural\training(47).mov,True,True,left,0,61,61,61,2018-10-12 11:46:21.157755,2018-10-12 11:46:25.060978,0:00:03.903223,2,left,1,0.28377386539432337,20,m,2,17,2018_Oct_12_1140,MP_PerceptionTuring2,59.934169437403376,
63,resources/videos_generated\model(dmp)-dataset(walking)-npsi(70)_final(3).mov,resources/videos_natural\training(43).mov,False,False,right,0,62,62,62,2018-10-12 11:46:26.462058,2018-10-12 11:46:30.382282,0:00:03.920224,2,left,0,0.35045105307108315,20,m,2,17,2018_Oct_12_1140,MP_PerceptionTuring2,59.934169437403376,
64,resources/videos_generated\model(vcgpdm)-dataset(walking)-mode(ELBO)-parts(2)-dyn(28)-lvm(23)_final(2).mov,resources/videos_natural\training(40).mov,True,True,left,0,63,63,63,2018-10-12 11:46:31.849366,2018-10-12 11:46:35.753590,0:00:03.904224,2,left,1,0.20043513602831808,20,m,2,17,2018_Oct_12_1140,MP_PerceptionTuring2,59.934169437403376,
65,resources/videos_generated\model(vcgpdm)-dataset(walking)-mode(ELBO)-parts(2)-dyn(23)-lvm(18)_final(2).mov,resources/videos_natural\training(32).mov,True,True,left,0,64,64,64,2018-10-12 11:46:37.070665,2018-10-12 11:46:41.007890,0:00:03.937225,2,left,1,0.2671228647905082,20,m,2,17,2018_Oct_12_1140,MP_PerceptionTuring2,59.934169437403376,
66,resources/videos_generated\model(vcgpdm)-dataset(walking)-mode(ELBO)-parts(2)-dyn(27)-lvm(18)_final(2).mov,resources/videos_natural\training(34).mov,False,False,right,0,65,65,65,2018-10-12 11:46:42.391969,2018-10-12 11:46:46.312194,0:00:03.920225,2,left,0,0.20074775452303584,20,m,2,17,2018_Oct_12_1140,MP_PerceptionTuring2,59.934169437403376,
67,resources/videos_generated\model(vcgpdm)-dataset(walking)-mode(ELBO)-parts(1)-dyn(27)-lvm(22)_final(2).mov,resources/videos_natural\training(48).mov,True,False,right,0,66,66,66,2018-10-12 11:46:47.630269,2018-10-12 11:46:51.550493,0:00:03.920224,2,left,0,0.11705996462296753,20,m,2,17,2018_Oct_12_1140,MP_PerceptionTuring2,59.934169437403376,
68,resources/videos_generated\model(vcgpdm)-dataset(walking)-mode(ELBO)-parts(1)-dyn(26)-lvm(27)_final(4).mov,resources/videos_natural\training(40).mov,False,True,left,0,67,67,67,2018-10-12 11:46:52.784564,2018-10-12 11:46:56.704788,0:00:03.920224,2,left,1,0.03361190913892642,20,m,2,17,2018_Oct_12_1140,MP_PerceptionTuring2,59.934169437403376,
69,resources/videos_generated\model(vcgpdm)-dataset(walking)-mode(ELBO)-parts(1)-dyn(27)-lvm(22)_final(0).mov,resources/videos_natural\training(36).mov,True,True,left,0,68,68,68,2018-10-12 11:46:57.855854,2018-10-12 11:47:01.776078,0:00:03.920224,2,left,1,0.28396992959460476,20,m,2,17,2018_Oct_12_1140,MP_PerceptionTuring2,59.934169437403376,
70,resources/videos_generated\model(vcgpdm)-dataset(walking)-mode(ELBO)-parts(2)-dyn(28)-lvm(17)_final(0).mov,resources/videos_natural\training(1).mov,True,True,left,0,69,69,69,2018-10-12 11:47:03.177158,2018-10-12 11:47:07.113383,0:00:03.936225,2,left,1,0.06703016346727964,20,m,2,17,2018_Oct_12_1140,MP_PerceptionTuring2,59.934169437403376,
71,resources/videos_generated\model(tmp)-dataset(walking)-numprim(12)_final(9).mov,resources/videos_natural\training(9).mov,True,False,right,0,70,70,70,2018-10-12 11:47:08.298451,2018-10-12 11:47:12.217675,0:00:03.919224,2,left,0,0.18380853050985024,20,m,2,17,2018_Oct_12_1140,MP_PerceptionTuring2,59.934169437403376,
72,resources/videos_generated\model(vcgpdm)-dataset(walking)-mode(ELBO)-parts(1)-dyn(22)-lvm(25)_final(3).mov,resources/videos_natural\training(44).mov,False,False,right,0,71,71,71,2018-10-12 11:47:13.518750,2018-10-12 11:47:17.422973,0:00:03.904223,2,right,1,0.20051223654445494,20,m,2,17,2018_Oct_12_1140,MP_PerceptionTuring2,59.934169437403376,
73,resources/videos_generated\model(vcgpdm)-dataset(walking)-mode(ELBO)-parts(1)-dyn(25)-lvm(28)_final(3).mov,resources/videos_natural\training(11).mov,False,True,left,0,72,72,72,2018-10-12 11:47:18.740048,2018-10-12 11:47:22.644272,0:00:03.904224,2,right,0,0.25060950065198995,20,m,2,17,2018_Oct_12_1140,MP_PerceptionTuring2,59.934169437403376,
74,resources/videos_generated\model(vcgpdm)-dataset(walking)-mode(ELBO)-parts(1)-dyn(27)-lvm(26)_final(4).mov,resources/videos_natural\training(25).mov,False,True,left,0,73,73,73,2018-10-12 11:47:24.011350,2018-10-12 11:47:27.915573,0:00:03.904223,2,left,1,0.38394640791375423,20,m,2,17,2018_Oct_12_1140,MP_PerceptionTuring2,59.934169437403376,
75,resources/videos_generated\model(vcgpdm)-dataset(walking)-mode(ELBO)-parts(1)-dyn(28)-lvm(25)_final(0).mov,resources/videos_natural\training(25).mov,False,False,right,0,74,74,74,2018-10-12 11:47:29.416659,2018-10-12 11:47:33.319882,0:00:03.903223,2,left,0,0.20051073067406833,20,m,2,17,2018_Oct_12_1140,MP_PerceptionTuring2,59.934169437403376,
76,resources/videos_generated\model(vcgpdm)-dataset(walking)-mode(ELBO)-parts(2)-dyn(24)-lvm(19)_final(0).mov,resources/videos_natural\training(18).mov,False,True,left,0,75,75,75,2018-10-12 11:47:34.637958,2018-10-12 11:47:38.557182,0:00:03.919224,2,right,0,0.016821465023895144,20,m,2,17,2018_Oct_12_1140,MP_PerceptionTuring2,59.934169437403376,
77,resources/videos_generated\model(vcgpdm)-dataset(walking)-mode(ELBO)-parts(2)-dyn(22)-lvm(17)_final(2).mov,resources/videos_natural\training(41).mov,True,False,right,0,76,76,76,2018-10-12 11:47:39.692247,2018-10-12 11:47:43.595470,0:00:03.903223,2,right,1,0.20040230807717307,20,m,2,17,2018_Oct_12_1140,MP_PerceptionTuring2,59.934169437403376,
78,resources/videos_generated\model(vcgpdm)-dataset(walking)-mode(ELBO)-parts(1)-dyn(27)-lvm(26)_final(2).mov,resources/videos_natural\training(32).mov,False,False,right,0,77,77,77,2018-10-12 11:47:44.912545,2018-10-12 11:47:48.816769,0:00:03.904224,2,right,1,0.016846161282956018,20,m,2,17,2018_Oct_12_1140,MP_PerceptionTuring2,59.934169437403376,
79,resources/videos_generated\model(vcgpdm)-dataset(walking)-mode(ELBO)-parts(2)-dyn(24)-lvm(19)_final(8).mov,resources/videos_natural\training(37).mov,False,False,right,0,78,78,78,2018-10-12 11:47:49.950833,2018-10-12 11:47:53.904060,0:00:03.953227,2,right,1,0.16709036812790146,20,m,2,17,2018_Oct_12_1140,MP_PerceptionTuring2,59.934169437403376,
80,resources/videos_generated\model(vcgpdm)-dataset(walking)-mode(ELBO)-parts(1)-dyn(26)-lvm(25)_final(4).mov,resources/videos_natural\training(7).mov,True,True,left,0,79,79,79,2018-10-12 11:47:55.188133,2018-10-12 11:47:59.092356,0:00:03.904223,2,left,1,0.08376970919562154,20,m,2,17,2018_Oct_12_1140,MP_PerceptionTuring2,59.934169437403376,
81,resources/videos_generated\model(vcgpdm)-dataset(walking)-mode(ELBO)-parts(1)-dyn(24)-lvm(27)_final(7).mov,resources/videos_natural\training(25).mov,False,True,left,0,80,80,80,2018-10-12 11:48:00.293425,2018-10-12 11:48:04.212649,0:00:03.919224,2,left,1,0.21711143524225918,20,m,2,17,2018_Oct_12_1140,MP_PerceptionTuring2,59.934169437403376,
82,resources/videos_generated\model(vcgpdm)-dataset(walking)-mode(ELBO)-parts(1)-dyn(22)-lvm(25)_final(1).mov,resources/videos_natural\training(47).mov,True,False,right,0,81,81,81,2018-10-12 11:48:05.547726,2018-10-12 11:48:09.450949,0:00:03.903223,2,right,1,0.18377991899069457,20,m,2,17,2018_Oct_12_1140,MP_PerceptionTuring2,59.934169437403376,
83,resources/videos_generated\model(dmp)-dataset(walking)-npsi(60)_final(1).mov,resources/videos_natural\training(12).mov,True,True,left,0,82,82,82,2018-10-12 11:48:10.752023,2018-10-12 11:48:14.605244,0:00:03.853221,2,left,1,0.217049694594607,20,m,2,17,2018_Oct_12_1140,MP_PerceptionTuring2,59.934169437403376,
84,resources/videos_generated\model(vcgpdm)-dataset(walking)-mode(ELBO)-parts(2)-dyn(22)-lvm(17)_final(0).mov,resources/videos_natural\training(22).mov,False,True,left,0,83,83,83,2018-10-12 11:48:15.940320,2018-10-12 11:48:19.843543,0:00:03.903223,2,right,0,0.050340010257059475,20,m,2,17,2018_Oct_12_1140,MP_PerceptionTuring2,59.934169437403376,
85,resources/videos_generated\model(vcgpdm)-dataset(walking)-mode(ELBO)-parts(2)-dyn(23)-lvm(22)_final(4).mov,resources/videos_natural\training(36).mov,False,False,right,0,84,84,84,2018-10-12 11:48:21.010610,2018-10-12 11:48:24.930834,0:00:03.920224,2,right,1,0.18377811194659444,20,m,2,17,2018_Oct_12_1140,MP_PerceptionTuring2,59.934169437403376,
86,resources/videos_generated\model(vcgpdm)-dataset(walking)-mode(ELBO)-parts(2)-dyn(23)-lvm(20)_final(6).mov,resources/videos_natural\training(4).mov,False,False,right,0,85,85,85,2018-10-12 11:48:26.231909,2018-10-12 11:48:30.135132,0:00:03.903223,2,right,1,0.20035080734305666,20,m,2,17,2018_Oct_12_1140,MP_PerceptionTuring2,59.934169437403376,
87,resources/videos_generated\model(vcgpdm)-dataset(walking)-mode(ELBO)-parts(1)-dyn(25)-lvm(26)_final(7).mov,resources/videos_natural\training(23).mov,True,False,right,0,86,86,86,2018-10-12 11:48:31.453207,2018-10-12 11:48:35.373431,0:00:03.920224,2,left,0,0.15031799444659555,20,m,2,17,2018_Oct_12_1140,MP_PerceptionTuring2,59.934169437403376,
88,resources/videos_generated\model(vcgpdm)-dataset(walking)-mode(ELBO)-parts(2)-dyn(26)-lvm(23)_final(0).mov,resources/videos_natural\training(21).mov,True,False,right,0,87,87,87,2018-10-12 11:48:36.641504,2018-10-12 11:48:40.560728,0:00:03.919224,2,right,1,0.0839163808777812,20,m,2,17,2018_Oct_12_1140,MP_PerceptionTuring2,59.934169437403376,
89,resources/videos_generated\model(tmp)-dataset(walking)-numprim(14)_final(5).mov,resources/videos_natural\training(17).mov,True,False,right,0,88,88,88,2018-10-12 11:48:41.761797,2018-10-12 11:48:45.665020,0:00:03.903223,2,left,0,0.016828693196657696,20,m,2,17,2018_Oct_12_1140,MP_PerceptionTuring2,59.934169437403376,
90,resources/videos_generated\model(dmp)-dataset(walking)-npsi(60)_final(7).mov,resources/videos_natural\training(32).mov,True,False,right,0,89,89,89,2018-10-12 11:48:46.800085,2018-10-12 11:48:50.720309,0:00:03.920224,2,left,0,0.21707017441804055,20,m,2,17,2018_Oct_12_1140,MP_PerceptionTuring2,59.934169437403376,
91,resources/videos_generated\model(vcgpdm)-dataset(walking)-mode(ELBO)-parts(1)-dyn(28)-lvm(25)_final(6).mov,resources/videos_natural\training(2).mov,True,True,left,0,90,90,90,2018-10-12 11:49:22.647135,2018-10-12 11:49:26.567360,0:00:03.920225,3,left,1,0.16714969938402646,20,m,2,17,2018_Oct_12_1140,MP_PerceptionTuring2,59.934169437403376,
92,resources/videos_generated\model(vcgpdm)-dataset(walking)-mode(ELBO)-parts(1)-dyn(23)-lvm(27)_final(7).mov,resources/videos_natural\training(6).mov,True,False,right,0,91,91,91,2018-10-12 11:49:27.852433,2018-10-12 11:49:31.771657,0:00:03.919224,3,right,1,0.3171692305095348,20,m,2,17,2018_Oct_12_1140,MP_PerceptionTuring2,59.934169437403376,
93,resources/videos_generated\model(dmp)-dataset(walking)-npsi(70)_final(7).mov,resources/videos_natural\training(48).mov,False,False,right,0,92,92,92,2018-10-12 11:49:33.206739,2018-10-12 11:49:37.126964,0:00:03.920225,3,left,0,0.033629377225224744,20,m,2,17,2018_Oct_12_1140,MP_PerceptionTuring2,59.934169437403376,
94,resources/videos_generated\model(vcgpdm)-dataset(walking)-mode(ELBO)-parts(1)-dyn(23)-lvm(28)_final(1).mov,resources/videos_natural\training(24).mov,True,False,right,0,93,93,93,2018-10-12 11:49:38.278029,2018-10-12 11:49:42.181253,0:00:03.903224,3,right,1,0.2337064175044361,20,m,2,17,2018_Oct_12_1140,MP_PerceptionTuring2,59.934169437403376,
95,resources/videos_generated\model(vcgpdm)-dataset(walking)-mode(ELBO)-parts(2)-dyn(22)-lvm(23)_final(4).mov,resources/videos_natural\training(20).mov,True,True,left,0,94,94,94,2018-10-12 11:49:43.532330,2018-10-12 11:49:47.435553,0:00:03.903223,3,left,1,0.30032367157400586,20,m,2,17,2018_Oct_12_1140,MP_PerceptionTuring2,59.934169437403376,
96,resources/videos_generated\model(tmp)-dataset(walking)-numprim(11)_final(9).mov,resources/videos_natural\training(17).mov,False,False,right,0,95,95,95,2018-10-12 11:49:48.853634,2018-10-12 11:49:52.773859,0:00:03.920225,3,right,1,0.11704761649525608,20,m,2,17,2018_Oct_12_1140,MP_PerceptionTuring2,59.934169437403376,
97,resources/videos_generated\model(vcgpdm)-dataset(walking)-mode(ELBO)-parts(1)-dyn(27)-lvm(24)_final(2).mov,resources/videos_natural\training(27).mov,True,False,right,0,96,96,96,2018-10-12 11:49:54.007929,2018-10-12 11:49:57.895151,0:00:03.887222,3,left,0,0.21718070523456845,20,m,2,17,2018_Oct_12_1140,MP_PerceptionTuring2,59.934169437403376,
98,resources/videos_generated\model(vcgpdm)-dataset(walking)-mode(ELBO)-parts(2)-dyn(22)-lvm(21)_final(4).mov,resources/videos_natural\training(1).mov,False,True,left,0,97,97,97,2018-10-12 11:49:59.229228,2018-10-12 11:50:03.165453,0:00:03.936225,3,left,1,0.3171361013828573,20,m,2,17,2018_Oct_12_1140,MP_PerceptionTuring2,59.934169437403376,
99,resources/videos_generated\model(vcgpdm)-dataset(walking)-mode(ELBO)-parts(2)-dyn(26)-lvm(17)_final(2).mov,resources/videos_natural\training(1).mov,True,True,left,0,98,98,98,2018-10-12 11:50:04.600535,2018-10-12 11:50:08.486757,0:00:03.886222,3,left,1,0.016949765100434888,20,m,2,17,2018_Oct_12_1140,MP_PerceptionTuring2,59.934169437403376,
100,resources/videos_generated\model(vcgpdm)-dataset(walking)-mode(ELBO)-parts(2)-dyn(26)-lvm(23)_final(4).mov,resources/videos_natural\training(7).mov,False,False,right,0,99,99,99,2018-10-12 11:50:09.621822,2018-10-12 11:50:13.525045,0:00:03.903223,3,right,1,0.2669442686765251,20,m,2,17,2018_Oct_12_1140,MP_PerceptionTuring2,59.934169437403376,
101,resources/videos_generated\model(vcgpdm)-dataset(walking)-mode(ELBO)-parts(2)-dyn(25)-lvm(22)_final(6).mov,resources/videos_natural\training(46).mov,False,False,right,0,100,100,100,2018-10-12 11:50:14.909125,2018-10-12 11:50:18.796347,0:00:03.887222,3,right,1,0.3004480563886318,20,m,2,17,2018_Oct_12_1140,MP_PerceptionTuring2,59.934169437403376,
102,resources/videos_generated\model(vcgpdm)-dataset(walking)-mode(ELBO)-parts(1)-dyn(26)-lvm(22)_final(2).mov,resources/videos_natural\training(25).mov,True,True,left,0,101,101,101,2018-10-12 11:50:20.213428,2018-10-12 11:50:24.133652,0:00:03.920224,3,left,1,0.23357691273304226,20,m,2,17,2018_Oct_12_1140,MP_PerceptionTuring2,59.934169437403376,
103,resources/videos_generated\model(vcgpdm)-dataset(walking)-mode(ELBO)-parts(2)-dyn(25)-lvm(22)_final(4).mov,resources/videos_natural\training(13).mov,True,False,right,0,102,102,102,2018-10-12 11:50:25.484729,2018-10-12 11:50:29.404954,0:00:03.920225,3,right,1,0.13371548283794255,20,m,2,17,2018_Oct_12_1140,MP_PerceptionTuring2,59.934169437403376,
104,resources/videos_generated\model(vcgpdm)-dataset(walking)-mode(ELBO)-parts(1)-dyn(23)-lvm(24)_final(8).mov,resources/videos_natural\training(46).mov,False,False,right,0,103,103,103,2018-10-12 11:50:30.656025,2018-10-12 11:50:34.559249,0:00:03.903224,3,right,1,0.21708553428652522,20,m,2,17,2018_Oct_12_1140,MP_PerceptionTuring2,59.934169437403376,
105,resources/videos_generated\model(vcgpdm)-dataset(walking)-mode(ELBO)-parts(1)-dyn(28)-lvm(25)_final(2).mov,resources/videos_natural\training(14).mov,False,True,left,0,104,104,104,2018-10-12 11:50:35.894325,2018-10-12 11:50:39.797548,0:00:03.903223,3,right,0,0.2504824052703043,20,m,2,17,2018_Oct_12_1140,MP_PerceptionTuring2,59.934169437403376,
106,resources/videos_generated\model(vcgpdm)-dataset(walking)-mode(ELBO)-parts(1)-dyn(22)-lvm(22)_final(1).mov,resources/videos_natural\training(34).mov,True,False,right,0,105,105,105,2018-10-12 11:50:41.165626,2018-10-12 11:50:45.051849,0:00:03.886223,3,right,1,0.25049896983364306,20,m,2,17,2018_Oct_12_1140,MP_PerceptionTuring2,59.934169437403376,
107,resources/videos_generated\model(vcgpdm)-dataset(walking)-mode(ELBO)-parts(1)-dyn(28)-lvm(23)_final(6)_fail.mov,resources/videos_natural\training(36).mov,False,True,left,0,106,106,106,2018-10-12 11:50:46.419927,2018-10-12 11:50:50.323150,0:00:03.903223,3,left,1,0.06695908643087023,20,m,2,17,2018_Oct_12_1140,MP_PerceptionTuring2,59.934169437403376,
108,resources/videos_generated\model(vcgpdm)-dataset(walking)-mode(ELBO)-parts(2)-dyn(24)-lvm(19)_final(6).mov,resources/videos_natural\training(18).mov,True,False,right,0,107,107,107,2018-10-12 11:50:51.496217,2018-10-12 11:50:55.394440,0:00:03.898223,3,left,0,0.11706026579850004,20,m,2,17,2018_Oct_12_1140,MP_PerceptionTuring2,59.934169437403376,
109,resources/videos_generated\model(tmp)-dataset(walking)-numprim(14)_final(3).mov,resources/videos_natural\training(33).mov,True,False,right,0,108,108,108,2018-10-12 11:50:56.628511,2018-10-12 11:51:00.531734,0:00:03.903223,3,left,0,0.1337070499685069,20,m,2,17,2018_Oct_12_1140,MP_PerceptionTuring2,59.934169437403376,
110,resources/videos_generated\model(tmp)-dataset(walking)-numprim(11)_final(5).mov,resources/videos_natural\training(30).mov,False,False,right,0,109,109,109,2018-10-12 11:51:01.782806,2018-10-12 11:51:05.720031,0:00:03.937225,3,right,1,0.01699765174817003,20,m,2,17,2018_Oct_12_1140,MP_PerceptionTuring2,59.934169437403376,
111,resources/videos_generated\model(vcgpdm)-dataset(walking)-mode(ELBO)-parts(1)-dyn(24)-lvm(25)_final(9).mov,resources/videos_natural\training(25).mov,False,True,left,0,110,110,110,2018-10-12 11:51:06.854096,2018-10-12 11:51:10.741318,0:00:03.887222,3,left,1,0.03363118426750589,20,m,2,17,2018_Oct_12_1140,MP_PerceptionTuring2,59.934169437403376,
112,resources/videos_generated\model(vcgpdm)-dataset(walking)-mode(ELBO)-parts(1)-dyn(25)-lvm(24)_final(4).mov,resources/videos_natural\training(35).mov,False,True,left,0,111,111,111,2018-10-12 11:51:11.891384,2018-10-12 11:51:15.811608,0:00:03.920224,3,left,1,0.08366640655367519,20,m,2,17,2018_Oct_12_1140,MP_PerceptionTuring2,59.934169437403376,
113,resources/videos_generated\model(vcgpdm)-dataset(walking)-mode(ELBO)-parts(2)-dyn(24)-lvm(17)_final(8).mov,resources/videos_natural\training(16).mov,True,False,right,0,112,112,112,2018-10-12 11:51:17.012677,2018-10-12 11:51:20.932901,0:00:03.920224,3,right,1,0.1336715114503022,20,m,2,17,2018_Oct_12_1140,MP_PerceptionTuring2,59.934169437403376,
114,resources/videos_generated\model(vcgpdm)-dataset(walking)-mode(ELBO)-parts(1)-dyn(25)-lvm(28)_final(7).mov,resources/videos_natural\training(7).mov,True,False,right,0,113,113,113,2018-10-12 11:51:22.183973,2018-10-12 11:51:26.087196,0:00:03.903223,3,right,1,0.36715355440901476,20,m,2,17,2018_Oct_12_1140,MP_PerceptionTuring2,59.934169437403376,
115,resources/videos_generated\model(vcgpdm)-dataset(walking)-mode(ELBO)-parts(1)-dyn(23)-lvm(24)_final(2).mov,resources/videos_natural\training(33).mov,False,True,left,0,114,114,114,2018-10-12 11:51:27.572281,2018-10-12 11:51:31.508506,0:00:03.936225,3,left,1,0.18370583021351194,20,m,2,17,2018_Oct_12_1140,MP_PerceptionTuring2,59.934169437403376,
116,resources/videos_generated\model(tmp)-dataset(walking)-numprim(13)_final(1).mov,resources/videos_natural\training(7).mov,True,True,left,0,115,115,115,2018-10-12 11:51:32.809580,2018-10-12 11:51:36.729804,0:00:03.920224,3,right,0,0.4007013135087618,20,m,2,17,2018_Oct_12_1140,MP_PerceptionTuring2,59.934169437403376,
117,resources/videos_generated\model(vcgpdm)-dataset(walking)-mode(ELBO)-parts(1)-dyn(22)-lvm(23)_final(5).mov,resources/videos_natural\training(39).mov,True,True,left,0,116,116,116,2018-10-12 11:51:38.247891,2018-10-12 11:51:42.185117,0:00:03.937226,3,left,1,0.1337754164414946,20,m,2,17,2018_Oct_12_1140,MP_PerceptionTuring2,59.934169437403376,
118,resources/videos_generated\model(vcgpdm)-dataset(walking)-mode(ELBO)-parts(2)-dyn(27)-lvm(18)_final(8).mov,resources/videos_natural\training(1).mov,False,True,left,0,117,117,117,2018-10-12 11:51:43.436188,2018-10-12 11:51:47.355412,0:00:03.919224,3,left,1,0.2504703583163064,20,m,2,17,2018_Oct_12_1140,MP_PerceptionTuring2,59.934169437403376,
119,resources/videos_generated\model(vcgpdm)-dataset(walking)-mode(ELBO)-parts(2)-dyn(28)-lvm(21)_final(4).mov,resources/videos_natural\training(3).mov,True,True,left,0,118,118,118,2018-10-12 11:51:48.723490,2018-10-12 11:51:52.626714,0:00:03.903224,3,left,1,0.26706082297096145,20,m,2,17,2018_Oct_12_1140,MP_PerceptionTuring2,59.934169437403376,
120,resources/videos_generated\model(vcgpdm)-dataset(walking)-mode(ELBO)-parts(1)-dyn(22)-lvm(23)_final(1).mov,resources/videos_natural\training(10).mov,False,False,right,0,119,119,119,2018-10-12 11:51:54.011793,2018-10-12 11:51:57.932017,0:00:03.920224,3,right,1,0.16711807612591656,20,m,2,17,2018_Oct_12_1140,MP_PerceptionTuring2,59.934169437403376,
121,resources/videos_generated\model(vcgpdm)-dataset(walking)-mode(ELBO)-parts(2)-dyn(25)-lvm(18)_final(4).mov,resources/videos_natural\training(39).mov,True,False,right,0,120,120,120,2018-10-12 11:51:59.216091,2018-10-12 11:52:03.169317,0:00:03.953226,3,right,1,0.16702832630653575,20,m,2,17,2018_Oct_12_1140,MP_PerceptionTuring2,59.934169437403376,
122,resources/videos_generated\model(tmp)-dataset(walking)-numprim(14)_final(9).mov,resources/videos_natural\training(8).mov,False,False,right,0,121,121,121,2018-10-12 11:52:04.454390,2018-10-12 11:52:08.357613,0:00:03.903223,3,right,1,0.2336880458969972,20,m,2,17,2018_Oct_12_1140,MP_PerceptionTuring2,59.934169437403376,
123,resources/videos_generated\model(vcgpdm)-dataset(walking)-mode(ELBO)-parts(1)-dyn(26)-lvm(25)_final(0).mov,resources/videos_natural\training(24).mov,False,True,left,0,122,122,122,2018-10-12 11:52:09.708691,2018-10-12 11:52:13.644916,0:00:03.936225,3,left,1,0.30046943973502493,20,m,2,17,2018_Oct_12_1140,MP_PerceptionTuring2,59.934169437403376,
124,resources/videos_generated\model(vcgpdm)-dataset(walking)-mode(ELBO)-parts(2)-dyn(24)-lvm(23)_final(4).mov,resources/videos_natural\training(18).mov,True,True,left,0,123,123,123,2018-10-12 11:52:15.062997,2018-10-12 11:52:18.966220,0:00:03.903223,3,right,0,0.15042280295892851,20,m,2,17,2018_Oct_12_1140,MP_PerceptionTuring2,59.934169437403376,
125,resources/videos_generated\model(vcgpdm)-dataset(walking)-mode(ELBO)-parts(1)-dyn(25)-lvm(26)_final(1).mov,resources/videos_natural\training(18).mov,False,True,left,0,124,124,124,2018-10-12 11:52:20.234293,2018-10-12 11:52:24.187519,0:00:03.953226,3,right,0,0.11706839749422215,20,m,2,17,2018_Oct_12_1140,MP_PerceptionTuring2,59.934169437403376,
126,resources/videos_generated\model(vcgpdm)-dataset(walking)-mode(ELBO)-parts(2)-dyn(28)-lvm(17)_final(6).mov,resources/videos_natural\training(6).mov,True,False,right,0,125,125,125,2018-10-12 11:52:25.422590,2018-10-12 11:52:29.325813,0:00:03.903223,3,right,1,0.16717168507602764,20,m,2,17,2018_Oct_12_1140,MP_PerceptionTuring2,59.934169437403376,
127,resources/videos_generated\model(vcgpdm)-dataset(walking)-mode(ELBO)-parts(2)-dyn(26)-lvm(17)_final(4).mov,resources/videos_natural\training(39).mov,False,False,right,0,126,126,126,2018-10-12 11:52:30.609886,2018-10-12 11:52:34.496109,0:00:03.886223,3,right,1,0.23365310972621955,20,m,2,17,2018_Oct_12_1140,MP_PerceptionTuring2,59.934169437403376,
128,resources/videos_generated\model(vcgpdm)-dataset(walking)-mode(ELBO)-parts(2)-dyn(26)-lvm(19)_final(2).mov,resources/videos_natural\training(43).mov,False,True,left,0,127,127,127,2018-10-12 11:52:35.848186,2018-10-12 11:52:39.751409,0:00:03.903223,3,right,0,0.21698765277506027,20,m,2,17,2018_Oct_12_1140,MP_PerceptionTuring2,59.934169437403376,
129,resources/videos_generated\model(vcgpdm)-dataset(walking)-mode(ELBO)-parts(2)-dyn(28)-lvm(21)_final(6).mov,resources/videos_natural\training(27).mov,False,True,left,0,128,128,128,2018-10-12 11:52:41.085485,2018-10-12 11:52:45.005710,0:00:03.920225,3,left,1,0.016864834064108436,20,m,2,17,2018_Oct_12_1140,MP_PerceptionTuring2,59.934169437403376,
130,resources/videos_generated\model(vcgpdm)-dataset(walking)-mode(ELBO)-parts(1)-dyn(22)-lvm(27)_final(1)_fail.mov,resources/videos_natural\training(8).mov,False,False,right,0,129,129,129,2018-10-12 11:52:46.139775,2018-10-12 11:52:50.042998,0:00:03.903223,3,right,1,0.2505140285284142,20,m,2,17,2018_Oct_12_1140,MP_PerceptionTuring2,59.934169437403376,
131,resources/videos_generated\model(vcgpdm)-dataset(walking)-mode(ELBO)-parts(1)-dyn(24)-lvm(23)_final(5).mov,resources/videos_natural\training(11).mov,True,True,left,0,130,130,130,2018-10-12 11:52:51.411076,2018-10-12 11:52:55.314299,0:00:03.903223,3,left,1,0.1170307507582038,20,m,2,17,2018_Oct_12_1140,MP_PerceptionTuring2,59.934169437403376,
132,resources/videos_generated\model(vcgpdm)-dataset(walking)-mode(ELBO)-parts(1)-dyn(27)-lvm(26)_final(6).mov,resources/videos_natural\training(10).mov,False,True,left,0,131,131,131,2018-10-12 11:52:56.549370,2018-10-12 11:53:00.452593,0:00:03.903223,3,left,1,0.2669825177599705,20,m,2,17,2018_Oct_12_1140,MP_PerceptionTuring2,59.934169437403376,
133,resources/videos_generated\model(vcgpdm)-dataset(walking)-mode(ELBO)-parts(1)-dyn(28)-lvm(25)_final(4).mov,resources/videos_natural\training(0).mov,True,True,left,0,132,132,132,2018-10-12 11:53:01.836672,2018-10-12 11:53:05.756897,0:00:03.920225,3,right,0,0.06705034211881866,20,m,2,17,2018_Oct_12_1140,MP_PerceptionTuring2,59.934169437403376,
134,resources/videos_generated\model(vcgpdm)-dataset(walking)-mode(ELBO)-parts(1)-dyn(25)-lvm(22)_final(9).mov,resources/videos_natural\training(18).mov,False,True,left,0,133,133,133,2018-10-12 11:53:06.940964,2018-10-12 11:53:10.878189,0:00:03.937225,3,left,1,0.23378893914741639,20,m,2,17,2018_Oct_12_1140,MP_PerceptionTuring2,59.934169437403376,
135,resources/videos_generated\model(vcgpdm)-dataset(walking)-mode(ELBO)-parts(1)-dyn(27)-lvm(28)_final(2).mov,resources/videos_natural\training(28).mov,False,False,right,0,134,134,134,2018-10-12 11:53:12.229267,2018-10-12 11:53:16.132490,0:00:03.903223,3,left,0,0.20043513602831808,20,m,2,17,2018_Oct_12_1140,MP_PerceptionTuring2,59.934169437403376,
136,resources/videos_generated\model(vcgpdm)-dataset(walking)-mode(ELBO)-parts(1)-dyn(28)-lvm(23)_final(0).mov,resources/videos_natural\training(26).mov,True,True,left,0,135,135,135,2018-10-12 11:55:34.018377,2018-10-12 11:55:37.955602,0:00:03.937225,4,left,1,0.05027616139523161,20,m,2,17,2018_Oct_12_1140,MP_PerceptionTuring2,59.934169437403376,
137,resources/videos_generated\model(vcgpdm)-dataset(walking)-mode(ELBO)-parts(2)-dyn(26)-lvm(19)_final(8).mov,resources/videos_natural\training(5).mov,True,True,left,0,136,136,136,2018-10-12 11:55:39.122669,2018-10-12 11:55:43.025892,0:00:03.903223,4,left,1,0.06714069428380753,20,m,2,17,2018_Oct_12_1140,MP_PerceptionTuring2,59.934169437403376,
138,resources/videos_generated\model(vcgpdm)-dataset(walking)-mode(ELBO)-parts(2)-dyn(23)-lvm(22)_final(0).mov,resources/videos_natural\training(14).mov,False,True,left,0,137,137,137,2018-10-12 11:55:44.210960,2018-10-12 11:55:48.147185,0:00:03.936225,4,left,1,0.2670915427061118,20,m,2,17,2018_Oct_12_1140,MP_PerceptionTuring2,59.934169437403376,
139,resources/videos_generated\model(vcgpdm)-dataset(walking)-mode(ELBO)-parts(2)-dyn(27)-lvm(22)_final(0).mov,resources/videos_natural\training(11).mov,False,True,left,0,138,138,138,2018-10-12 11:55:49.515263,2018-10-12 11:55:53.418486,0:00:03.903223,4,left,1,0.0002602142358227866,20,m,2,17,2018_Oct_12_1140,MP_PerceptionTuring2,59.934169437403376,
140,resources/videos_generated\model(vcgpdm)-dataset(walking)-mode(ELBO)-parts(1)-dyn(25)-lvm(24)_final(8).mov,resources/videos_natural\training(4).mov,True,True,left,0,139,139,139,2018-10-12 11:55:54.536550,2018-10-12 11:55:58.439773,0:00:03.903223,4,left,1,0.36736136438958056,20,m,2,17,2018_Oct_12_1140,MP_PerceptionTuring2,59.934169437403376,
141,resources/videos_generated\model(vcgpdm)-dataset(walking)-mode(ELBO)-parts(1)-dyn(22)-lvm(28)_final(2).mov,resources/videos_natural\training(42).mov,False,True,left,0,140,140,140,2018-10-12 11:55:59.923858,2018-10-12 11:56:03.827082,0:00:03.903224,4,right,0,0.033511015886688256,20,m,2,17,2018_Oct_12_1140,MP_PerceptionTuring2,59.934169437403376,
142,resources/videos_generated\model(vcgpdm)-dataset(walking)-mode(ELBO)-parts(1)-dyn(22)-lvm(23)_final(3)_fail.mov,resources/videos_natural\training(0).mov,False,True,left,0,141,141,141,2018-10-12 11:56:04.978147,2018-10-12 11:56:08.865370,0:00:03.887223,4,left,1,0.23376062880379322,20,m,2,17,2018_Oct_12_1140,MP_PerceptionTuring2,59.934169437403376,
143,resources/videos_generated\model(vcgpdm)-dataset(walking)-mode(ELBO)-parts(1)-dyn(25)-lvm(22)_final(5).mov,resources/videos_natural\training(45).mov,False,True,left,0,142,142,142,2018-10-12 11:56:10.216447,2018-10-12 11:56:14.136671,0:00:03.920224,4,left,1,0.017032889092661208,20,m,2,17,2018_Oct_12_1140,MP_PerceptionTuring2,59.934169437403376,
144,resources/videos_generated\model(vcgpdm)-dataset(walking)-mode(ELBO)-parts(2)-dyn(28)-lvm(23)_final(4)_fail.mov,resources/videos_natural\training(37).mov,False,False,right,0,143,143,143,2018-10-12 11:56:15.270736,2018-10-12 11:56:19.157958,0:00:03.887222,4,right,1,0.11715031678977539,20,m,2,17,2018_Oct_12_1140,MP_PerceptionTuring2,59.934169437403376,
145,resources/videos_generated\model(vcgpdm)-dataset(walking)-mode(ELBO)-parts(2)-dyn(24)-lvm(21)_final(4).mov,resources/videos_natural\training(15).mov,True,False,right,0,144,144,144,2018-10-12 11:56:20.392029,2018-10-12 11:56:24.312253,0:00:03.920224,4,right,1,0.06689855047989113,20,m,2,17,2018_Oct_12_1140,MP_PerceptionTuring2,59.934169437403376,
146,resources/videos_generated\model(dmp)-dataset(walking)-npsi(80)_final(3).mov,resources/videos_natural\training(28).mov,False,True,left,0,145,145,145,2018-10-12 11:56:25.496321,2018-10-12 11:56:29.399544,0:00:03.903223,4,right,0,0.166978933790233,20,m,2,17,2018_Oct_12_1140,MP_PerceptionTuring2,59.934169437403376,
147,resources/videos_generated\model(dmp)-dataset(walking)-npsi(50)_final(7).mov,resources/videos_natural\training(3).mov,True,True,left,0,146,146,146,2018-10-12 11:56:30.683618,2018-10-12 11:56:34.620843,0:00:03.937225,4,left,1,0.06687656478607096,20,m,2,17,2018_Oct_12_1140,MP_PerceptionTuring2,59.934169437403376,
148,resources/videos_generated\model(vcgpdm)-dataset(walking)-mode(ELBO)-parts(2)-dyn(26)-lvm(21)_final(2).mov,resources/videos_natural\training(3).mov,False,False,right,0,147,147,147,2018-10-12 11:56:35.804911,2018-10-12 11:56:39.759137,0:00:03.954226,4,right,1,0.13390522238478297,20,m,2,17,2018_Oct_12_1140,MP_PerceptionTuring2,59.934169437403376,
149,resources/videos_generated\model(vcgpdm)-dataset(walking)-mode(ELBO)-parts(1)-dyn(23)-lvm(26)_final(6)_hip-corrected.mov,resources/videos_natural\training(32).mov,True,False,right,0,148,148,148,2018-10-12 11:56:41.009208,2018-10-12 11:56:44.913432,0:00:03.904224,4,right,1,0.21709276245928777,20,m,2,17,2018_Oct_12_1140,MP_PerceptionTuring2,59.934169437403376,
150,resources/videos_generated\model(vcgpdm)-dataset(walking)-mode(ELBO)-parts(2)-dyn(24)-lvm(19)_final(2).mov,resources/videos_natural\training(5).mov,True,False,right,0,149,149,149,2018-10-12 11:56:46.247508,2018-10-12 11:56:50.167732,0:00:03.920224,4,right,1,0.33383137454802636,20,m,2,17,2018_Oct_12_1140,MP_PerceptionTuring2,59.934169437403376,
151,resources/videos_generated\model(vcgpdm)-dataset(walking)-mode(ELBO)-parts(1)-dyn(28)-lvm(27)_final(6).mov,resources/videos_natural\training(5).mov,True,True,left,0,150,150,150,2018-10-12 11:56:51.618815,2018-10-12 11:56:55.522038,0:00:03.903223,4,right,0,0.10019964817001892,20,m,2,17,2018_Oct_12_1140,MP_PerceptionTuring2,59.934169437403376,
152,resources/videos_generated\model(tmp)-dataset(walking)-numprim(11)_final(3).mov,resources/videos_natural\training(23).mov,False,False,right,0,151,151,151,2018-10-12 11:56:56.740108,2018-10-12 11:57:00.660332,0:00:03.920224,4,left,0,0.06690969391456747,20,m,2,17,2018_Oct_12_1140,MP_PerceptionTuring2,59.934169437403376,
153,resources/videos_generated\model(vcgpdm)-dataset(walking)-mode(ELBO)-parts(2)-dyn(23)-lvm(20)_final(2).mov,resources/videos_natural\training(9).mov,True,False,right,0,152,152,152,2018-10-12 11:57:01.844400,2018-10-12 11:57:05.781625,0:00:03.937225,4,right,1,0.0002529860648792237,20,m,2,17,2018_Oct_12_1140,MP_PerceptionTuring2,59.934169437403376,
154,resources/videos_generated\model(tmp)-dataset(walking)-numprim(11)_final(7).mov,resources/videos_natural\training(8).mov,True,True,left,0,153,153,153,2018-10-12 11:57:06.898689,2018-10-12 11:57:10.835914,0:00:03.937225,4,left,1,0.15035865292156814,20,m,2,17,2018_Oct_12_1140,MP_PerceptionTuring2,59.934169437403376,
155,resources/videos_generated\model(vcgpdm)-dataset(walking)-mode(ELBO)-parts(1)-dyn(24)-lvm(23)_final(3)_fail.mov,resources/videos_natural\training(21).mov,True,True,left,0,154,154,154,2018-10-12 11:57:12.102987,2018-10-12 11:57:16.006210,0:00:03.903223,4,left,1,0.050249055744643556,20,m,2,17,2018_Oct_12_1140,MP_PerceptionTuring2,59.934169437403376,
156,resources/videos_generated\model(vcgpdm)-dataset(walking)-mode(ELBO)-parts(2)-dyn(23)-lvm(22)_final(8).mov,resources/videos_natural\training(6).mov,True,True,left,0,155,155,155,2018-10-12 11:57:17.174277,2018-10-12 11:57:21.061499,0:00:03.887222,4,left,1,0.3005832834642206,20,m,2,17,2018_Oct_12_1140,MP_PerceptionTuring2,59.934169437403376,
157,resources/videos_generated\model(dmp)-dataset(walking)-npsi(90)_final(9).mov,resources/videos_natural\training(9).mov,True,True,left,0,156,156,156,2018-10-12 11:57:22.478580,2018-10-12 11:57:26.398804,0:00:03.920224,4,left,1,0.28379765813224367,20,m,2,17,2018_Oct_12_1140,MP_PerceptionTuring2,59.934169437403376,
158,resources/videos_generated\model(tmp)-dataset(walking)-numprim(12)_final(5).mov,resources/videos_natural\training(41).mov,True,False,right,0,157,157,157,2018-10-12 11:57:27.799885,2018-10-12 11:57:31.737110,0:00:03.937225,4,left,0,0.10043697318906197,20,m,2,17,2018_Oct_12_1140,MP_PerceptionTuring2,59.934169437403376,
159,resources/videos_generated\model(vcgpdm)-dataset(walking)-mode(ELBO)-parts(2)-dyn(25)-lvm(20)_final(4).mov,resources/videos_natural\training(35).mov,False,True,left,0,158,158,158,2018-10-12 11:57:32.955179,2018-10-12 11:57:36.841402,0:00:03.886223,4,right,0,0.23378020510426722,20,m,2,17,2018_Oct_12_1140,MP_PerceptionTuring2,59.934169437403376,
160,resources/videos_generated\model(tmp)-dataset(walking)-numprim(11)_final(1).mov,resources/videos_natural\training(35).mov,True,True,left,0,159,159,159,2018-10-12 11:57:38.192479,2018-10-12 11:57:42.095702,0:00:03.903223,4,left,1,0.00019154659275955055,20,m,2,17,2018_Oct_12_1140,MP_PerceptionTuring2,59.934169437403376,
161,resources/videos_generated\model(vcgpdm)-dataset(walking)-mode(ELBO)-parts(2)-dyn(28)-lvm(19)_final(8).mov,resources/videos_natural\training(29).mov,False,False,right,0,160,160,160,2018-10-12 11:57:43.213766,2018-10-12 11:57:47.116989,0:00:03.903223,4,left,0,0.1504673766939959,20,m,2,17,2018_Oct_12_1140,MP_PerceptionTuring2,59.934169437403376,
162,resources/videos_generated\model(vcgpdm)-dataset(walking)-mode(ELBO)-parts(1)-dyn(27)-lvm(22)_final(4).mov,resources/videos_natural\training(43).mov,True,False,right,0,161,161,161,2018-10-12 11:57:48.384062,2018-10-12 11:57:52.288285,0:00:03.904223,4,right,1,0.2004221855513606,20,m,2,17,2018_Oct_12_1140,MP_PerceptionTuring2,59.934169437403376,
163,resources/videos_generated\model(vcgpdm)-dataset(walking)-mode(ELBO)-parts(2)-dyn(22)-lvm(23)_final(6).mov,resources/videos_natural\training(36).mov,True,True,left,0,162,162,162,2018-10-12 11:57:53.605361,2018-10-12 11:57:57.475582,0:00:03.870221,4,left,1,0.10021530921221711,20,m,2,17,2018_Oct_12_1140,MP_PerceptionTuring2,59.934169437403376,
164,resources/videos_generated\model(dmp)-dataset(walking)-npsi(100)_final(1).mov,resources/videos_natural\training(27).mov,False,False,right,0,163,163,163,2018-10-12 11:57:58.693652,2018-10-12 11:58:02.629877,0:00:03.936225,4,right,1,0.16696899505222973,20,m,2,17,2018_Oct_12_1140,MP_PerceptionTuring2,59.934169437403376,
165,resources/videos_generated\model(vcgpdm)-dataset(walking)-mode(ELBO)-parts(1)-dyn(23)-lvm(27)_final(0).mov,resources/videos_natural\training(24).mov,True,False,right,0,164,164,164,2018-10-12 11:58:03.914950,2018-10-12 11:58:07.801172,0:00:03.886222,4,right,1,0.1336898830577411,20,m,2,17,2018_Oct_12_1140,MP_PerceptionTuring2,59.934169437403376,
166,resources/videos_generated\model(vcgpdm)-dataset(walking)-mode(ELBO)-parts(1)-dyn(22)-lvm(27)_final(9)_hip-corrected.mov,resources/videos_natural\training(30).mov,False,True,left,0,165,165,165,2018-10-12 11:58:09.052244,2018-10-12 11:58:12.955467,0:00:03.903223,4,right,0,0.1335661005905422,20,m,2,17,2018_Oct_12_1140,MP_PerceptionTuring2,59.934169437403376,
167,resources/videos_generated\model(vcgpdm)-dataset(walking)-mode(ELBO)-parts(1)-dyn(23)-lvm(22)_final(4)_fail.mov,resources/videos_natural\training(44).mov,True,False,right,0,166,166,166,2018-10-12 11:58:14.206539,2018-10-12 11:58:18.176766,0:00:03.970227,4,right,1,0.21707559554852196,20,m,2,17,2018_Oct_12_1140,MP_PerceptionTuring2,59.934169437403376,
168,resources/videos_generated\model(vcgpdm)-dataset(walking)-mode(ELBO)-parts(1)-dyn(24)-lvm(27)_final(9).mov,resources/videos_natural\training(37).mov,False,False,right,0,167,167,167,2018-10-12 11:58:19.511842,2018-10-12 11:58:23.415066,0:00:03.903224,4,right,1,0.11689251194366079,20,m,2,17,2018_Oct_12_1140,MP_PerceptionTuring2,59.934169437403376,
169,resources/videos_generated\model(vcgpdm)-dataset(walking)-mode(ELBO)-parts(2)-dyn(25)-lvm(20)_final(0).mov,resources/videos_natural\training(7).mov,False,False,right,0,168,168,168,2018-10-12 11:58:24.649136,2018-10-12 11:58:28.552359,0:00:03.903223,4,right,1,0.15033425783622079,20,m,2,17,2018_Oct_12_1140,MP_PerceptionTuring2,59.934169437403376,
170,resources/videos_generated\model(vcgpdm)-dataset(walking)-mode(ELBO)-parts(1)-dyn(25)-lvm(28)_final(9).mov,resources/videos_natural\training(29).mov,True,False,right,0,169,169,169,2018-10-12 11:58:29.820432,2018-10-12 11:58:33.706654,0:00:03.886222,4,left,0,0.05030808582523605,20,m,2,17,2018_Oct_12_1140,MP_PerceptionTuring2,59.934169437403376,
171,resources/videos_generated\model(dmp)-dataset(walking)-npsi(100)_final(3).mov,resources/videos_natural\training(10).mov,False,True,left,0,170,170,170,2018-10-12 11:58:34.874721,2018-10-12 11:58:38.811946,0:00:03.937225,4,right,0,0.13376638122463191,20,m,2,17,2018_Oct_12_1140,MP_PerceptionTuring2,59.934169437403376,
172,resources/videos_generated\model(vcgpdm)-dataset(walking)-mode(ELBO)-parts(1)-dyn(25)-lvm(26)_final(9).mov,resources/videos_natural\training(6).mov,True,False,right,0,171,171,171,2018-10-12 11:58:40.063018,2018-10-12 11:58:43.949240,0:00:03.886222,4,right,1,0.0336549770036072,20,m,2,17,2018_Oct_12_1140,MP_PerceptionTuring2,59.934169437403376,
173,resources/videos_generated\model(vcgpdm)-dataset(walking)-mode(ELBO)-parts(2)-dyn(25)-lvm(22)_final(0).mov,resources/videos_natural\training(35).mov,True,True,left,0,172,172,172,2018-10-12 11:58:45.100306,2018-10-12 11:58:48.986528,0:00:03.886222,4,left,1,0.21707408967813535,20,m,2,17,2018_Oct_12_1140,MP_PerceptionTuring2,59.934169437403376,
174,resources/videos_generated\model(vcgpdm)-dataset(walking)-mode(ELBO)-parts(2)-dyn(25)-lvm(20)_final(6).mov,resources/videos_natural\training(45).mov,False,True,left,0,173,173,173,2018-10-12 11:58:50.321605,2018-10-12 11:58:54.224828,0:00:03.903223,4,right,0,0.2504351209699962,20,m,2,17,2018_Oct_12_1140,MP_PerceptionTuring2,59.934169437403376,
175,resources/videos_generated\model(vcgpdm)-dataset(walking)-mode(ELBO)-parts(2)-dyn(27)-lvm(22)_final(8).mov,resources/videos_natural\training(47).mov,False,False,right,0,174,174,174,2018-10-12 11:58:55.592906,2018-10-12 11:58:59.496129,0:00:03.903223,4,right,1,0.18372209360313718,20,m,2,17,2018_Oct_12_1140,MP_PerceptionTuring2,59.934169437403376,
176,resources/videos_generated\model(vcgpdm)-dataset(walking)-mode(ELBO)-parts(1)-dyn(24)-lvm(25)_final(1).mov,resources/videos_natural\training(28).mov,True,True,left,0,175,175,175,2018-10-12 11:59:00.797204,2018-10-12 11:59:04.700427,0:00:03.903223,4,left,1,0.2503902460612153,20,m,2,17,2018_Oct_12_1140,MP_PerceptionTuring2,59.934169437403376,
177,resources/videos_generated\model(vcgpdm)-dataset(walking)-mode(ELBO)-parts(2)-dyn(22)-lvm(17)_final(6).mov,resources/videos_natural\training(27).mov,True,True,left,0,176,176,176,2018-10-12 11:59:06.068505,2018-10-12 11:59:09.988729,0:00:03.920224,4,left,1,0.23384074105706532,20,m,2,17,2018_Oct_12_1140,MP_PerceptionTuring2,59.934169437403376,
178,resources/videos_generated\model(dmp)-dataset(walking)-npsi(60)_final(5).mov,resources/videos_natural\training(40).mov,False,False,right,0,177,177,177,2018-10-12 11:59:11.339807,2018-10-12 11:59:15.226029,0:00:03.886222,4,right,1,0.26715268100451794,20,m,2,17,2018_Oct_12_1140,MP_PerceptionTuring2,59.934169437403376,
179,resources/videos_generated\model(vcgpdm)-dataset(walking)-mode(ELBO)-parts(1)-dyn(27)-lvm(28)_final(0).mov,resources/videos_natural\training(13).mov,True,True,left,0,178,178,178,2018-10-12 11:59:16.611108,2018-10-12 11:59:20.497330,0:00:03.886222,4,right,0,0.0502864013051294,20,m,2,17,2018_Oct_12_1140,MP_PerceptionTuring2,59.934169437403376,
180,resources/videos_generated\model(dmp)-dataset(walking)-npsi(100)_final(9).mov,resources/videos_natural\training(39).mov,False,False,right,0,179,179,179,2018-10-12 11:59:21.665397,2018-10-12 11:59:25.585621,0:00:03.920224,4,right,1,0.23393410496100842,20,m,2,17,2018_Oct_12_1140,MP_PerceptionTuring2,59.934169437403376,
181,resources/videos_generated\model(vcgpdm)-dataset(walking)-mode(ELBO)-parts(2)-dyn(26)-lvm(17)_final(6).mov,resources/videos_natural\training(22).mov,True,False,right,0,180,180,180,2018-10-12 11:59:58.880526,2018-10-12 12:00:02.800750,0:00:03.920224,5,right,1,0.26705781123018824,20,m,2,17,2018_Oct_12_1140,MP_PerceptionTuring2,59.934169437403376,
182,resources/videos_generated\model(vcgpdm)-dataset(walking)-mode(ELBO)-parts(1)-dyn(22)-lvm(22)_final(7).mov,resources/videos_natural\training(30).mov,True,False,right,0,181,181,181,2018-10-12 12:00:04.184829,2018-10-12 12:00:08.072052,0:00:03.887223,5,left,0,0.18370854077875265,20,m,2,17,2018_Oct_12_1140,MP_PerceptionTuring2,59.934169437403376,
183,resources/videos_generated\model(tmp)-dataset(walking)-numprim(15)_final(9).mov,resources/videos_natural\training(29).mov,True,True,left,0,182,182,182,2018-10-12 12:00:09.373126,2018-10-12 12:00:13.276349,0:00:03.903223,5,right,0,0.3671656013648317,20,m,2,17,2018_Oct_12_1140,MP_PerceptionTuring2,59.934169437403376,
184,resources/videos_generated\model(vcgpdm)-dataset(walking)-mode(ELBO)-parts(1)-dyn(27)-lvm(22)_final(8).mov,resources/videos_natural\training(4).mov,False,False,right,0,183,183,183,2018-10-12 12:00:14.761434,2018-10-12 12:00:18.714660,0:00:03.953226,5,right,1,0.20053994454247004,20,m,2,17,2018_Oct_12_1140,MP_PerceptionTuring2,59.934169437403376,
185,resources/videos_generated\model(vcgpdm)-dataset(walking)-mode(ELBO)-parts(1)-dyn(26)-lvm(23)_final(6)_fail.mov,resources/videos_natural\training(32).mov,False,False,right,0,184,184,184,2018-10-12 12:00:20.031736,2018-10-12 12:00:23.901957,0:00:03.870221,5,right,1,0.1503475094868918,20,m,2,17,2018_Oct_12_1140,MP_PerceptionTuring2,59.934169437403376,
186,resources/videos_generated\model(vcgpdm)-dataset(walking)-mode(ELBO)-parts(1)-dyn(23)-lvm(26)_final(0).mov,resources/videos_natural\training(21).mov,True,True,left,0,185,185,185,2018-10-12 12:00:25.170030,2018-10-12 12:00:29.073253,0:00:03.903223,5,left,1,0.08365676898938545,20,m,2,17,2018_Oct_12_1140,MP_PerceptionTuring2,59.934169437403376,
187,resources/videos_generated\model(vcgpdm)-dataset(walking)-mode(ELBO)-parts(1)-dyn(22)-lvm(22)_final(5).mov,resources/videos_natural\training(47).mov,True,True,left,0,186,186,186,2018-10-12 12:00:30.274321,2018-10-12 12:00:34.177545,0:00:03.903224,5,left,1,0.016931393492995994,20,m,2,17,2018_Oct_12_1140,MP_PerceptionTuring2,59.934169437403376,
188,resources/videos_generated\model(vcgpdm)-dataset(walking)-mode(ELBO)-parts(2)-dyn(28)-lvm(21)_final(2).mov,resources/videos_natural\training(10).mov,True,True,left,0,187,187,187,2018-10-12 12:00:35.311610,2018-10-12 12:00:39.231834,0:00:03.920224,5,left,1,0.08378506906410621,20,m,2,17,2018_Oct_12_1140,MP_PerceptionTuring2,59.934169437403376,
189,resources/videos_generated\model(vcgpdm)-dataset(walking)-mode(ELBO)-parts(2)-dyn(24)-lvm(23)_final(0).mov,resources/videos_natural\training(17).mov,False,True,left,0,188,188,188,2018-10-12 12:00:40.432903,2018-10-12 12:00:44.353127,0:00:03.920224,5,left,1,0.18376486029592343,20,m,2,17,2018_Oct_12_1140,MP_PerceptionTuring2,59.934169437403376,
190,resources/videos_generated\model(dmp)-dataset(walking)-npsi(70)_final(9).mov,resources/videos_natural\training(12).mov,False,False,right,0,189,189,189,2018-10-12 12:00:45.654201,2018-10-12 12:00:49.541423,0:00:03.887222,5,left,0,0.016914226580411196,20,m,2,17,2018_Oct_12_1140,MP_PerceptionTuring2,59.934169437403376,
191,resources/videos_generated\model(vcgpdm)-dataset(walking)-mode(ELBO)-parts(1)-dyn(22)-lvm(27)_final(7)_hip-corrected.mov,resources/videos_natural\training(8).mov,True,True,left,0,190,190,190,2018-10-12 12:00:50.675488,2018-10-12 12:00:54.578712,0:00:03.903224,5,left,1,0.21712830097931146,20,m,2,17,2018_Oct_12_1140,MP_PerceptionTuring2,59.934169437403376,
192,resources/videos_generated\model(vcgpdm)-dataset(walking)-mode(ELBO)-parts(2)-dyn(26)-lvm(19)_final(4).mov,resources/videos_natural\training(43).mov,False,True,left,0,191,191,191,2018-10-12 12:00:55.912788,2018-10-12 12:00:59.800010,0:00:03.887222,5,right,0,0.01700548226654064,20,m,2,17,2018_Oct_12_1140,MP_PerceptionTuring2,59.934169437403376,
193,resources/videos_generated\model(vcgpdm)-dataset(walking)-mode(ELBO)-parts(2)-dyn(23)-lvm(20)_final(8).mov,resources/videos_natural\training(31).mov,False,False,right,0,192,192,192,2018-10-12 12:01:00.934075,2018-10-12 12:01:04.854299,0:00:03.920224,5,right,1,0.4005471124801261,20,m,2,17,2018_Oct_12_1140,MP_PerceptionTuring2,59.934169437403376,
194,resources/videos_generated\model(vcgpdm)-dataset(walking)-mode(ELBO)-parts(2)-dyn(25)-lvm(20)_final(2).mov,resources/videos_natural\training(45).mov,True,False,right,0,193,193,193,2018-10-12 12:01:06.372386,2018-10-12 12:01:10.275609,0:00:03.903223,5,right,1,0.10031439541853615,20,m,2,17,2018_Oct_12_1140,MP_PerceptionTuring2,59.934169437403376,
195,resources/videos_generated\model(vcgpdm)-dataset(walking)-mode(ELBO)-parts(2)-dyn(24)-lvm(17)_final(2).mov,resources/videos_natural\training(38).mov,False,False,right,0,194,194,194,2018-10-12 12:01:11.493679,2018-10-12 12:01:15.429904,0:00:03.936225,5,right,1,0.18376787203487766,20,m,2,17,2018_Oct_12_1140,MP_PerceptionTuring2,59.934169437403376,
196,resources/videos_generated\model(vcgpdm)-dataset(walking)-mode(ELBO)-parts(1)-dyn(25)-lvm(22)_final(1).mov,resources/videos_natural\training(1).mov,False,True,left,0,195,195,195,2018-10-12 12:01:16.730979,2018-10-12 12:01:20.634202,0:00:03.903223,5,left,1,0.11697021480722469,20,m,2,17,2018_Oct_12_1140,MP_PerceptionTuring2,59.934169437403376,
197,resources/videos_generated\model(vcgpdm)-dataset(walking)-mode(ELBO)-parts(2)-dyn(24)-lvm(23)_final(2).mov,resources/videos_natural\training(15).mov,True,True,left,0,196,196,196,2018-10-12 12:01:21.869273,2018-10-12 12:01:25.789497,0:00:03.920224,5,left,1,0.08350437500303087,20,m,2,17,2018_Oct_12_1140,MP_PerceptionTuring2,59.934169437403376,
198,resources/videos_generated\model(vcgpdm)-dataset(walking)-mode(ELBO)-parts(2)-dyn(24)-lvm(23)_final(8).mov,resources/videos_natural\training(33).mov,True,False,right,0,197,197,197,2018-10-12 12:01:26.990565,2018-10-12 12:01:30.876788,0:00:03.886223,5,left,0,0.20049296141587547,20,m,2,17,2018_Oct_12_1140,MP_PerceptionTuring2,59.934169437403376,
199,resources/videos_generated\model(tmp)-dataset(walking)-numprim(13)_final(5).mov,resources/videos_natural\training(15).mov,False,False,right,0,198,198,198,2018-10-12 12:01:32.194863,2018-10-12 12:01:36.115087,0:00:03.920224,5,right,1,0.15033937779298867,20,m,2,17,2018_Oct_12_1140,MP_PerceptionTuring2,59.934169437403376,
200,resources/videos_generated\model(dmp)-dataset(walking)-npsi(50)_final(5).mov,resources/videos_natural\training(31).mov,True,True,left,0,199,199,199,2018-10-12 12:01:37.382160,2018-10-12 12:01:41.285383,0:00:03.903223,5,left,1,0.033599561007576995,20,m,2,17,2018_Oct_12_1140,MP_PerceptionTuring2,59.934169437403376,
201,resources/videos_generated\model(vcgpdm)-dataset(walking)-mode(ELBO)-parts(2)-dyn(22)-lvm(21)_final(0).mov,resources/videos_natural\training(40).mov,True,False,right,0,200,200,200,2018-10-12 12:01:42.436449,2018-10-12 12:01:46.306670,0:00:03.870221,5,right,1,0.3338702259788988,20,m,2,17,2018_Oct_12_1140,MP_PerceptionTuring2,59.934169437403376,
202,resources/videos_generated\model(vcgpdm)-dataset(walking)-mode(ELBO)-parts(2)-dyn(26)-lvm(19)_final(6).mov,resources/videos_natural\training(34).mov,True,False,right,0,201,201,201,2018-10-12 12:01:47.757753,2018-10-12 12:01:51.627975,0:00:03.870222,5,left,0,0.06700938247013255,20,m,2,17,2018_Oct_12_1140,MP_PerceptionTuring2,59.934169437403376,
203,resources/videos_generated\model(dmp)-dataset(walking)-npsi(50)_final(3).mov,resources/videos_natural\training(12).mov,True,True,left,0,202,202,202,2018-10-12 12:01:52.812042,2018-10-12 12:01:56.716266,0:00:03.904224,5,left,1,0.33391690793177986,20,m,2,17,2018_Oct_12_1140,MP_PerceptionTuring2,59.934169437403376,
204,resources/videos_generated\model(vcgpdm)-dataset(walking)-mode(ELBO)-parts(1)-dyn(25)-lvm(24)_final(6).mov,resources/videos_natural\training(16).mov,False,True,left,0,203,203,203,2018-10-12 12:01:58.167349,2018-10-12 12:02:02.070572,0:00:03.903223,5,left,1,0.183719684213429,20,m,2,17,2018_Oct_12_1140,MP_PerceptionTuring2,59.934169437403376,
205,resources/videos_generated\model(vcgpdm)-dataset(walking)-mode(ELBO)-parts(1)-dyn(28)-lvm(27)_final(4).mov,resources/videos_natural\training(20).mov,True,False,right,0,204,204,204,2018-10-12 12:02:03.371646,2018-10-12 12:02:07.274870,0:00:03.903224,5,left,0,0.10022615146954195,20,m,2,17,2018_Oct_12_1140,MP_PerceptionTuring2,59.934169437403376,
206,resources/videos_generated\model(vcgpdm)-dataset(walking)-mode(ELBO)-parts(1)-dyn(23)-lvm(24)_final(6).mov,resources/videos_natural\training(28).mov,False,True,left,0,205,205,205,2018-10-12 12:02:08.492939,2018-10-12 12:02:12.379162,0:00:03.886223,5,left,1,0.2504113282338949,20,m,2,17,2018_Oct_12_1140,MP_PerceptionTuring2,59.934169437403376,
207,resources/videos_generated\model(vcgpdm)-dataset(walking)-mode(ELBO)-parts(1)-dyn(28)-lvm(27)_final(8).mov,resources/videos_natural\training(34).mov,False,False,right,0,206,206,206,2018-10-12 12:02:13.747240,2018-10-12 12:02:17.650463,0:00:03.903223,5,right,1,0.11709550314299122,20,m,2,17,2018_Oct_12_1140,MP_PerceptionTuring2,59.934169437403376,
208,resources/videos_generated\model(vcgpdm)-dataset(walking)-mode(ELBO)-parts(1)-dyn(27)-lvm(24)_final(0).mov,resources/videos_natural\training(23).mov,True,True,left,0,207,207,207,2018-10-12 12:02:18.884534,2018-10-12 12:02:22.771756,0:00:03.887222,5,left,1,0.20055711145323585,20,m,2,17,2018_Oct_12_1140,MP_PerceptionTuring2,59.934169437403376,
209,resources/videos_generated\model(tmp)-dataset(walking)-numprim(12)_final(3).mov,resources/videos_natural\training(29).mov,True,False,right,0,208,208,208,2018-10-12 12:02:24.089831,2018-10-12 12:02:28.010056,0:00:03.920225,5,left,0,0.06733163852732105,20,m,2,17,2018_Oct_12_1140,MP_PerceptionTuring2,59.934169437403376,
210,resources/videos_generated\model(dmp)-dataset(walking)-npsi(80)_final(7).mov,resources/videos_natural\training(2).mov,True,True,left,0,209,209,209,2018-10-12 12:02:29.194123,2018-10-12 12:02:33.130348,0:00:03.936225,5,left,1,0.2171680559313245,20,m,2,17,2018_Oct_12_1140,MP_PerceptionTuring2,59.934169437403376,
211,resources/videos_generated\model(vcgpdm)-dataset(walking)-mode(ELBO)-parts(2)-dyn(23)-lvm(22)_final(2).mov,resources/videos_natural\training(43).mov,False,False,right,0,210,210,210,2018-10-12 12:02:34.465425,2018-10-12 12:02:38.401650,0:00:03.936225,5,right,1,0.3839183987420256,20,m,2,17,2018_Oct_12_1140,MP_PerceptionTuring2,59.934169437403376,
212,resources/videos_generated\model(vcgpdm)-dataset(walking)-mode(ELBO)-parts(1)-dyn(23)-lvm(22)_final(2).mov,resources/videos_natural\training(3).mov,True,True,left,0,211,211,211,2018-10-12 12:02:39.902736,2018-10-12 12:02:43.806959,0:00:03.904223,5,left,1,0.4338497160388215,20,m,2,17,2018_Oct_12_1140,MP_PerceptionTuring2,59.934169437403376,
213,resources/videos_generated\model(vcgpdm)-dataset(walking)-mode(ELBO)-parts(1)-dyn(23)-lvm(22)_final(8)_fail.mov,resources/videos_natural\training(17).mov,True,True,left,0,212,212,212,2018-10-12 12:02:45.358048,2018-10-12 12:02:49.278272,0:00:03.920224,5,left,1,0.217148780804564,20,m,2,17,2018_Oct_12_1140,MP_PerceptionTuring2,59.934169437403376,
214,resources/videos_generated\model(dmp)-dataset(walking)-npsi(80)_final(9).mov,resources/videos_natural\training(30).mov,False,False,right,0,213,213,213,2018-10-12 12:02:50.612348,2018-10-12 12:02:54.515572,0:00:03.903224,5,left,0,0.03358118940195709,20,m,2,17,2018_Oct_12_1140,MP_PerceptionTuring2,59.934169437403376,
215,resources/videos_generated\model(vcgpdm)-dataset(walking)-mode(ELBO)-parts(2)-dyn(24)-lvm(17)_final(0).mov,resources/videos_natural\training(31).mov,True,True,left,0,214,214,214,2018-10-12 12:02:55.666637,2018-10-12 12:02:59.569861,0:00:03.903224,5,left,1,0.05027826961122628,20,m,2,17,2018_Oct_12_1140,MP_PerceptionTuring2,59.934169437403376,
216,resources/videos_generated\model(vcgpdm)-dataset(walking)-mode(ELBO)-parts(2)-dyn(22)-lvm(19)_final(6).mov,resources/videos_natural\training(14).mov,False,False,right,0,215,215,215,2018-10-12 12:03:00.737928,2018-10-12 12:03:04.641151,0:00:03.903223,5,right,1,0.4004919976596284,20,m,2,17,2018_Oct_12_1140,MP_PerceptionTuring2,59.934169437403376,
217,resources/videos_generated\model(vcgpdm)-dataset(walking)-mode(ELBO)-parts(2)-dyn(28)-lvm(21)_final(0).mov,resources/videos_natural\training(27).mov,False,True,left,0,216,216,216,2018-10-12 12:03:06.159238,2018-10-12 12:03:10.062461,0:00:03.903223,5,right,0,0.23396331882759114,20,m,2,17,2018_Oct_12_1140,MP_PerceptionTuring2,59.934169437403376,
218,resources/videos_generated\model(vcgpdm)-dataset(walking)-mode(ELBO)-parts(2)-dyn(27)-lvm(18)_final(0).mov,resources/videos_natural\training(7).mov,True,True,left,0,217,217,217,2018-10-12 12:03:11.413538,2018-10-12 12:03:15.316761,0:00:03.903223,5,left,1,0.18379046007612487,20,m,2,17,2018_Oct_12_1140,MP_PerceptionTuring2,59.934169437403376,
219,resources/videos_generated\model(vcgpdm)-dataset(walking)-mode(ELBO)-parts(1)-dyn(22)-lvm(27)_final(5)_fail.mov,resources/videos_natural\training(46).mov,True,False,right,0,218,218,218,2018-10-12 12:03:16.617836,2018-10-12 12:03:20.522059,0:00:03.904223,5,right,1,0.06708557946330984,20,m,2,17,2018_Oct_12_1140,MP_PerceptionTuring2,59.934169437403376,
220,resources/videos_generated\model(vcgpdm)-dataset(walking)-mode(ELBO)-parts(2)-dyn(27)-lvm(20)_final(8).mov,resources/videos_natural\training(16).mov,False,False,right,0,219,219,219,2018-10-12 12:03:21.706127,2018-10-12 12:03:25.626351,0:00:03.920224,5,right,1,0.20040953624993563,20,m,2,17,2018_Oct_12_1140,MP_PerceptionTuring2,59.934169437403376,
221,resources/videos_generated\model(vcgpdm)-dataset(walking)-mode(ELBO)-parts(1)-dyn(23)-lvm(26)_final(4)_hip-corrected.mov,resources/videos_natural\training(17).mov,True,True,left,0,220,220,220,2018-10-12 12:03:26.943426,2018-10-12 12:03:30.847650,0:00:03.904224,5,left,1,0.18370703490836604,20,m,2,17,2018_Oct_12_1140,MP_PerceptionTuring2,59.934169437403376,
222,resources/videos_generated\model(vcgpdm)-dataset(walking)-mode(ELBO)-parts(2)-dyn(26)-lvm(19)_final(0).mov,resources/videos_natural\training(46).mov,False,True,left,0,221,221,221,2018-10-12 12:03:32.148724,2018-10-12 12:03:36.034946,0:00:03.886222,5,right,0,0.10047251170908567,20,m,2,17,2018_Oct_12_1140,MP_PerceptionTuring2,59.934169437403376,
223,resources/videos_generated\model(vcgpdm)-dataset(walking)-mode(ELBO)-parts(1)-dyn(27)-lvm(28)_final(6).mov,resources/videos_natural\training(26).mov,True,False,right,0,222,222,222,2018-10-12 12:03:37.253016,2018-10-12 12:03:41.173240,0:00:03.920224,5,right,1,0.08362333868717542,20,m,2,17,2018_Oct_12_1140,MP_PerceptionTuring2,59.934169437403376,
224,resources/videos_generated\model(vcgpdm)-dataset(walking)-mode(ELBO)-parts(1)-dyn(22)-lvm(25)_final(5).mov,resources/videos_natural\training(26).mov,False,False,right,0,223,223,223,2018-10-12 12:03:42.373309,2018-10-12 12:03:46.277532,0:00:03.904223,5,right,1,0.03373027047564392,20,m,2,17,2018_Oct_12_1140,MP_PerceptionTuring2,59.934169437403376,
225,resources/videos_generated\model(dmp)-dataset(walking)-npsi(70)_final(1).mov,resources/videos_natural\training(27).mov,True,False,right,0,224,224,224,2018-10-12 12:03:47.428598,2018-10-12 12:03:51.364823,0:00:03.936225,5,right,1,0.21726925035727618,20,m,2,17,2018_Oct_12_1140,MP_PerceptionTuring2,59.934169437403376,
226,resources/videos_generated\model(vcgpdm)-dataset(walking)-mode(ELBO)-parts(2)-dyn(25)-lvm(20)_final(8).mov,resources/videos_natural\training(40).mov,False,False,right,0,225,225,225,2018-10-12 12:04:25.377769,2018-10-12 12:04:29.280992,0:00:03.903223,6,right,1,0.20036375781819515,20,m,2,17,2018_Oct_12_1140,MP_PerceptionTuring2,59.934169437403376,
227,resources/videos_generated\model(tmp)-dataset(walking)-numprim(13)_final(3).mov,resources/videos_natural\training(24).mov,True,False,right,0,226,226,226,2018-10-12 12:04:30.599067,2018-10-12 12:04:34.535292,0:00:03.936225,6,right,1,0.18366276234883117,20,m,2,17,2018_Oct_12_1140,MP_PerceptionTuring2,59.934169437403376,
228,resources/videos_generated\model(vcgpdm)-dataset(walking)-mode(ELBO)-parts(2)-dyn(23)-lvm(18)_final(8).mov,resources/videos_natural\training(46).mov,False,True,left,0,227,227,227,2018-10-12 12:04:35.836367,2018-10-12 12:04:39.723589,0:00:03.887222,6,right,0,0.1504661719991418,20,m,2,17,2018_Oct_12_1140,MP_PerceptionTuring2,59.934169437403376,
229,resources/videos_generated\model(vcgpdm)-dataset(walking)-mode(ELBO)-parts(2)-dyn(28)-lvm(23)_final(0).mov,resources/videos_natural\training(41).mov,False,False,right,0,228,228,228,2018-10-12 12:04:40.990662,2018-10-12 12:04:44.877884,0:00:03.887222,6,right,1,0.18379256829393853,20,m,2,17,2018_Oct_12_1140,MP_PerceptionTuring2,59.934169437403376,
230,resources/videos_generated\model(vcgpdm)-dataset(walking)-mode(ELBO)-parts(1)-dyn(23)-lvm(26)_final(2).mov,resources/videos_natural\training(8).mov,True,True,left,0,229,229,229,2018-10-12 12:04:46.178958,2018-10-12 12:04:50.099183,0:00:03.920225,6,left,1,0.0670048648626107,20,m,2,17,2018_Oct_12_1140,MP_PerceptionTuring2,59.934169437403376,
231,resources/videos_generated\model(vcgpdm)-dataset(walking)-mode(ELBO)-parts(2)-dyn(24)-lvm(17)_final(6).mov,resources/videos_natural\training(0).mov,True,False,right,0,230,230,230,2018-10-12 12:04:51.283250,2018-10-12 12:04:55.186474,0:00:03.903224,6,left,0,0.23373352315320517,20,m,2,17,2018_Oct_12_1140,MP_PerceptionTuring2,59.934169437403376,
232,resources/videos_generated\model(vcgpdm)-dataset(walking)-mode(ELBO)-parts(2)-dyn(25)-lvm(22)_final(8).mov,resources/videos_natural\training(41).mov,True,True,left,0,231,231,231,2018-10-12 12:04:56.537551,2018-10-12 12:05:00.474776,0:00:03.937225,6,left,1,0.11696027606740245,20,m,2,17,2018_Oct_12_1140,MP_PerceptionTuring2,59.934169437403376,
233,resources/videos_generated\model(vcgpdm)-dataset(walking)-mode(ELBO)-parts(2)-dyn(26)-lvm(17)_final(0).mov,resources/videos_natural\training(27).mov,True,False,right,0,232,232,232,2018-10-12 12:05:01.708847,2018-10-12 12:05:05.629071,0:00:03.920224,6,right,1,0.18372691238619154,20,m,2,17,2018_Oct_12_1140,MP_PerceptionTuring2,59.934169437403376,
234,resources/videos_generated\model(dmp)-dataset(walking)-npsi(60)_final(9).mov,resources/videos_natural\training(19).mov,False,True,left,0,233,233,233,2018-10-12 12:05:06.930145,2018-10-12 12:05:10.850370,0:00:03.920225,6,right,0,0.08360707529755018,20,m,2,17,2018_Oct_12_1140,MP_PerceptionTuring2,59.934169437403376,
235,resources/videos_generated\model(dmp)-dataset(walking)-npsi(80)_final(5).mov,resources/videos_natural\training(13).mov,False,True,left,0,234,234,234,2018-10-12 12:05:12.051438,2018-10-12 12:05:15.937660,0:00:03.886222,6,right,0,0.18373624877676775,20,m,2,17,2018_Oct_12_1140,MP_PerceptionTuring2,59.934169437403376,
236,resources/videos_generated\model(dmp)-dataset(walking)-npsi(90)_final(1).mov,resources/videos_natural\training(8).mov,True,True,left,0,235,235,235,2018-10-12 12:05:17.238735,2018-10-12 12:05:21.142958,0:00:03.904223,6,right,0,0.05013310379945324,20,m,2,17,2018_Oct_12_1140,MP_PerceptionTuring2,59.934169437403376,
237,resources/videos_generated\model(dmp)-dataset(walking)-npsi(100)_final(5).mov,resources/videos_natural\training(33).mov,True,True,left,0,236,236,236,2018-10-12 12:05:22.310025,2018-10-12 12:05:26.213248,0:00:03.903223,6,left,1,0.20033062869151763,20,m,2,17,2018_Oct_12_1140,MP_PerceptionTuring2,59.934169437403376,
238,resources/videos_generated\model(vcgpdm)-dataset(walking)-mode(ELBO)-parts(1)-dyn(28)-lvm(23)_final(2).mov,resources/videos_natural\training(31).mov,False,True,left,0,237,237,237,2018-10-12 12:05:27.531324,2018-10-12 12:05:31.434547,0:00:03.903223,6,left,1,0.26711232370507787,20,m,2,17,2018_Oct_12_1140,MP_PerceptionTuring2,59.934169437403376,
239,resources/videos_generated\model(dmp)-dataset(walking)-npsi(100)_final(7).mov,resources/videos_natural\training(48).mov,False,True,left,0,238,238,238,2018-10-12 12:05:32.819626,2018-10-12 12:05:36.738850,0:00:03.919224,6,right,0,0.3004989547753212,20,m,2,17,2018_Oct_12_1140,MP_PerceptionTuring2,59.934169437403376,
240,resources/videos_generated\model(vcgpdm)-dataset(walking)-mode(ELBO)-parts(2)-dyn(27)-lvm(18)_final(6).mov,resources/videos_natural\training(35).mov,True,True,left,0,239,239,239,2018-10-12 12:05:38.156931,2018-10-12 12:05:42.061155,0:00:03.904224,6,left,1,0.4174119465442345,20,m,2,17,2018_Oct_12_1140,MP_PerceptionTuring2,59.934169437403376,
241,resources/videos_generated\model(vcgpdm)-dataset(walking)-mode(ELBO)-parts(2)-dyn(28)-lvm(19)_final(2).mov,resources/videos_natural\training(17).mov,True,False,right,0,240,240,240,2018-10-12 12:05:43.595242,2018-10-12 12:05:47.515467,0:00:03.920225,6,right,1,0.11705725405954581,20,m,2,17,2018_Oct_12_1140,MP_PerceptionTuring2,59.934169437403376,
242,resources/videos_generated\model(vcgpdm)-dataset(walking)-mode(ELBO)-parts(1)-dyn(27)-lvm(26)_final(0).mov,resources/videos_natural\training(16).mov,False,True,left,0,241,241,241,2018-10-12 12:05:48.749537,2018-10-12 12:05:52.636760,0:00:03.887223,6,left,1,0.10033397172264813,20,m,2,17,2018_Oct_12_1140,MP_PerceptionTuring2,59.934169437403376,
243,resources/videos_generated\model(vcgpdm)-dataset(walking)-mode(ELBO)-parts(2)-dyn(28)-lvm(17)_final(8).mov,resources/videos_natural\training(48).mov,False,False,right,0,242,242,242,2018-10-12 12:05:53.853829,2018-10-12 12:05:57.808055,0:00:03.954226,6,right,1,0.033669433349132305,20,m,2,17,2018_Oct_12_1140,MP_PerceptionTuring2,59.934169437403376,
244,resources/videos_generated\model(vcgpdm)-dataset(walking)-mode(ELBO)-parts(1)-dyn(23)-lvm(28)_final(9).mov,resources/videos_natural\training(27).mov,False,True,left,0,243,243,243,2018-10-12 12:05:58.958121,2018-10-12 12:06:02.878345,0:00:03.920224,6,right,0,0.23370912806785782,20,m,2,17,2018_Oct_12_1140,MP_PerceptionTuring2,59.934169437403376,
245,resources/videos_generated\model(tmp)-dataset(walking)-numprim(15)_final(5).mov,resources/videos_natural\training(46).mov,False,True,left,0,244,244,244,2018-10-12 12:06:04.229423,2018-10-12 12:06:08.116645,0:00:03.887222,6,right,0,0.18369287973837345,20,m,2,17,2018_Oct_12_1140,MP_PerceptionTuring2,59.934169437403376,
246,resources/videos_generated\model(vcgpdm)-dataset(walking)-mode(ELBO)-parts(2)-dyn(28)-lvm(21)_final(8).mov,resources/videos_natural\training(3).mov,True,True,left,0,245,245,245,2018-10-12 12:06:09.417719,2018-10-12 12:06:13.337944,0:00:03.920225,6,left,1,0.033659193437415524,20,m,2,17,2018_Oct_12_1140,MP_PerceptionTuring2,59.934169437403376,
247,resources/videos_generated\model(vcgpdm)-dataset(walking)-mode(ELBO)-parts(1)-dyn(23)-lvm(28)_final(3)_hip-corrected.mov,resources/videos_natural\training(11).mov,False,False,right,0,246,246,246,2018-10-12 12:06:14.489009,2018-10-12 12:06:18.392233,0:00:03.903224,6,right,1,0.13362723888894834,20,m,2,17,2018_Oct_12_1140,MP_PerceptionTuring2,59.934169437403376,
248,resources/videos_generated\model(vcgpdm)-dataset(walking)-mode(ELBO)-parts(2)-dyn(23)-lvm(18)_final(4).mov,resources/videos_natural\training(5).mov,False,False,right,0,247,247,247,2018-10-12 12:06:19.643304,2018-10-12 12:06:23.546527,0:00:03.903223,6,right,1,0.3172279594164138,20,m,2,17,2018_Oct_12_1140,MP_PerceptionTuring2,59.934169437403376,
249,resources/videos_generated\model(vcgpdm)-dataset(walking)-mode(ELBO)-parts(1)-dyn(27)-lvm(26)_final(8).mov,resources/videos_natural\training(20).mov,True,True,left,0,248,248,248,2018-10-12 12:06:24.980610,2018-10-12 12:06:28.900834,0:00:03.920224,6,left,1,0.00038490022598125506,20,m,2,17,2018_Oct_12_1140,MP_PerceptionTuring2,59.934169437403376,
250,resources/videos_generated\model(vcgpdm)-dataset(walking)-mode(ELBO)-parts(2)-dyn(26)-lvm(21)_final(4).mov,resources/videos_natural\training(46).mov,True,False,right,0,249,249,249,2018-10-12 12:06:30.018898,2018-10-12 12:06:33.922121,0:00:03.903223,6,right,1,0.1338163760901807,20,m,2,17,2018_Oct_12_1140,MP_PerceptionTuring2,59.934169437403376,
251,resources/videos_generated\model(vcgpdm)-dataset(walking)-mode(ELBO)-parts(1)-dyn(26)-lvm(25)_final(8).mov,resources/videos_natural\training(18).mov,False,False,right,0,250,250,250,2018-10-12 12:06:35.173193,2018-10-12 12:06:39.093417,0:00:03.920224,6,right,1,0.15039991374396777,20,m,2,17,2018_Oct_12_1140,MP_PerceptionTuring2,59.934169437403376,
252,resources/videos_generated\model(dmp)-dataset(walking)-npsi(70)_final(5).mov,resources/videos_natural\training(30).mov,True,True,left,0,251,251,251,2018-10-12 12:06:40.360489,2018-10-12 12:06:44.314715,0:00:03.954226,6,left,1,0.20044387007328623,20,m,2,17,2018_Oct_12_1140,MP_PerceptionTuring2,59.934169437403376,
253,resources/videos_generated\model(vcgpdm)-dataset(walking)-mode(ELBO)-parts(1)-dyn(23)-lvm(28)_final(7).mov,resources/videos_natural\training(11).mov,True,True,left,0,252,252,252,2018-10-12 12:06:45.631791,2018-10-12 12:06:49.536014,0:00:03.904223,6,left,1,0.26708822979344404,20,m,2,17,2018_Oct_12_1140,MP_PerceptionTuring2,59.934169437403376,
254,resources/videos_generated\model(vcgpdm)-dataset(walking)-mode(ELBO)-parts(1)-dyn(28)-lvm(24)_final(0).mov,resources/videos_natural\training(5).mov,True,True,left,0,253,253,253,2018-10-12 12:06:50.920093,2018-10-12 12:06:54.823316,0:00:03.903223,6,left,1,0.00019666654588945676,20,m,2,17,2018_Oct_12_1140,MP_PerceptionTuring2,59.934169437403376,
255,resources/videos_generated\model(vcgpdm)-dataset(walking)-mode(ELBO)-parts(1)-dyn(23)-lvm(26)_final(8)_hip-corrected.mov,resources/videos_natural\training(12).mov,True,True,left,0,254,254,254,2018-10-12 12:06:55.941380,2018-10-12 12:06:59.877606,0:00:03.936226,6,left,1,0.2670656417521968,20,m,2,17,2018_Oct_12_1140,MP_PerceptionTuring2,59.934169437403376,
256,resources/videos_generated\model(vcgpdm)-dataset(walking)-mode(ELBO)-parts(2)-dyn(23)-lvm(20)_final(4).mov,resources/videos_natural\training(23).mov,True,True,left,0,255,255,255,2018-10-12 12:07:01.262685,2018-10-12 12:07:05.182909,0:00:03.920224,6,left,1,0.2503613333683461,20,m,2,17,2018_Oct_12_1140,MP_PerceptionTuring2,59.934169437403376,
257,resources/videos_generated\model(tmp)-dataset(walking)-numprim(15)_final(1).mov,resources/videos_natural\training(45).mov,False,False,right,0,256,256,256,2018-10-12 12:07:06.549987,2018-10-12 12:07:10.487212,0:00:03.937225,6,left,0,0.1170229202361952,20,m,2,17,2018_Oct_12_1140,MP_PerceptionTuring2,59.934169437403376,
258,resources/videos_generated\model(dmp)-dataset(walking)-npsi(50)_final(1).mov,resources/videos_natural\training(4).mov,False,True,left,0,257,257,257,2018-10-12 12:07:11.721283,2018-10-12 12:07:15.641507,0:00:03.920224,6,right,0,0.01702204683169839,20,m,2,17,2018_Oct_12_1140,MP_PerceptionTuring2,59.934169437403376,
259,resources/videos_generated\model(vcgpdm)-dataset(walking)-mode(ELBO)-parts(1)-dyn(22)-lvm(22)_final(3).mov,resources/videos_natural\training(11).mov,True,False,right,0,258,258,258,2018-10-12 12:07:16.775572,2018-10-12 12:07:20.678795,0:00:03.903223,6,right,1,0.25045409492486215,20,m,2,17,2018_Oct_12_1140,MP_PerceptionTuring2,59.934169437403376,
260,resources/videos_generated\model(tmp)-dataset(walking)-numprim(14)_final(1).mov,resources/videos_natural\training(23).mov,True,True,left,0,259,259,259,2018-10-12 12:07:22.046874,2018-10-12 12:07:25.934096,0:00:03.887222,6,left,1,0.3171791692475381,20,m,2,17,2018_Oct_12_1140,MP_PerceptionTuring2,59.934169437403376,
261,resources/videos_generated\model(vcgpdm)-dataset(walking)-mode(ELBO)-parts(2)-dyn(26)-lvm(23)_final(6).mov,resources/videos_natural\training(41).mov,True,False,right,0,260,260,260,2018-10-12 12:07:27.368178,2018-10-12 12:07:31.305403,0:00:03.937225,6,right,1,0.15036678461729025,20,m,2,17,2018_Oct_12_1140,MP_PerceptionTuring2,59.934169437403376,
262,resources/videos_generated\model(vcgpdm)-dataset(walking)-mode(ELBO)-parts(2)-dyn(24)-lvm(21)_final(2).mov,resources/videos_natural\training(29).mov,True,False,right,0,261,261,261,2018-10-12 12:07:32.572476,2018-10-12 12:07:36.492700,0:00:03.920224,6,left,0,0.20037520242658502,20,m,2,17,2018_Oct_12_1140,MP_PerceptionTuring2,59.934169437403376,
263,resources/videos_generated\model(vcgpdm)-dataset(walking)-mode(ELBO)-parts(1)-dyn(24)-lvm(23)_final(1).mov,resources/videos_natural\training(24).mov,True,False,right,0,262,262,262,2018-10-12 12:07:37.810775,2018-10-12 12:07:41.713998,0:00:03.903223,6,right,1,0.26724363551875285,20,m,2,17,2018_Oct_12_1140,MP_PerceptionTuring2,59.934169437403376,
264,resources/videos_generated\model(vcgpdm)-dataset(walking)-mode(ELBO)-parts(2)-dyn(27)-lvm(20)_final(6).mov,resources/videos_natural\training(10).mov,True,True,left,0,263,263,263,2018-10-12 12:07:43.098078,2018-10-12 12:07:47.018302,0:00:03.920224,6,left,1,0.00025720249868754763,20,m,2,17,2018_Oct_12_1140,MP_PerceptionTuring2,59.934169437403376,
265,resources/videos_generated\model(vcgpdm)-dataset(walking)-mode(ELBO)-parts(2)-dyn(23)-lvm(18)_final(0).mov,resources/videos_natural\training(37).mov,False,True,left,0,264,264,264,2018-10-12 12:07:48.136366,2018-10-12 12:07:52.039589,0:00:03.903223,6,left,1,0.18372269595238322,20,m,2,17,2018_Oct_12_1140,MP_PerceptionTuring2,59.934169437403376,
266,resources/videos_generated\model(vcgpdm)-dataset(walking)-mode(ELBO)-parts(1)-dyn(24)-lvm(27)_final(5).mov,resources/videos_natural\training(19).mov,False,True,left,0,265,265,265,2018-10-12 12:07:53.340663,2018-10-12 12:07:57.260888,0:00:03.920225,6,right,0,0.0836480349444173,20,m,2,17,2018_Oct_12_1140,MP_PerceptionTuring2,59.934169437403376,
267,resources/videos_generated\model(vcgpdm)-dataset(walking)-mode(ELBO)-parts(1)-dyn(28)-lvm(27)_final(0).mov,resources/videos_natural\training(1).mov,True,True,left,0,266,266,266,2018-10-12 12:07:58.461956,2018-10-12 12:08:02.348179,0:00:03.886223,6,left,1,0.15064657515722502,20,m,2,17,2018_Oct_12_1140,MP_PerceptionTuring2,59.934169437403376,
268,resources/videos_generated\model(vcgpdm)-dataset(walking)-mode(ELBO)-parts(2)-dyn(24)-lvm(21)_final(0).mov,resources/videos_natural\training(20).mov,True,False,right,0,267,267,267,2018-10-12 12:08:03.616251,2018-10-12 12:08:07.536475,0:00:03.920224,6,left,0,0.38385997100886016,20,m,2,17,2018_Oct_12_1140,MP_PerceptionTuring2,59.934169437403376,
269,resources/videos_generated\model(vcgpdm)-dataset(walking)-mode(ELBO)-parts(2)-dyn(27)-lvm(20)_final(4).mov,resources/videos_natural\training(31).mov,False,True,left,0,268,268,268,2018-10-12 12:08:09.037561,2018-10-12 12:08:12.957785,0:00:03.920224,6,right,0,0.016944042794420966,20,m,2,17,2018_Oct_12_1140,MP_PerceptionTuring2,59.934169437403376,
270,resources/videos_generated\model(vcgpdm)-dataset(walking)-mode(ELBO)-parts(1)-dyn(24)-lvm(25)_final(7).mov,resources/videos_natural\training(40).mov,False,True,left,0,269,269,269,2018-10-12 12:08:14.091850,2018-10-12 12:08:18.012075,0:00:03.920225,6,right,0,0.016916334798224852,20,m,2,17,2018_Oct_12_1140,MP_PerceptionTuring2,59.934169437403376,
271,resources/videos_generated\model(vcgpdm)-dataset(walking)-mode(ELBO)-parts(1)-dyn(28)-lvm(27)_final(2).mov,resources/videos_natural\training(9).mov,False,False,right,0,270,270,270,2018-10-12 12:08:50.189915,2018-10-12 12:08:54.110139,0:00:03.920224,7,right,1,0.00019034189426747616,20,m,2,17,2018_Oct_12_1140,MP_PerceptionTuring2,59.934169437403376,
272,resources/videos_generated\model(tmp)-dataset(walking)-numprim(12)_final(7).mov,resources/videos_natural\training(33).mov,True,False,right,0,271,271,271,2018-10-12 12:08:55.227203,2018-10-12 12:08:59.164428,0:00:03.937225,7,left,0,0.0669060798281862,20,m,2,17,2018_Oct_12_1140,MP_PerceptionTuring2,59.934169437403376,
273,resources/videos_generated\model(tmp)-dataset(walking)-numprim(12)_final(1).mov,resources/videos_natural\training(20).mov,False,False,right,0,272,272,272,2018-10-12 12:09:00.348496,2018-10-12 12:09:04.251719,0:00:03.903223,7,right,1,0.016917238321184414,20,m,2,17,2018_Oct_12_1140,MP_PerceptionTuring2,59.934169437403376,
274,resources/videos_generated\model(vcgpdm)-dataset(walking)-mode(ELBO)-parts(2)-dyn(27)-lvm(18)_final(4).mov,resources/videos_natural\training(2).mov,False,True,left,0,273,273,273,2018-10-12 12:09:05.385784,2018-10-12 12:09:09.273007,0:00:03.887223,7,left,1,0.11699852515266684,20,m,2,17,2018_Oct_12_1140,MP_PerceptionTuring2,59.934169437403376,
275,resources/videos_generated\model(vcgpdm)-dataset(walking)-mode(ELBO)-parts(1)-dyn(25)-lvm(26)_final(3)_fail.mov,resources/videos_natural\training(2).mov,True,False,right,0,274,274,274,2018-10-12 12:09:10.507077,2018-10-12 12:09:14.427301,0:00:03.920224,7,right,1,0.11709068435993686,20,m,2,17,2018_Oct_12_1140,MP_PerceptionTuring2,59.934169437403376,
276,resources/videos_generated\model(vcgpdm)-dataset(walking)-mode(ELBO)-parts(1)-dyn(25)-lvm(25)_final(0).mov,resources/videos_natural\training(12).mov,True,False,right,0,275,275,275,2018-10-12 12:09:15.661372,2018-10-12 12:09:19.581596,0:00:03.920224,7,right,1,0.2337693628451234,20,m,2,17,2018_Oct_12_1140,MP_PerceptionTuring2,59.934169437403376,
277,resources/videos_generated\model(vcgpdm)-dataset(walking)-mode(ELBO)-parts(1)-dyn(24)-lvm(25)_final(5).mov,resources/videos_natural\training(15).mov,False,False,right,0,276,276,276,2018-10-12 12:09:20.932673,2018-10-12 12:09:24.852898,0:00:03.920225,7,right,1,0.38396929713053396,20,m,2,17,2018_Oct_12_1140,MP_PerceptionTuring2,59.934169437403376,
278,resources/videos_generated\model(vcgpdm)-dataset(walking)-mode(ELBO)-parts(2)-dyn(23)-lvm(20)_final(0).mov,resources/videos_natural\training(3).mov,False,True,left,0,277,277,277,2018-10-12 12:09:26.353983,2018-10-12 12:09:30.274208,0:00:03.920225,7,left,1,0.2505459529620566,20,m,2,17,2018_Oct_12_1140,MP_PerceptionTuring2,59.934169437403376,
279,resources/videos_generated\model(vcgpdm)-dataset(walking)-mode(ELBO)-parts(2)-dyn(22)-lvm(17)_final(8).mov,resources/videos_natural\training(16).mov,False,False,right,0,278,278,278,2018-10-12 12:09:31.642286,2018-10-12 12:09:35.545509,0:00:03.903223,7,right,1,0.25044234914457775,20,m,2,17,2018_Oct_12_1140,MP_PerceptionTuring2,59.934169437403376,
280,resources/videos_generated\model(vcgpdm)-dataset(walking)-mode(ELBO)-parts(2)-dyn(22)-lvm(17)_final(4).mov,resources/videos_natural\training(38).mov,False,True,left,0,279,279,279,2018-10-12 12:09:36.913587,2018-10-12 12:09:40.833812,0:00:03.920225,7,right,0,0.18374377812324383,20,m,2,17,2018_Oct_12_1140,MP_PerceptionTuring2,59.934169437403376,
281,resources/videos_generated\model(vcgpdm)-dataset(walking)-mode(ELBO)-parts(1)-dyn(22)-lvm(23)_final(7).mov,resources/videos_natural\training(44).mov,True,False,right,0,280,280,280,2018-10-12 12:09:42.134886,2018-10-12 12:09:46.021108,0:00:03.886222,7,right,1,0.0670744360286335,20,m,2,17,2018_Oct_12_1140,MP_PerceptionTuring2,59.934169437403376,
282,resources/videos_generated\model(vcgpdm)-dataset(walking)-mode(ELBO)-parts(1)-dyn(24)-lvm(27)_final(1).mov,resources/videos_natural\training(0).mov,True,True,left,0,281,281,281,2018-10-12 12:09:47.206176,2018-10-12 12:09:51.125400,0:00:03.919224,7,left,1,0.16716174633984338,20,m,2,17,2018_Oct_12_1140,MP_PerceptionTuring2,59.934169437403376,
283,resources/videos_generated\model(vcgpdm)-dataset(walking)-mode(ELBO)-parts(1)-dyn(25)-lvm(24)_final(0).mov,resources/videos_natural\training(36).mov,False,True,left,0,282,282,282,2018-10-12 12:09:52.410474,2018-10-12 12:09:56.346699,0:00:03.936225,7,left,1,0.01694283809956687,20,m,2,17,2018_Oct_12_1140,MP_PerceptionTuring2,59.934169437403376,
284,resources/videos_generated\model(dmp)-dataset(walking)-npsi(80)_final(1).mov,resources/videos_natural\training(21).mov,False,False,right,0,283,283,283,2018-10-12 12:09:57.480764,2018-10-12 12:10:01.367986,0:00:03.887222,7,left,0,0.18372811708286463,20,m,2,17,2018_Oct_12_1140,MP_PerceptionTuring2,59.934169437403376,
285,resources/videos_generated\model(vcgpdm)-dataset(walking)-mode(ELBO)-parts(1)-dyn(23)-lvm(22)_final(0).mov,resources/videos_natural\training(19).mov,True,True,left,0,284,284,284,2018-10-12 12:10:02.669061,2018-10-12 12:10:06.589285,0:00:03.920224,7,left,1,0.30056430950935464,20,m,2,17,2018_Oct_12_1140,MP_PerceptionTuring2,59.934169437403376,
286,resources/videos_generated\model(tmp)-dataset(walking)-numprim(13)_final(7).mov,resources/videos_natural\training(1).mov,True,False,right,0,285,285,285,2018-10-12 12:10:08.007366,2018-10-12 12:10:11.927590,0:00:03.920224,7,left,0,0.1669542375311721,20,m,2,17,2018_Oct_12_1140,MP_PerceptionTuring2,59.934169437403376,
287,resources/videos_generated\model(tmp)-dataset(walking)-numprim(15)_final(3).mov,resources/videos_natural\training(38).mov,False,True,left,0,286,286,286,2018-10-12 12:10:13.211664,2018-10-12 12:10:17.097886,0:00:03.886222,7,right,0,0.4172155811702396,20,m,2,17,2018_Oct_12_1140,MP_PerceptionTuring2,59.934169437403376,
288,resources/videos_generated\model(vcgpdm)-dataset(walking)-mode(ELBO)-parts(1)-dyn(25)-lvm(24)_final(2).mov,resources/videos_natural\training(37).mov,False,False,right,0,287,287,287,2018-10-12 12:10:18.632974,2018-10-12 12:10:22.569199,0:00:03.936225,7,right,1,0.2504104247127543,20,m,2,17,2018_Oct_12_1140,MP_PerceptionTuring2,59.934169437403376,
289,resources/videos_generated\model(vcgpdm)-dataset(walking)-mode(ELBO)-parts(2)-dyn(28)-lvm(17)_final(4).mov,resources/videos_natural\training(26).mov,True,True,left,0,288,288,288,2018-10-12 12:10:23.937277,2018-10-12 12:10:27.857501,0:00:03.920224,7,left,1,0.15034690713946475,20,m,2,17,2018_Oct_12_1140,MP_PerceptionTuring2,59.934169437403376,
290,resources/videos_generated\model(vcgpdm)-dataset(walking)-mode(ELBO)-parts(1)-dyn(26)-lvm(23)_final(4)_fail.mov,resources/videos_natural\training(39).mov,True,False,right,0,289,289,289,2018-10-12 12:10:29.125574,2018-10-12 12:10:33.045798,0:00:03.920224,7,right,1,0.2671508739622368,20,m,2,17,2018_Oct_12_1140,MP_PerceptionTuring2,59.934169437403376,
