n_trial,mov_file_generated,mov_file_natural,mirrored,switch_stim_pos,correct_answer,trials.thisRepN,trials.thisTrialN,trials.thisN,trials.thisIndex,stimulus_onset,stimulus_off,stimulus_length,block,response.keys,response.corr,response.rt,age,gender,condition,participant,date,expName,frameRate,
1,resources/videos_generated\model(vcgpdm)-dataset(walking)-mode(ELBO)-parts(1)-dyn(22)-lvm(25)_final(8).mov,resources/videos_natural\training(3).mov,True,False,right,0,0,0,0,2018-10-12 11:02:54.203646,2018-10-12 11:02:58.623898,0:00:04.420252,1,right,1,1.101069438349441,20,m,1,17,2018_Oct_12_1101,MP_PerceptionTuring2,59.94001198699858,
2,resources/videos_generated\model(vcgpdm)-dataset(walking)-mode(ELBO)-parts(2)-dyn(28)-lvm(17)_final(9).mov,resources/videos_natural\training(18).mov,False,True,left,0,1,1,1,2018-10-12 11:03:00.843025,2018-10-12 11:03:04.730248,0:00:03.887223,1,left,1,0.4339352494216655,20,m,1,17,2018_Oct_12_1101,MP_PerceptionTuring2,59.94001198699858,
3,resources/videos_generated\model(vcgpdm)-dataset(walking)-mode(ELBO)-parts(2)-dyn(27)-lvm(18)_final(7).mov,resources/videos_natural\training(11).mov,False,False,right,0,2,2,2,2018-10-12 11:03:06.281336,2018-10-12 11:03:10.200561,0:00:03.919225,1,left,0,0.4173523141153055,20,m,1,17,2018_Oct_12_1101,MP_PerceptionTuring2,59.94001198699858,
4,resources/videos_generated\model(vcgpdm)-dataset(walking)-mode(ELBO)-parts(1)-dyn(22)-lvm(23)_final(2).mov,resources/videos_natural\training(15).mov,False,True,left,0,3,3,3,2018-10-12 11:03:11.735648,2018-10-12 11:03:15.638872,0:00:03.903224,1,right,0,0.4006224059521628,20,m,1,17,2018_Oct_12_1101,MP_PerceptionTuring2,59.94001198699858,
5,resources/videos_generated\model(vcgpdm)-dataset(walking)-mode(ELBO)-parts(1)-dyn(22)-lvm(23)_final(4)_fail.mov,resources/videos_natural\training(14).mov,True,True,left,0,4,4,4,2018-10-12 11:03:17.156958,2018-10-12 11:03:21.094184,0:00:03.937226,1,left,1,0.3671279546288133,20,m,1,17,2018_Oct_12_1101,MP_PerceptionTuring2,59.94001198699858,
6,resources/videos_generated\model(vcgpdm)-dataset(walking)-mode(ELBO)-parts(2)-dyn(22)-lvm(23)_final(9).mov,resources/videos_natural\training(27).mov,True,True,left,0,5,5,5,2018-10-12 11:03:22.578268,2018-10-12 11:03:26.465491,0:00:03.887223,1,left,1,0.3338295675048357,20,m,1,17,2018_Oct_12_1101,MP_PerceptionTuring2,59.94001198699858,
7,resources/videos_generated\model(vcgpdm)-dataset(walking)-mode(ELBO)-parts(1)-dyn(26)-lvm(25)_final(9).mov,resources/videos_natural\training(40).mov,False,True,left,0,6,6,6,2018-10-12 11:03:27.916574,2018-10-12 11:03:31.802796,0:00:03.886222,1,left,1,0.43402258984860964,20,m,1,17,2018_Oct_12_1101,MP_PerceptionTuring2,59.94001198699858,
8,resources/videos_generated\model(vcgpdm)-dataset(walking)-mode(ELBO)-parts(2)-dyn(24)-lvm(21)_final(5).mov,resources/videos_natural\training(34).mov,False,True,left,0,7,7,7,2018-10-12 11:03:33.353885,2018-10-12 11:03:37.274109,0:00:03.920224,1,right,0,0.3338819717619117,20,m,1,17,2018_Oct_12_1101,MP_PerceptionTuring2,59.94001198699858,
9,resources/videos_generated\model(vcgpdm)-dataset(walking)-mode(ELBO)-parts(1)-dyn(28)-lvm(23)_final(7).mov,resources/videos_natural\training(17).mov,False,True,left,0,8,8,8,2018-10-12 11:03:38.725192,2018-10-12 11:03:42.629415,0:00:03.904223,1,left,1,0.33381420763726055,20,m,1,17,2018_Oct_12_1101,MP_PerceptionTuring2,59.94001198699858,
10,resources/videos_generated\model(vcgpdm)-dataset(walking)-mode(ELBO)-parts(2)-dyn(22)-lvm(23)_final(5).mov,resources/videos_natural\training(20).mov,True,True,left,0,9,9,9,2018-10-12 11:03:44.080498,2018-10-12 11:03:48.100728,0:00:04.020230,1,left,1,0.30046281390968943,20,m,1,17,2018_Oct_12_1101,MP_PerceptionTuring2,59.94001198699858,
11,resources/videos_generated\model(vcgpdm)-dataset(walking)-mode(ELBO)-parts(1)-dyn(28)-lvm(23)_final(1).mov,resources/videos_natural\training(40).mov,False,False,right,0,10,10,10,2018-10-12 11:03:49.517809,2018-10-12 11:03:53.622044,0:00:04.104235,1,right,1,0.23374677480387618,20,m,1,17,2018_Oct_12_1101,MP_PerceptionTuring2,59.94001198699858,
12,resources/videos_generated\model(vcgpdm)-dataset(walking)-mode(ELBO)-parts(2)-dyn(22)-lvm(17)_final(3).mov,resources/videos_natural\training(2).mov,True,False,right,0,11,11,11,2018-10-12 11:03:54.973121,2018-10-12 11:03:59.026353,0:00:04.053232,1,left,0,0.20037429890453495,20,m,1,17,2018_Oct_12_1101,MP_PerceptionTuring2,59.94001198699858,
13,resources/videos_generated\model(vcgpdm)-dataset(walking)-mode(ELBO)-parts(1)-dyn(25)-lvm(28)_final(4).mov,resources/videos_natural\training(27).mov,False,False,right,0,12,12,12,2018-10-12 11:04:00.344429,2018-10-12 11:04:04.230651,0:00:03.886222,1,right,1,0.28382265556501807,20,m,1,17,2018_Oct_12_1101,MP_PerceptionTuring2,59.94001198699858,
14,resources/videos_generated\model(vcgpdm)-dataset(walking)-mode(ELBO)-parts(1)-dyn(26)-lvm(23)_final(9).mov,resources/videos_natural\training(41).mov,True,True,left,0,13,13,13,2018-10-12 11:04:05.631731,2018-10-12 11:04:09.735966,0:00:04.104235,1,left,1,0.31708550416988146,20,m,1,17,2018_Oct_12_1101,MP_PerceptionTuring2,59.94001198699858,
15,resources/videos_generated\model(vcgpdm)-dataset(walking)-mode(ELBO)-parts(1)-dyn(22)-lvm(22)_final(6).mov,resources/videos_natural\training(24).mov,False,False,right,0,14,14,14,2018-10-12 11:04:11.170048,2018-10-12 11:04:15.157276,0:00:03.987228,1,right,1,0.23372840319643728,20,m,1,17,2018_Oct_12_1101,MP_PerceptionTuring2,59.94001198699858,
16,resources/videos_generated\model(dmp)-dataset(walking)-npsi(50)_final(2).mov,resources/videos_natural\training(38).mov,False,False,right,0,15,15,15,2018-10-12 11:04:16.508353,2018-10-12 11:04:20.444578,0:00:03.936225,1,right,1,0.3505709202754588,20,m,1,17,2018_Oct_12_1101,MP_PerceptionTuring2,59.94001198699858,
17,resources/videos_generated\model(vcgpdm)-dataset(walking)-mode(ELBO)-parts(2)-dyn(25)-lvm(18)_final(5).mov,resources/videos_natural\training(10).mov,False,False,right,0,16,16,16,2018-10-12 11:04:21.912662,2018-10-12 11:04:25.916891,0:00:04.004229,1,right,1,0.2837994651754343,20,m,1,17,2018_Oct_12_1101,MP_PerceptionTuring2,59.94001198699858,
18,resources/videos_generated\model(vcgpdm)-dataset(walking)-mode(ELBO)-parts(2)-dyn(24)-lvm(23)_final(9).mov,resources/videos_natural\training(15).mov,True,False,right,0,17,17,17,2018-10-12 11:04:27.317971,2018-10-12 11:04:31.254197,0:00:03.936226,1,right,1,0.2003459885600023,20,m,1,17,2018_Oct_12_1101,MP_PerceptionTuring2,59.94001198699858,
19,resources/videos_generated\model(tmp)-dataset(walking)-numprim(11)_final(2).mov,resources/videos_natural\training(5).mov,False,True,left,0,18,18,18,2018-10-12 11:04:32.572272,2018-10-12 11:04:36.592502,0:00:04.020230,1,right,0,0.30098685647044476,20,m,1,17,2018_Oct_12_1101,MP_PerceptionTuring2,59.94001198699858,
20,resources/videos_generated\model(vcgpdm)-dataset(walking)-mode(ELBO)-parts(2)-dyn(26)-lvm(23)_final(1).mov,resources/videos_natural\training(25).mov,False,True,left,0,19,19,19,2018-10-12 11:04:38.010583,2018-10-12 11:04:42.063815,0:00:04.053232,1,right,0,0.16705874486979155,20,m,1,17,2018_Oct_12_1101,MP_PerceptionTuring2,59.94001198699858,
21,resources/videos_generated\model(vcgpdm)-dataset(walking)-mode(ELBO)-parts(2)-dyn(26)-lvm(19)_final(3).mov,resources/videos_natural\training(12).mov,True,False,right,0,20,20,20,2018-10-12 11:04:43.347888,2018-10-12 11:04:47.435122,0:00:04.087234,1,left,0,0.23370189989600476,20,m,1,17,2018_Oct_12_1101,MP_PerceptionTuring2,59.94001198699858,
22,resources/videos_generated\model(vcgpdm)-dataset(walking)-mode(ELBO)-parts(1)-dyn(27)-lvm(28)_final(9).mov,resources/videos_natural\training(11).mov,True,True,left,0,21,21,21,2018-10-12 11:04:48.786199,2018-10-12 11:04:52.723424,0:00:03.937225,1,right,0,0.23378080745260377,20,m,1,17,2018_Oct_12_1101,MP_PerceptionTuring2,59.94001198699858,
23,resources/videos_generated\model(tmp)-dataset(walking)-numprim(11)_final(0).mov,resources/videos_natural\training(28).mov,True,False,right,0,22,22,22,2018-10-12 11:04:54.074502,2018-10-12 11:04:58.010727,0:00:03.936225,1,left,0,0.21718823458195402,20,m,1,17,2018_Oct_12_1101,MP_PerceptionTuring2,59.94001198699858,
24,resources/videos_generated\model(vcgpdm)-dataset(walking)-mode(ELBO)-parts(1)-dyn(25)-lvm(22)_final(2).mov,resources/videos_natural\training(10).mov,False,False,right,0,23,23,23,2018-10-12 11:04:59.345803,2018-10-12 11:05:03.282028,0:00:03.936225,1,right,1,0.2671559939171857,20,m,1,17,2018_Oct_12_1101,MP_PerceptionTuring2,59.94001198699858,
25,resources/videos_generated\model(vcgpdm)-dataset(walking)-mode(ELBO)-parts(1)-dyn(22)-lvm(27)_final(2)_hip-corrected.mov,resources/videos_natural\training(26).mov,False,False,right,0,24,24,24,2018-10-12 11:05:04.667108,2018-10-12 11:05:08.720339,0:00:04.053231,1,right,1,0.23371003158990789,20,m,1,17,2018_Oct_12_1101,MP_PerceptionTuring2,59.94001198699858,
26,resources/videos_generated\model(vcgpdm)-dataset(walking)-mode(ELBO)-parts(1)-dyn(23)-lvm(22)_final(3)_fail.mov,resources/videos_natural\training(35).mov,False,False,right,0,25,25,25,2018-10-12 11:05:10.071417,2018-10-12 11:05:14.141650,0:00:04.070233,1,right,1,0.35062573392315244,20,m,1,17,2018_Oct_12_1101,MP_PerceptionTuring2,59.94001198699858,
27,resources/videos_generated\model(vcgpdm)-dataset(walking)-mode(ELBO)-parts(2)-dyn(26)-lvm(17)_final(1).mov,resources/videos_natural\training(20).mov,True,True,left,0,26,26,26,2018-10-12 11:05:15.609734,2018-10-12 11:05:19.495956,0:00:03.886222,1,right,0,0.25036464628192334,20,m,1,17,2018_Oct_12_1101,MP_PerceptionTuring2,59.94001198699858,
28,resources/videos_generated\model(vcgpdm)-dataset(walking)-mode(ELBO)-parts(2)-dyn(28)-lvm(19)_final(1).mov,resources/videos_natural\training(10).mov,False,False,right,0,27,27,27,2018-10-12 11:05:20.864034,2018-10-12 11:05:24.951268,0:00:04.087234,1,right,1,0.28379464639328944,20,m,1,17,2018_Oct_12_1101,MP_PerceptionTuring2,59.94001198699858,
29,resources/videos_generated\model(tmp)-dataset(walking)-numprim(14)_final(0).mov,resources/videos_natural\training(34).mov,True,True,left,0,28,28,28,2018-10-12 11:05:26.352348,2018-10-12 11:05:30.288573,0:00:03.936225,1,left,1,0.2672614047778552,20,m,1,17,2018_Oct_12_1101,MP_PerceptionTuring2,59.94001198699858,
30,resources/videos_generated\model(vcgpdm)-dataset(walking)-mode(ELBO)-parts(1)-dyn(26)-lvm(23)_final(1).mov,resources/videos_natural\training(9).mov,True,False,right,0,29,29,29,2018-10-12 11:05:31.673652,2018-10-12 11:05:35.576876,0:00:03.903224,1,right,1,0.23379285440933018,20,m,1,17,2018_Oct_12_1101,MP_PerceptionTuring2,59.94001198699858,
31,resources/videos_generated\model(vcgpdm)-dataset(walking)-mode(ELBO)-parts(1)-dyn(24)-lvm(27)_final(2).mov,resources/videos_natural\training(15).mov,True,False,right,0,30,30,30,2018-10-12 11:05:36.927953,2018-10-12 11:05:40.831176,0:00:03.903223,1,left,0,0.25046222662058426,20,m,1,17,2018_Oct_12_1101,MP_PerceptionTuring2,59.94001198699858,
32,resources/videos_generated\model(dmp)-dataset(walking)-npsi(60)_final(6).mov,resources/videos_natural\training(1).mov,True,False,right,0,31,31,31,2018-10-12 11:05:42.199254,2018-10-12 11:05:46.302489,0:00:04.103235,1,right,1,0.2504248810582794,20,m,1,17,2018_Oct_12_1101,MP_PerceptionTuring2,59.94001198699858,
33,resources/videos_generated\model(vcgpdm)-dataset(walking)-mode(ELBO)-parts(1)-dyn(27)-lvm(26)_final(5).mov,resources/videos_natural\training(46).mov,False,False,right,0,32,32,32,2018-10-12 11:05:47.670567,2018-10-12 11:05:51.690797,0:00:04.020230,1,right,1,0.23378050627889024,20,m,1,17,2018_Oct_12_1101,MP_PerceptionTuring2,59.94001198699858,
34,resources/videos_generated\model(vcgpdm)-dataset(walking)-mode(ELBO)-parts(1)-dyn(23)-lvm(27)_final(2).mov,resources/videos_natural\training(36).mov,False,False,right,0,33,33,33,2018-10-12 11:05:53.041875,2018-10-12 11:05:57.129108,0:00:04.087233,1,right,1,0.30050226768889843,20,m,1,17,2018_Oct_12_1101,MP_PerceptionTuring2,59.94001198699858,
35,resources/videos_generated\model(vcgpdm)-dataset(walking)-mode(ELBO)-parts(1)-dyn(24)-lvm(23)_final(0).mov,resources/videos_natural\training(47).mov,True,False,right,0,34,34,34,2018-10-12 11:05:58.546189,2018-10-12 11:06:02.500416,0:00:03.954227,1,left,0,0.06693710073795955,20,m,1,17,2018_Oct_12_1101,MP_PerceptionTuring2,59.94001198699858,
36,resources/videos_generated\model(vcgpdm)-dataset(walking)-mode(ELBO)-parts(1)-dyn(27)-lvm(26)_final(7).mov,resources/videos_natural\training(12).mov,False,True,left,0,35,35,35,2018-10-12 11:06:03.684483,2018-10-12 11:06:07.620708,0:00:03.936225,1,left,1,0.33407050661389803,20,m,1,17,2018_Oct_12_1101,MP_PerceptionTuring2,59.94001198699858,
37,resources/videos_generated\model(dmp)-dataset(walking)-npsi(50)_final(6).mov,resources/videos_natural\training(2).mov,False,False,right,0,36,36,36,2018-10-12 11:06:09.072791,2018-10-12 11:06:13.042018,0:00:03.969227,1,right,1,0.26702769384246494,20,m,1,17,2018_Oct_12_1101,MP_PerceptionTuring2,59.94001198699858,
38,resources/videos_generated\model(vcgpdm)-dataset(walking)-mode(ELBO)-parts(1)-dyn(28)-lvm(25)_final(9).mov,resources/videos_natural\training(1).mov,False,True,left,0,37,37,37,2018-10-12 11:06:14.427098,2018-10-12 11:06:18.363323,0:00:03.936225,1,right,0,0.23382568236229417,20,m,1,17,2018_Oct_12_1101,MP_PerceptionTuring2,59.94001198699858,
39,resources/videos_generated\model(vcgpdm)-dataset(walking)-mode(ELBO)-parts(1)-dyn(22)-lvm(28)_final(7).mov,resources/videos_natural\training(21).mov,True,False,right,0,38,38,38,2018-10-12 11:06:19.714400,2018-10-12 11:06:23.684627,0:00:03.970227,1,left,0,0.21702379364069202,20,m,1,17,2018_Oct_12_1101,MP_PerceptionTuring2,59.94001198699858,
40,resources/videos_generated\model(vcgpdm)-dataset(walking)-mode(ELBO)-parts(1)-dyn(22)-lvm(25)_final(6).mov,resources/videos_natural\training(44).mov,False,False,right,0,39,39,39,2018-10-12 11:06:25.019704,2018-10-12 11:06:28.922927,0:00:03.903223,1,right,1,0.23376484523760155,20,m,1,17,2018_Oct_12_1101,MP_PerceptionTuring2,59.94001198699858,
41,resources/videos_generated\model(tmp)-dataset(walking)-numprim(12)_final(2).mov,resources/videos_natural\training(30).mov,True,False,right,0,40,40,40,2018-10-12 11:06:30.274004,2018-10-12 11:06:34.411241,0:00:04.137237,1,right,1,0.2671023849652556,20,m,1,17,2018_Oct_12_1101,MP_PerceptionTuring2,59.94001198699858,
42,resources/videos_generated\model(vcgpdm)-dataset(walking)-mode(ELBO)-parts(2)-dyn(27)-lvm(20)_final(3).mov,resources/videos_natural\training(8).mov,True,True,left,0,41,41,41,2018-10-12 11:06:35.795320,2018-10-12 11:06:39.715544,0:00:03.920224,1,left,1,0.23369768346037745,20,m,1,17,2018_Oct_12_1101,MP_PerceptionTuring2,59.94001198699858,
43,resources/videos_generated\model(vcgpdm)-dataset(walking)-mode(ELBO)-parts(1)-dyn(27)-lvm(28)_final(7).mov,resources/videos_natural\training(2).mov,True,False,right,0,42,42,42,2018-10-12 11:06:41.066621,2018-10-12 11:06:45.186857,0:00:04.120236,1,right,1,0.1838064222920366,20,m,1,17,2018_Oct_12_1101,MP_PerceptionTuring2,59.94001198699858,
44,resources/videos_generated\model(vcgpdm)-dataset(walking)-mode(ELBO)-parts(1)-dyn(23)-lvm(24)_final(1).mov,resources/videos_natural\training(42).mov,False,False,right,0,43,43,43,2018-10-12 11:06:46.487931,2018-10-12 11:06:50.525162,0:00:04.037231,1,right,1,0.267087326271394,20,m,1,17,2018_Oct_12_1101,MP_PerceptionTuring2,59.94001198699858,
45,resources/videos_generated\model(vcgpdm)-dataset(walking)-mode(ELBO)-parts(1)-dyn(22)-lvm(28)_final(0).mov,resources/videos_natural\training(30).mov,True,False,right,0,44,44,44,2018-10-12 11:06:51.909242,2018-10-12 11:06:55.879469,0:00:03.970227,1,right,1,0.3005203381226238,20,m,1,17,2018_Oct_12_1101,MP_PerceptionTuring2,59.94001198699858,
46,resources/videos_generated\model(vcgpdm)-dataset(walking)-mode(ELBO)-parts(1)-dyn(28)-lvm(27)_final(9).mov,resources/videos_natural\training(6).mov,False,False,right,0,45,45,45,2018-10-12 11:07:28.174316,2018-10-12 11:07:32.210547,0:00:04.036231,2,right,1,0.25051222148522356,20,m,1,17,2018_Oct_12_1101,MP_PerceptionTuring2,59.94001198699858,
47,resources/videos_generated\model(vcgpdm)-dataset(walking)-mode(ELBO)-parts(2)-dyn(24)-lvm(17)_final(7).mov,resources/videos_natural\training(22).mov,True,False,right,0,46,46,46,2018-10-12 11:07:33.578625,2018-10-12 11:07:37.515850,0:00:03.937225,2,left,0,0.5341050813749462,20,m,1,17,2018_Oct_12_1101,MP_PerceptionTuring2,59.94001198699858,
48,resources/videos_generated\model(dmp)-dataset(walking)-npsi(50)_final(0).mov,resources/videos_natural\training(19).mov,True,True,left,0,47,47,47,2018-10-12 11:07:39.166945,2018-10-12 11:07:43.104170,0:00:03.937225,2,left,1,0.26714244109189167,20,m,1,17,2018_Oct_12_1101,MP_PerceptionTuring2,59.94001198699858,
49,resources/videos_generated\model(vcgpdm)-dataset(walking)-mode(ELBO)-parts(1)-dyn(28)-lvm(24)_final(7).mov,resources/videos_natural\training(43).mov,False,True,left,0,48,48,48,2018-10-12 11:07:44.488249,2018-10-12 11:07:48.591484,0:00:04.103235,2,right,0,0.2337786992366091,20,m,1,17,2018_Oct_12_1101,MP_PerceptionTuring2,59.94001198699858,
50,resources/videos_generated\model(vcgpdm)-dataset(walking)-mode(ELBO)-parts(2)-dyn(24)-lvm(21)_final(1).mov,resources/videos_natural\training(24).mov,False,False,right,0,49,49,49,2018-10-12 11:07:49.942561,2018-10-12 11:07:53.846784,0:00:03.904223,2,right,1,0.26710961313983717,20,m,1,17,2018_Oct_12_1101,MP_PerceptionTuring2,59.94001198699858,
51,resources/videos_generated\model(tmp)-dataset(walking)-numprim(12)_final(0).mov,resources/videos_natural\training(13).mov,True,False,right,0,50,50,50,2018-10-12 11:07:55.230863,2018-10-12 11:07:59.334098,0:00:04.103235,2,left,0,0.11698376763069973,20,m,1,17,2018_Oct_12_1101,MP_PerceptionTuring2,59.94001198699858,
52,resources/videos_generated\model(vcgpdm)-dataset(walking)-mode(ELBO)-parts(1)-dyn(26)-lvm(25)_final(7).mov,resources/videos_natural\training(14).mov,False,True,left,0,51,51,51,2018-10-12 11:08:00.569169,2018-10-12 11:08:04.488393,0:00:03.919224,2,left,1,0.317164712902013,20,m,1,17,2018_Oct_12_1101,MP_PerceptionTuring2,59.94001198699858,
53,resources/videos_generated\model(vcgpdm)-dataset(walking)-mode(ELBO)-parts(1)-dyn(24)-lvm(25)_final(2).mov,resources/videos_natural\training(33).mov,False,True,left,0,52,52,52,2018-10-12 11:08:05.923475,2018-10-12 11:08:09.976707,0:00:04.053232,2,left,1,0.20043634072499117,20,m,1,17,2018_Oct_12_1101,MP_PerceptionTuring2,59.94001198699858,
54,resources/videos_generated\model(vcgpdm)-dataset(walking)-mode(ELBO)-parts(2)-dyn(27)-lvm(20)_final(5).mov,resources/videos_natural\training(27).mov,True,True,left,0,53,53,53,2018-10-12 11:08:11.294782,2018-10-12 11:08:15.231007,0:00:03.936225,2,right,0,0.2672797763843846,20,m,1,17,2018_Oct_12_1101,MP_PerceptionTuring2,59.94001198699858,
55,resources/videos_generated\model(vcgpdm)-dataset(walking)-mode(ELBO)-parts(1)-dyn(26)-lvm(23)_final(3)_fail.mov,resources/videos_natural\training(32).mov,True,True,left,0,54,54,54,2018-10-12 11:08:16.616086,2018-10-12 11:08:20.519310,0:00:03.903224,2,left,1,0.23394283900415758,20,m,1,17,2018_Oct_12_1101,MP_PerceptionTuring2,59.94001198699858,
56,resources/videos_generated\model(vcgpdm)-dataset(walking)-mode(ELBO)-parts(2)-dyn(26)-lvm(17)_final(3).mov,resources/videos_natural\training(36).mov,True,True,left,0,55,55,55,2018-10-12 11:08:21.870387,2018-10-12 11:08:25.790611,0:00:03.920224,2,left,1,0.41722039995329396,20,m,1,17,2018_Oct_12_1101,MP_PerceptionTuring2,59.94001198699858,
57,resources/videos_generated\model(vcgpdm)-dataset(walking)-mode(ELBO)-parts(2)-dyn(28)-lvm(19)_final(7).mov,resources/videos_natural\training(19).mov,False,False,right,0,56,56,56,2018-10-12 11:08:27.325699,2018-10-12 11:08:31.411933,0:00:04.086234,2,right,1,0.2504272904507161,20,m,1,17,2018_Oct_12_1101,MP_PerceptionTuring2,59.94001198699858,
58,resources/videos_generated\model(tmp)-dataset(walking)-numprim(14)_final(4).mov,resources/videos_natural\training(7).mov,True,False,right,0,57,57,57,2018-10-12 11:08:32.780011,2018-10-12 11:08:36.733237,0:00:03.953226,2,left,0,0.33389431989053264,20,m,1,17,2018_Oct_12_1101,MP_PerceptionTuring2,59.94001198699858,
59,resources/videos_generated\model(vcgpdm)-dataset(walking)-mode(ELBO)-parts(1)-dyn(23)-lvm(28)_final(0).mov,resources/videos_natural\training(28).mov,False,True,left,0,58,58,58,2018-10-12 11:08:38.184320,2018-10-12 11:08:42.271554,0:00:04.087234,2,right,0,0.3172731354998177,20,m,1,17,2018_Oct_12_1101,MP_PerceptionTuring2,59.94001198699858,
60,resources/videos_generated\model(vcgpdm)-dataset(walking)-mode(ELBO)-parts(1)-dyn(23)-lvm(24)_final(3).mov,resources/videos_natural\training(45).mov,True,False,right,0,59,59,59,2018-10-12 11:08:43.705636,2018-10-12 11:08:47.642861,0:00:03.937225,2,right,1,0.26712406948536227,20,m,1,17,2018_Oct_12_1101,MP_PerceptionTuring2,59.94001198699858,
61,resources/videos_generated\model(vcgpdm)-dataset(walking)-mode(ELBO)-parts(1)-dyn(28)-lvm(23)_final(5).mov,resources/videos_natural\training(13).mov,True,True,left,0,60,60,60,2018-10-12 11:08:49.026940,2018-10-12 11:08:52.964165,0:00:03.937225,2,left,1,0.2838205473481139,20,m,1,17,2018_Oct_12_1101,MP_PerceptionTuring2,59.94001198699858,
62,resources/videos_generated\model(vcgpdm)-dataset(walking)-mode(ELBO)-parts(2)-dyn(28)-lvm(17)_final(1).mov,resources/videos_natural\training(33).mov,True,False,right,0,61,61,61,2018-10-12 11:08:54.365246,2018-10-12 11:08:58.468480,0:00:04.103234,2,right,1,0.2839108995131028,20,m,1,17,2018_Oct_12_1101,MP_PerceptionTuring2,59.94001198699858,
63,resources/videos_generated\model(vcgpdm)-dataset(walking)-mode(ELBO)-parts(1)-dyn(28)-lvm(27)_final(7).mov,resources/videos_natural\training(45).mov,True,True,left,0,62,62,62,2018-10-12 11:08:59.869560,2018-10-12 11:09:03.956794,0:00:04.087234,2,left,1,0.26711443192198203,20,m,1,17,2018_Oct_12_1101,MP_PerceptionTuring2,59.94001198699858,
64,resources/videos_generated\model(vcgpdm)-dataset(walking)-mode(ELBO)-parts(2)-dyn(28)-lvm(17)_final(5).mov,resources/videos_natural\training(45).mov,False,False,right,0,63,63,63,2018-10-12 11:09:05.341873,2018-10-12 11:09:09.278099,0:00:03.936226,2,right,1,0.3005164228616195,20,m,1,17,2018_Oct_12_1101,MP_PerceptionTuring2,59.94001198699858,
65,resources/videos_generated\model(vcgpdm)-dataset(walking)-mode(ELBO)-parts(2)-dyn(23)-lvm(22)_final(7).mov,resources/videos_natural\training(32).mov,False,True,left,0,64,64,64,2018-10-12 11:09:10.696180,2018-10-12 11:09:14.632405,0:00:03.936225,2,left,1,0.26710810727036005,20,m,1,17,2018_Oct_12_1101,MP_PerceptionTuring2,59.94001198699858,
66,resources/videos_generated\model(tmp)-dataset(walking)-numprim(15)_final(4).mov,resources/videos_natural\training(13).mov,True,True,left,0,65,65,65,2018-10-12 11:09:16.017484,2018-10-12 11:09:19.920707,0:00:03.903223,2,left,1,0.20042790785646503,20,m,1,17,2018_Oct_12_1101,MP_PerceptionTuring2,59.94001198699858,
67,resources/videos_generated\model(vcgpdm)-dataset(walking)-mode(ELBO)-parts(2)-dyn(25)-lvm(18)_final(1).mov,resources/videos_natural\training(10).mov,False,False,right,0,66,66,66,2018-10-12 11:09:21.238783,2018-10-12 11:09:25.192009,0:00:03.953226,2,right,1,0.2837931405238123,20,m,1,17,2018_Oct_12_1101,MP_PerceptionTuring2,59.94001198699858,
68,resources/videos_generated\model(vcgpdm)-dataset(walking)-mode(ELBO)-parts(2)-dyn(25)-lvm(18)_final(9).mov,resources/videos_natural\training(9).mov,False,True,left,0,67,67,67,2018-10-12 11:09:26.593089,2018-10-12 11:09:30.546315,0:00:03.953226,2,left,1,0.2337232832414884,20,m,1,17,2018_Oct_12_1101,MP_PerceptionTuring2,59.94001198699858,
69,resources/videos_generated\model(vcgpdm)-dataset(walking)-mode(ELBO)-parts(1)-dyn(28)-lvm(27)_final(3).mov,resources/videos_natural\training(47).mov,False,True,left,0,68,68,68,2018-10-12 11:09:31.897392,2018-10-12 11:09:35.917622,0:00:04.020230,2,right,0,0.26716352326457127,20,m,1,17,2018_Oct_12_1101,MP_PerceptionTuring2,59.94001198699858,
70,resources/videos_generated\model(vcgpdm)-dataset(walking)-mode(ELBO)-parts(2)-dyn(22)-lvm(21)_final(3).mov,resources/videos_natural\training(32).mov,False,True,left,0,69,69,69,2018-10-12 11:09:37.302701,2018-10-12 11:09:41.372934,0:00:04.070233,2,right,0,0.2504968616176484,20,m,1,17,2018_Oct_12_1101,MP_PerceptionTuring2,59.94001198699858,
71,resources/videos_generated\model(vcgpdm)-dataset(walking)-mode(ELBO)-parts(2)-dyn(28)-lvm(19)_final(3).mov,resources/videos_natural\training(23).mov,False,False,right,0,70,70,70,2018-10-12 11:09:42.740012,2018-10-12 11:09:46.677238,0:00:03.937226,2,right,1,0.26715418687399506,20,m,1,17,2018_Oct_12_1101,MP_PerceptionTuring2,59.94001198699858,
72,resources/videos_generated\model(vcgpdm)-dataset(walking)-mode(ELBO)-parts(1)-dyn(24)-lvm(27)_final(0).mov,resources/videos_natural\training(40).mov,True,True,left,0,71,71,71,2018-10-12 11:09:48.061317,2018-10-12 11:09:51.998542,0:00:03.937225,2,left,1,0.30059834215808223,20,m,1,17,2018_Oct_12_1101,MP_PerceptionTuring2,59.94001198699858,
73,resources/videos_generated\model(vcgpdm)-dataset(walking)-mode(ELBO)-parts(2)-dyn(26)-lvm(21)_final(5).mov,resources/videos_natural\training(36).mov,True,True,left,0,72,72,72,2018-10-12 11:09:53.416623,2018-10-12 11:09:57.369849,0:00:03.953226,2,left,1,0.2672138193029241,20,m,1,17,2018_Oct_12_1101,MP_PerceptionTuring2,59.94001198699858,
74,resources/videos_generated\model(tmp)-dataset(walking)-numprim(14)_final(8).mov,resources/videos_natural\training(11).mov,True,False,right,0,73,73,73,2018-10-12 11:09:58.753928,2018-10-12 11:10:02.841162,0:00:04.087234,2,left,0,0.350784151386506,20,m,1,17,2018_Oct_12_1101,MP_PerceptionTuring2,59.94001198699858,
75,resources/videos_generated\model(tmp)-dataset(walking)-numprim(13)_final(4).mov,resources/videos_natural\training(8).mov,True,True,left,0,74,74,74,2018-10-12 11:10:04.309246,2018-10-12 11:10:08.195468,0:00:03.886222,2,left,1,0.26712768357174355,20,m,1,17,2018_Oct_12_1101,MP_PerceptionTuring2,59.94001198699858,
76,resources/videos_generated\model(tmp)-dataset(walking)-numprim(13)_final(2).mov,resources/videos_natural\training(28).mov,True,False,right,0,75,75,75,2018-10-12 11:10:09.580548,2018-10-12 11:10:13.650780,0:00:04.070232,2,left,0,0.23372930671848735,20,m,1,17,2018_Oct_12_1101,MP_PerceptionTuring2,59.94001198699858,
77,resources/videos_generated\model(vcgpdm)-dataset(walking)-mode(ELBO)-parts(2)-dyn(24)-lvm(17)_final(9).mov,resources/videos_natural\training(36).mov,True,False,right,0,76,76,76,2018-10-12 11:10:15.001858,2018-10-12 11:10:18.905081,0:00:03.903223,2,right,1,0.30049443716779933,20,m,1,17,2018_Oct_12_1101,MP_PerceptionTuring2,59.94001198699858,
78,resources/videos_generated\model(vcgpdm)-dataset(walking)-mode(ELBO)-parts(1)-dyn(25)-lvm(22)_final(6).mov,resources/videos_natural\training(18).mov,True,True,left,0,77,77,77,2018-10-12 11:10:20.323162,2018-10-12 11:10:24.259387,0:00:03.936225,2,left,1,0.20052157293503114,20,m,1,17,2018_Oct_12_1101,MP_PerceptionTuring2,59.94001198699858,
79,resources/videos_generated\model(vcgpdm)-dataset(walking)-mode(ELBO)-parts(1)-dyn(27)-lvm(24)_final(1).mov,resources/videos_natural\training(4).mov,True,False,right,0,78,78,78,2018-10-12 11:10:25.577463,2018-10-12 11:10:29.547690,0:00:03.970227,2,right,1,0.3007031506704152,20,m,1,17,2018_Oct_12_1101,MP_PerceptionTuring2,59.94001198699858,
80,resources/videos_generated\model(vcgpdm)-dataset(walking)-mode(ELBO)-parts(2)-dyn(25)-lvm(22)_final(1).mov,resources/videos_natural\training(22).mov,True,True,left,0,79,79,79,2018-10-12 11:10:30.965771,2018-10-12 11:10:34.935998,0:00:03.970227,2,left,1,0.28382536613025877,20,m,1,17,2018_Oct_12_1101,MP_PerceptionTuring2,59.94001198699858,
81,resources/videos_generated\model(vcgpdm)-dataset(walking)-mode(ELBO)-parts(2)-dyn(27)-lvm(22)_final(5).mov,resources/videos_natural\training(40).mov,False,True,left,0,80,80,80,2018-10-12 11:10:36.337078,2018-10-12 11:10:40.423312,0:00:04.086234,2,left,1,0.21709366598224733,20,m,1,17,2018_Oct_12_1101,MP_PerceptionTuring2,59.94001198699858,
82,resources/videos_generated\model(vcgpdm)-dataset(walking)-mode(ELBO)-parts(1)-dyn(23)-lvm(26)_final(9).mov,resources/videos_natural\training(30).mov,True,False,right,0,81,81,81,2018-10-12 11:10:41.758388,2018-10-12 11:10:45.844622,0:00:04.086234,2,right,1,0.2338404398824423,20,m,1,17,2018_Oct_12_1101,MP_PerceptionTuring2,59.94001198699858,
83,resources/videos_generated\model(vcgpdm)-dataset(walking)-mode(ELBO)-parts(2)-dyn(27)-lvm(20)_final(7).mov,resources/videos_natural\training(21).mov,True,True,left,0,82,82,82,2018-10-12 11:10:47.195699,2018-10-12 11:10:51.116923,0:00:03.921224,2,left,1,0.2171930533640989,20,m,1,17,2018_Oct_12_1101,MP_PerceptionTuring2,59.94001198699858,
84,resources/videos_generated\model(vcgpdm)-dataset(walking)-mode(ELBO)-parts(2)-dyn(24)-lvm(19)_final(9).mov,resources/videos_natural\training(15).mov,True,False,right,0,83,83,83,2018-10-12 11:10:52.451000,2018-10-12 11:10:56.370224,0:00:03.919224,2,left,0,0.30057244120416726,20,m,1,17,2018_Oct_12_1101,MP_PerceptionTuring2,59.94001198699858,
85,resources/videos_generated\model(vcgpdm)-dataset(walking)-mode(ELBO)-parts(2)-dyn(25)-lvm(22)_final(7).mov,resources/videos_natural\training(2).mov,False,False,right,0,84,84,84,2018-10-12 11:10:57.788305,2018-10-12 11:11:01.708529,0:00:03.920224,2,right,1,0.2671707514382433,20,m,1,17,2018_Oct_12_1101,MP_PerceptionTuring2,59.94001198699858,
86,resources/videos_generated\model(tmp)-dataset(walking)-numprim(11)_final(8).mov,resources/videos_natural\training(25).mov,True,True,left,0,85,85,85,2018-10-12 11:11:03.093608,2018-10-12 11:11:06.996832,0:00:03.903224,2,left,1,0.2838325943030213,20,m,1,17,2018_Oct_12_1101,MP_PerceptionTuring2,59.94001198699858,
87,resources/videos_generated\model(vcgpdm)-dataset(walking)-mode(ELBO)-parts(1)-dyn(24)-lvm(23)_final(2).mov,resources/videos_natural\training(14).mov,True,False,right,0,86,86,86,2018-10-12 11:11:08.397912,2018-10-12 11:11:12.318136,0:00:03.920224,2,right,1,0.300588403420079,20,m,1,17,2018_Oct_12_1101,MP_PerceptionTuring2,59.94001198699858,
88,resources/videos_generated\model(dmp)-dataset(walking)-npsi(60)_final(4).mov,resources/videos_natural\training(21).mov,False,True,left,0,87,87,87,2018-10-12 11:11:13.735217,2018-10-12 11:11:17.672442,0:00:03.937225,2,right,0,0.3337819820308141,20,m,1,17,2018_Oct_12_1101,MP_PerceptionTuring2,59.94001198699858,
89,resources/videos_generated\model(vcgpdm)-dataset(walking)-mode(ELBO)-parts(2)-dyn(27)-lvm(18)_final(3).mov,resources/videos_natural\training(4).mov,False,True,left,0,88,88,88,2018-10-12 11:11:19.123525,2018-10-12 11:11:23.060751,0:00:03.937226,2,left,1,0.26715147630966385,20,m,1,17,2018_Oct_12_1101,MP_PerceptionTuring2,59.94001198699858,
90,resources/videos_generated\model(vcgpdm)-dataset(walking)-mode(ELBO)-parts(2)-dyn(23)-lvm(22)_final(5).mov,resources/videos_natural\training(33).mov,True,False,right,0,89,89,89,2018-10-12 11:11:24.444830,2018-10-12 11:11:28.348053,0:00:03.903223,2,right,1,0.2504851158364545,20,m,1,17,2018_Oct_12_1101,MP_PerceptionTuring2,59.94001198699858,
91,resources/videos_generated\model(vcgpdm)-dataset(walking)-mode(ELBO)-parts(1)-dyn(27)-lvm(26)_final(9).mov,resources/videos_natural\training(39).mov,False,False,right,0,90,90,90,2018-10-12 11:12:01.793966,2018-10-12 11:12:05.681188,0:00:03.887222,3,right,1,0.2839690260734642,20,m,1,17,2018_Oct_12_1101,MP_PerceptionTuring2,59.94001198699858,
92,resources/videos_generated\model(vcgpdm)-dataset(walking)-mode(ELBO)-parts(1)-dyn(28)-lvm(25)_final(5).mov,resources/videos_natural\training(37).mov,False,False,right,0,91,91,91,2018-10-12 11:12:07.082268,2018-10-12 11:12:11.001493,0:00:03.919225,3,right,1,0.233843150447683,20,m,1,17,2018_Oct_12_1101,MP_PerceptionTuring2,59.94001198699858,
93,resources/videos_generated\model(vcgpdm)-dataset(walking)-mode(ELBO)-parts(2)-dyn(25)-lvm(22)_final(9).mov,resources/videos_natural\training(24).mov,True,True,left,0,92,92,92,2018-10-12 11:12:12.352570,2018-10-12 11:12:16.289795,0:00:03.937225,3,left,1,0.2338088166243324,20,m,1,17,2018_Oct_12_1101,MP_PerceptionTuring2,59.94001198699858,
94,resources/videos_generated\model(vcgpdm)-dataset(walking)-mode(ELBO)-parts(1)-dyn(25)-lvm(22)_final(8).mov,resources/videos_natural\training(0).mov,False,True,left,0,93,93,93,2018-10-12 11:12:17.640872,2018-10-12 11:12:21.761108,0:00:04.120236,3,left,1,0.36725836292043823,20,m,1,17,2018_Oct_12_1101,MP_PerceptionTuring2,59.94001198699858,
95,resources/videos_generated\model(vcgpdm)-dataset(walking)-mode(ELBO)-parts(2)-dyn(22)-lvm(17)_final(1).mov,resources/videos_natural\training(37).mov,False,True,left,0,94,94,94,2018-10-12 11:12:23.246193,2018-10-12 11:12:27.166417,0:00:03.920224,3,right,0,0.21722046018840047,20,m,1,17,2018_Oct_12_1101,MP_PerceptionTuring2,59.94001198699858,
96,resources/videos_generated\model(vcgpdm)-dataset(walking)-mode(ELBO)-parts(2)-dyn(28)-lvm(19)_final(9).mov,resources/videos_natural\training(7).mov,False,True,left,0,95,95,95,2018-10-12 11:12:28.500493,2018-10-12 11:12:32.420718,0:00:03.920225,3,left,1,0.6174350766987118,20,m,1,17,2018_Oct_12_1101,MP_PerceptionTuring2,59.94001198699858,
97,resources/videos_generated\model(vcgpdm)-dataset(walking)-mode(ELBO)-parts(2)-dyn(25)-lvm(20)_final(7).mov,resources/videos_natural\training(8).mov,False,False,right,0,96,96,96,2018-10-12 11:12:34.154817,2018-10-12 11:12:38.259052,0:00:04.104235,3,right,1,0.25044114444881416,20,m,1,17,2018_Oct_12_1101,MP_PerceptionTuring2,59.94001198699858,
98,resources/videos_generated\model(vcgpdm)-dataset(walking)-mode(ELBO)-parts(1)-dyn(22)-lvm(23)_final(0).mov,resources/videos_natural\training(34).mov,True,True,left,0,97,97,97,2018-10-12 11:12:39.627130,2018-10-12 11:12:43.546354,0:00:03.919224,3,right,0,0.23374496776068554,20,m,1,17,2018_Oct_12_1101,MP_PerceptionTuring2,59.94001198699858,
99,resources/videos_generated\model(vcgpdm)-dataset(walking)-mode(ELBO)-parts(1)-dyn(23)-lvm(28)_final(2).mov,resources/videos_natural\training(3).mov,True,False,right,0,98,98,98,2018-10-12 11:12:44.897431,2018-10-12 11:12:48.984665,0:00:04.087234,3,right,1,0.20039809164245526,20,m,1,17,2018_Oct_12_1101,MP_PerceptionTuring2,59.94001198699858,
100,resources/videos_generated\model(vcgpdm)-dataset(walking)-mode(ELBO)-parts(2)-dyn(24)-lvm(23)_final(7).mov,resources/videos_natural\training(39).mov,True,True,left,0,99,99,99,2018-10-12 11:12:50.302740,2018-10-12 11:12:54.205964,0:00:03.903224,3,left,1,0.18376787203396816,20,m,1,17,2018_Oct_12_1101,MP_PerceptionTuring2,59.94001198699858,
101,resources/videos_generated\model(vcgpdm)-dataset(walking)-mode(ELBO)-parts(2)-dyn(28)-lvm(23)_final(1).mov,resources/videos_natural\training(6).mov,False,True,left,0,100,100,100,2018-10-12 11:12:55.507038,2018-10-12 11:12:59.427262,0:00:03.920224,3,left,1,0.05032555391153437,20,m,1,17,2018_Oct_12_1101,MP_PerceptionTuring2,59.94001198699858,
102,resources/videos_generated\model(vcgpdm)-dataset(walking)-mode(ELBO)-parts(1)-dyn(23)-lvm(26)_final(5)_hip-corrected.mov,resources/videos_natural\training(7).mov,False,False,right,0,101,101,101,2018-10-12 11:13:00.594329,2018-10-12 11:13:04.598558,0:00:04.004229,3,right,1,0.20043122076913278,20,m,1,17,2018_Oct_12_1101,MP_PerceptionTuring2,59.94001198699858,
103,resources/videos_generated\model(vcgpdm)-dataset(walking)-mode(ELBO)-parts(1)-dyn(25)-lvm(26)_final(8).mov,resources/videos_natural\training(40).mov,False,False,right,0,102,102,102,2018-10-12 11:13:05.915633,2018-10-12 11:13:09.819857,0:00:03.904224,3,left,0,0.23381212953700015,20,m,1,17,2018_Oct_12_1101,MP_PerceptionTuring2,59.94001198699858,
104,resources/videos_generated\model(vcgpdm)-dataset(walking)-mode(ELBO)-parts(1)-dyn(23)-lvm(26)_final(7).mov,resources/videos_natural\training(46).mov,False,False,right,0,103,103,103,2018-10-12 11:13:11.170934,2018-10-12 11:13:15.074157,0:00:03.903223,3,right,1,0.18377449786021316,20,m,1,17,2018_Oct_12_1101,MP_PerceptionTuring2,59.94001198699858,
105,resources/videos_generated\model(vcgpdm)-dataset(walking)-mode(ELBO)-parts(1)-dyn(28)-lvm(24)_final(2).mov,resources/videos_natural\training(4).mov,False,False,right,0,104,104,104,2018-10-12 11:13:16.375232,2018-10-12 11:13:20.261454,0:00:03.886222,3,left,0,0.25047547827216476,20,m,1,17,2018_Oct_12_1101,MP_PerceptionTuring2,59.94001198699858,
106,resources/videos_generated\model(vcgpdm)-dataset(walking)-mode(ELBO)-parts(1)-dyn(27)-lvm(24)_final(9).mov,resources/videos_natural\training(7).mov,False,False,right,0,105,105,105,2018-10-12 11:13:21.629532,2018-10-12 11:13:25.666763,0:00:04.037231,3,left,0,0.2337037069382859,20,m,1,17,2018_Oct_12_1101,MP_PerceptionTuring2,59.94001198699858,
107,resources/videos_generated\model(vcgpdm)-dataset(walking)-mode(ELBO)-parts(2)-dyn(27)-lvm(20)_final(1).mov,resources/videos_natural\training(29).mov,False,True,left,0,106,106,106,2018-10-12 11:13:27.017840,2018-10-12 11:13:31.088073,0:00:04.070233,3,left,1,0.21707710141799907,20,m,1,17,2018_Oct_12_1101,MP_PerceptionTuring2,59.94001198699858,
108,resources/videos_generated\model(vcgpdm)-dataset(walking)-mode(ELBO)-parts(1)-dyn(28)-lvm(27)_final(5).mov,resources/videos_natural\training(16).mov,True,False,right,0,107,107,107,2018-10-12 11:13:32.422150,2018-10-12 11:13:36.492382,0:00:04.070232,3,left,0,0.23361787238081888,20,m,1,17,2018_Oct_12_1101,MP_PerceptionTuring2,59.94001198699858,
109,resources/videos_generated\model(vcgpdm)-dataset(walking)-mode(ELBO)-parts(2)-dyn(27)-lvm(18)_final(5).mov,resources/videos_natural\training(44).mov,True,False,right,0,108,108,108,2018-10-12 11:13:37.843460,2018-10-12 11:13:41.780685,0:00:03.937225,3,right,1,0.25047939353225956,20,m,1,17,2018_Oct_12_1101,MP_PerceptionTuring2,59.94001198699858,
110,resources/videos_generated\model(vcgpdm)-dataset(walking)-mode(ELBO)-parts(1)-dyn(22)-lvm(27)_final(0)_hip-correted.mov,resources/videos_natural\training(28).mov,True,True,left,0,109,109,109,2018-10-12 11:13:43.147763,2018-10-12 11:13:47.084988,0:00:03.937225,3,right,0,0.28403136906763393,20,m,1,17,2018_Oct_12_1101,MP_PerceptionTuring2,59.94001198699858,
111,resources/videos_generated\model(vcgpdm)-dataset(walking)-mode(ELBO)-parts(1)-dyn(27)-lvm(28)_final(1).mov,resources/videos_natural\training(44).mov,True,False,right,0,110,110,110,2018-10-12 11:13:48.486068,2018-10-12 11:13:52.389292,0:00:03.903224,3,right,1,0.25049083813973994,20,m,1,17,2018_Oct_12_1101,MP_PerceptionTuring2,59.94001198699858,
112,resources/videos_generated\model(dmp)-dataset(walking)-npsi(60)_final(2).mov,resources/videos_natural\training(5).mov,True,False,right,0,111,111,111,2018-10-12 11:13:53.757370,2018-10-12 11:13:57.677594,0:00:03.920224,3,right,1,0.2671102154872642,20,m,1,17,2018_Oct_12_1101,MP_PerceptionTuring2,59.94001198699858,
113,resources/videos_generated\model(vcgpdm)-dataset(walking)-mode(ELBO)-parts(1)-dyn(25)-lvm(24)_final(7).mov,resources/videos_natural\training(20).mov,True,False,right,0,112,112,112,2018-10-12 11:13:59.061673,2018-10-12 11:14:02.965897,0:00:03.904224,3,right,1,0.21704126172517135,20,m,1,17,2018_Oct_12_1101,MP_PerceptionTuring2,59.94001198699858,
114,resources/videos_generated\model(dmp)-dataset(walking)-npsi(90)_final(8).mov,resources/videos_natural\training(5).mov,True,False,right,0,113,113,113,2018-10-12 11:14:04.299973,2018-10-12 11:14:08.220197,0:00:03.920224,3,right,1,0.28376452900465665,20,m,1,17,2018_Oct_12_1101,MP_PerceptionTuring2,59.94001198699858,
115,resources/videos_generated\model(vcgpdm)-dataset(walking)-mode(ELBO)-parts(2)-dyn(23)-lvm(20)_final(1).mov,resources/videos_natural\training(34).mov,False,False,right,0,114,114,114,2018-10-12 11:14:09.621277,2018-10-12 11:14:13.541501,0:00:03.920224,3,right,1,0.2670313079288462,20,m,1,17,2018_Oct_12_1101,MP_PerceptionTuring2,59.94001198699858,
116,resources/videos_generated\model(vcgpdm)-dataset(walking)-mode(ELBO)-parts(2)-dyn(28)-lvm(17)_final(7).mov,resources/videos_natural\training(41).mov,True,True,left,0,115,115,115,2018-10-12 11:14:14.925581,2018-10-12 11:14:18.845805,0:00:03.920224,3,left,1,0.2671824972194372,20,m,1,17,2018_Oct_12_1101,MP_PerceptionTuring2,59.94001198699858,
117,resources/videos_generated\model(vcgpdm)-dataset(walking)-mode(ELBO)-parts(2)-dyn(22)-lvm(21)_final(7).mov,resources/videos_natural\training(38).mov,True,False,right,0,116,116,116,2018-10-12 11:14:20.229884,2018-10-12 11:14:24.317118,0:00:04.087234,3,right,1,0.3004691385613114,20,m,1,17,2018_Oct_12_1101,MP_PerceptionTuring2,59.94001198699858,
118,resources/videos_generated\model(dmp)-dataset(walking)-npsi(70)_final(4).mov,resources/videos_natural\training(17).mov,False,True,left,0,117,117,117,2018-10-12 11:14:25.735199,2018-10-12 11:14:29.688425,0:00:03.953226,3,right,0,0.267232190910363,20,m,1,17,2018_Oct_12_1101,MP_PerceptionTuring2,59.94001198699858,
119,resources/videos_generated\model(vcgpdm)-dataset(walking)-mode(ELBO)-parts(2)-dyn(22)-lvm(23)_final(7).mov,resources/videos_natural\training(3).mov,False,False,right,0,118,118,118,2018-10-12 11:14:31.073504,2018-10-12 11:14:35.109735,0:00:04.036231,3,right,1,0.2838166320871096,20,m,1,17,2018_Oct_12_1101,MP_PerceptionTuring2,59.94001198699858,
120,resources/videos_generated\model(vcgpdm)-dataset(walking)-mode(ELBO)-parts(1)-dyn(23)-lvm(24)_final(5).mov,resources/videos_natural\training(48).mov,True,False,right,0,119,119,119,2018-10-12 11:14:36.510815,2018-10-12 11:14:40.515044,0:00:04.004229,3,right,1,0.26714334461394174,20,m,1,17,2018_Oct_12_1101,MP_PerceptionTuring2,59.94001198699858,
121,resources/videos_generated\model(vcgpdm)-dataset(walking)-mode(ELBO)-parts(1)-dyn(26)-lvm(27)_final(9).mov,resources/videos_natural\training(12).mov,False,False,right,0,120,120,120,2018-10-12 11:14:41.899123,2018-10-12 11:14:45.986357,0:00:04.087234,3,right,1,0.15039178204915515,20,m,1,17,2018_Oct_12_1101,MP_PerceptionTuring2,59.94001198699858,
122,resources/videos_generated\model(vcgpdm)-dataset(walking)-mode(ELBO)-parts(1)-dyn(27)-lvm(22)_final(7).mov,resources/videos_natural\training(12).mov,False,False,right,0,121,121,121,2018-10-12 11:14:47.253430,2018-10-12 11:14:51.340663,0:00:04.087233,3,left,0,0.23375550884702534,20,m,1,17,2018_Oct_12_1101,MP_PerceptionTuring2,59.94001198699858,
123,resources/videos_generated\model(vcgpdm)-dataset(walking)-mode(ELBO)-parts(2)-dyn(22)-lvm(19)_final(1).mov,resources/videos_natural\training(28).mov,True,True,left,0,122,122,122,2018-10-12 11:14:52.691741,2018-10-12 11:14:56.811976,0:00:04.120235,3,left,1,0.2503375406322448,20,m,1,17,2018_Oct_12_1101,MP_PerceptionTuring2,59.94001198699858,
124,resources/videos_generated\model(vcgpdm)-dataset(walking)-mode(ELBO)-parts(2)-dyn(23)-lvm(20)_final(3).mov,resources/videos_natural\training(47).mov,False,True,left,0,123,123,123,2018-10-12 11:14:58.180055,2018-10-12 11:15:02.116280,0:00:03.936225,3,right,0,0.2671300929632707,20,m,1,17,2018_Oct_12_1101,MP_PerceptionTuring2,59.94001198699858,
125,resources/videos_generated\model(dmp)-dataset(walking)-npsi(80)_final(0).mov,resources/videos_natural\training(24).mov,False,True,left,0,124,124,124,2018-10-12 11:15:03.501359,2018-10-12 11:15:07.404582,0:00:03.903223,3,right,0,0.4173444835942064,20,m,1,17,2018_Oct_12_1101,MP_PerceptionTuring2,59.94001198699858,
126,resources/videos_generated\model(dmp)-dataset(walking)-npsi(80)_final(4).mov,resources/videos_natural\training(21).mov,True,True,left,0,125,125,125,2018-10-12 11:15:08.938670,2018-10-12 11:15:13.025904,0:00:04.087234,3,left,1,0.25043421744976513,20,m,1,17,2018_Oct_12_1101,MP_PerceptionTuring2,59.94001198699858,
127,resources/videos_generated\model(vcgpdm)-dataset(walking)-mode(ELBO)-parts(1)-dyn(23)-lvm(24)_final(7).mov,resources/videos_natural\training(6).mov,False,True,left,0,126,126,126,2018-10-12 11:15:14.393982,2018-10-12 11:15:18.314206,0:00:03.920224,3,left,1,0.28375669848355756,20,m,1,17,2018_Oct_12_1101,MP_PerceptionTuring2,59.94001198699858,
128,resources/videos_generated\model(vcgpdm)-dataset(walking)-mode(ELBO)-parts(1)-dyn(24)-lvm(25)_final(8).mov,resources/videos_natural\training(16).mov,False,True,left,0,127,127,127,2018-10-12 11:15:19.715286,2018-10-12 11:15:23.768518,0:00:04.053232,3,right,0,0.21712107280563941,20,m,1,17,2018_Oct_12_1101,MP_PerceptionTuring2,59.94001198699858,
129,resources/videos_generated\model(vcgpdm)-dataset(walking)-mode(ELBO)-parts(1)-dyn(27)-lvm(22)_final(5).mov,resources/videos_natural\training(31).mov,True,True,left,0,128,128,128,2018-10-12 11:15:25.102595,2018-10-12 11:15:29.022819,0:00:03.920224,3,left,1,0.1837239006481468,20,m,1,17,2018_Oct_12_1101,MP_PerceptionTuring2,59.94001198699858,
130,resources/videos_generated\model(vcgpdm)-dataset(walking)-mode(ELBO)-parts(2)-dyn(28)-lvm(23)_final(9).mov,resources/videos_natural\training(4).mov,True,True,left,0,129,129,129,2018-10-12 11:15:30.323893,2018-10-12 11:15:34.278119,0:00:03.954226,3,left,1,0.23386242557535297,20,m,1,17,2018_Oct_12_1101,MP_PerceptionTuring2,59.94001198699858,
131,resources/videos_generated\model(vcgpdm)-dataset(walking)-mode(ELBO)-parts(1)-dyn(23)-lvm(26)_final(3)_hip-corrected.mov,resources/videos_natural\training(20).mov,True,True,left,0,130,130,130,2018-10-12 11:15:35.629197,2018-10-12 11:15:39.649427,0:00:04.020230,3,left,1,0.2837175458780621,20,m,1,17,2018_Oct_12_1101,MP_PerceptionTuring2,59.94001198699858,
132,resources/videos_generated\model(vcgpdm)-dataset(walking)-mode(ELBO)-parts(2)-dyn(22)-lvm(17)_final(9).mov,resources/videos_natural\training(41).mov,False,True,left,0,131,131,131,2018-10-12 11:15:41.050507,2018-10-12 11:15:45.136740,0:00:04.086233,3,left,1,0.11704761649525608,20,m,1,17,2018_Oct_12_1101,MP_PerceptionTuring2,59.94001198699858,
133,resources/videos_generated\model(vcgpdm)-dataset(walking)-mode(ELBO)-parts(2)-dyn(26)-lvm(21)_final(3).mov,resources/videos_natural\training(32).mov,False,False,right,0,132,132,132,2018-10-12 11:15:46.371811,2018-10-12 11:15:50.292035,0:00:03.920224,3,right,1,0.4008446722791632,20,m,1,17,2018_Oct_12_1101,MP_PerceptionTuring2,59.94001198699858,
134,resources/videos_generated\model(vcgpdm)-dataset(walking)-mode(ELBO)-parts(2)-dyn(26)-lvm(17)_final(7).mov,resources/videos_natural\training(47).mov,False,False,right,0,133,133,133,2018-10-12 11:15:51.809122,2018-10-12 11:15:55.896356,0:00:04.087234,3,right,1,0.23377418162726826,20,m,1,17,2018_Oct_12_1101,MP_PerceptionTuring2,59.94001198699858,
135,resources/videos_generated\model(vcgpdm)-dataset(walking)-mode(ELBO)-parts(1)-dyn(26)-lvm(23)_final(7).mov,resources/videos_natural\training(5).mov,True,True,left,0,134,134,134,2018-10-12 11:15:57.247433,2018-10-12 11:16:01.317666,0:00:04.070233,3,right,0,0.3339045598022494,20,m,1,17,2018_Oct_12_1101,MP_PerceptionTuring2,59.94001198699858,
136,resources/videos_generated\model(vcgpdm)-dataset(walking)-mode(ELBO)-parts(1)-dyn(24)-lvm(23)_final(8).mov,resources/videos_natural\training(20).mov,False,True,left,0,135,135,135,2018-10-12 11:16:34.779580,2018-10-12 11:16:38.716805,0:00:03.937225,4,right,0,0.26722887799769524,20,m,1,17,2018_Oct_12_1101,MP_PerceptionTuring2,59.94001198699858,
137,resources/videos_generated\model(vcgpdm)-dataset(walking)-mode(ELBO)-parts(1)-dyn(24)-lvm(25)_final(0).mov,resources/videos_natural\training(29).mov,True,False,right,0,136,136,136,2018-10-12 11:16:40.100884,2018-10-12 11:16:44.171117,0:00:04.070233,4,right,1,0.20047187924319587,20,m,1,17,2018_Oct_12_1101,MP_PerceptionTuring2,59.94001198699858,
138,resources/videos_generated\model(vcgpdm)-dataset(walking)-mode(ELBO)-parts(1)-dyn(22)-lvm(23)_final(8).mov,resources/videos_natural\training(23).mov,False,False,right,0,137,137,137,2018-10-12 11:16:45.489192,2018-10-12 11:16:49.409417,0:00:03.920225,4,right,1,0.2672102052174523,20,m,1,17,2018_Oct_12_1101,MP_PerceptionTuring2,59.94001198699858,
139,resources/videos_generated\model(vcgpdm)-dataset(walking)-mode(ELBO)-parts(1)-dyn(25)-lvm(26)_final(4)_fail.mov,resources/videos_natural\training(47).mov,False,True,left,0,138,138,138,2018-10-12 11:16:50.793496,2018-10-12 11:16:54.713720,0:00:03.920224,4,left,1,0.18376998025178182,20,m,1,17,2018_Oct_12_1101,MP_PerceptionTuring2,59.94001198699858,
140,resources/videos_generated\model(vcgpdm)-dataset(walking)-mode(ELBO)-parts(1)-dyn(26)-lvm(27)_final(3).mov,resources/videos_natural\training(31).mov,True,False,right,0,139,139,139,2018-10-12 11:16:56.014794,2018-10-12 11:16:59.918018,0:00:03.903224,4,left,0,0.2339088063545205,20,m,1,17,2018_Oct_12_1101,MP_PerceptionTuring2,59.94001198699858,
141,resources/videos_generated\model(vcgpdm)-dataset(walking)-mode(ELBO)-parts(2)-dyn(24)-lvm(17)_final(5).mov,resources/videos_natural\training(13).mov,True,False,right,0,140,140,140,2018-10-12 11:17:01.269095,2018-10-12 11:17:05.356329,0:00:04.087234,4,right,1,0.2004276066827515,20,m,1,17,2018_Oct_12_1101,MP_PerceptionTuring2,59.94001198699858,
142,resources/videos_generated\model(vcgpdm)-dataset(walking)-mode(ELBO)-parts(2)-dyn(28)-lvm(19)_final(5).mov,resources/videos_natural\training(46).mov,True,True,left,0,141,141,141,2018-10-12 11:17:06.674404,2018-10-12 11:17:10.744637,0:00:04.070233,4,left,1,0.23378622858308518,20,m,1,17,2018_Oct_12_1101,MP_PerceptionTuring2,59.94001198699858,
143,resources/videos_generated\model(vcgpdm)-dataset(walking)-mode(ELBO)-parts(1)-dyn(28)-lvm(25)_final(3).mov,resources/videos_natural\training(46).mov,False,True,left,0,142,142,142,2018-10-12 11:17:12.095714,2018-10-12 11:17:16.015938,0:00:03.920224,4,right,0,0.16707711647723045,20,m,1,17,2018_Oct_12_1101,MP_PerceptionTuring2,59.94001198699858,
144,resources/videos_generated\model(tmp)-dataset(walking)-numprim(15)_final(0).mov,resources/videos_natural\training(0).mov,False,True,left,0,143,143,143,2018-10-12 11:17:17.300012,2018-10-12 11:17:21.253238,0:00:03.953226,4,right,0,0.16698134318176017,20,m,1,17,2018_Oct_12_1101,MP_PerceptionTuring2,59.94001198699858,
145,resources/videos_generated\model(vcgpdm)-dataset(walking)-mode(ELBO)-parts(1)-dyn(25)-lvm(25)_final(2).mov,resources/videos_natural\training(39).mov,True,False,right,0,144,144,144,2018-10-12 11:17:22.538311,2018-10-12 11:17:26.574542,0:00:04.036231,4,left,0,0.20054566684575548,20,m,1,17,2018_Oct_12_1101,MP_PerceptionTuring2,59.94001198699858,
146,resources/videos_generated\model(vcgpdm)-dataset(walking)-mode(ELBO)-parts(1)-dyn(23)-lvm(22)_final(7).mov,resources/videos_natural\training(32).mov,True,True,left,0,145,145,145,2018-10-12 11:17:27.892618,2018-10-12 11:17:31.995852,0:00:04.103234,4,left,1,0.26718038900162355,20,m,1,17,2018_Oct_12_1101,MP_PerceptionTuring2,59.94001198699858,
147,resources/videos_generated\model(vcgpdm)-dataset(walking)-mode(ELBO)-parts(2)-dyn(27)-lvm(20)_final(9).mov,resources/videos_natural\training(26).mov,True,False,right,0,146,146,146,2018-10-12 11:17:33.380932,2018-10-12 11:17:37.417162,0:00:04.036230,4,left,0,0.20038514116458828,20,m,1,17,2018_Oct_12_1101,MP_PerceptionTuring2,59.94001198699858,
148,resources/videos_generated\model(vcgpdm)-dataset(walking)-mode(ELBO)-parts(2)-dyn(25)-lvm(18)_final(3).mov,resources/videos_natural\training(43).mov,False,False,right,0,147,147,147,2018-10-12 11:17:38.735238,2018-10-12 11:17:42.838473,0:00:04.103235,4,right,1,0.11711267005466652,20,m,1,17,2018_Oct_12_1101,MP_PerceptionTuring2,59.94001198699858,
149,resources/videos_generated\model(vcgpdm)-dataset(walking)-mode(ELBO)-parts(2)-dyn(27)-lvm(22)_final(9).mov,resources/videos_natural\training(4).mov,False,False,right,0,148,148,148,2018-10-12 11:17:44.073543,2018-10-12 11:17:48.009768,0:00:03.936225,4,right,1,0.26716201739509415,20,m,1,17,2018_Oct_12_1101,MP_PerceptionTuring2,59.94001198699858,
150,resources/videos_generated\model(vcgpdm)-dataset(walking)-mode(ELBO)-parts(2)-dyn(26)-lvm(19)_final(1).mov,resources/videos_natural\training(6).mov,True,False,right,0,149,149,149,2018-10-12 11:17:49.394848,2018-10-12 11:17:53.331073,0:00:03.936225,4,left,0,0.23382026123181276,20,m,1,17,2018_Oct_12_1101,MP_PerceptionTuring2,59.94001198699858,
151,resources/videos_generated\model(vcgpdm)-dataset(walking)-mode(ELBO)-parts(2)-dyn(24)-lvm(17)_final(3).mov,resources/videos_natural\training(44).mov,False,False,right,0,150,150,150,2018-10-12 11:17:54.682150,2018-10-12 11:17:58.619375,0:00:03.937225,4,right,1,0.1837485969062982,20,m,1,17,2018_Oct_12_1101,MP_PerceptionTuring2,59.94001198699858,
152,resources/videos_generated\model(vcgpdm)-dataset(walking)-mode(ELBO)-parts(1)-dyn(28)-lvm(23)_final(9).mov,resources/videos_natural\training(6).mov,False,True,left,0,151,151,151,2018-10-12 11:17:59.920450,2018-10-12 11:18:04.023684,0:00:04.103234,4,left,1,0.2337353301963958,20,m,1,17,2018_Oct_12_1101,MP_PerceptionTuring2,59.94001198699858,
153,resources/videos_generated\model(vcgpdm)-dataset(walking)-mode(ELBO)-parts(1)-dyn(23)-lvm(28)_final(8).mov,resources/videos_natural\training(41).mov,False,False,right,0,152,152,152,2018-10-12 11:18:05.374762,2018-10-12 11:18:09.327988,0:00:03.953226,4,right,1,0.23385188448992267,20,m,1,17,2018_Oct_12_1101,MP_PerceptionTuring2,59.94001198699858,
154,resources/videos_generated\model(dmp)-dataset(walking)-npsi(90)_final(6).mov,resources/videos_natural\training(34).mov,True,False,right,0,153,153,153,2018-10-12 11:18:10.679065,2018-10-12 11:18:14.799301,0:00:04.120236,4,right,1,0.18371878069137892,20,m,1,17,2018_Oct_12_1101,MP_PerceptionTuring2,59.94001198699858,
155,resources/videos_generated\model(tmp)-dataset(walking)-numprim(15)_final(6).mov,resources/videos_natural\training(37).mov,False,True,left,0,154,154,154,2018-10-12 11:18:16.101375,2018-10-12 11:18:20.020599,0:00:03.919224,4,right,0,0.23386724435840733,20,m,1,17,2018_Oct_12_1101,MP_PerceptionTuring2,59.94001198699858,
156,resources/videos_generated\model(vcgpdm)-dataset(walking)-mode(ELBO)-parts(1)-dyn(26)-lvm(27)_final(7).mov,resources/videos_natural\training(5).mov,True,True,left,0,155,155,155,2018-10-12 11:18:21.371677,2018-10-12 11:18:25.408907,0:00:04.037230,4,left,1,0.11704068949529756,20,m,1,17,2018_Oct_12_1101,MP_PerceptionTuring2,59.94001198699858,
157,resources/videos_generated\model(tmp)-dataset(walking)-numprim(11)_final(6).mov,resources/videos_natural\training(29).mov,True,True,left,0,156,156,156,2018-10-12 11:18:26.642978,2018-10-12 11:18:30.747213,0:00:04.104235,4,left,1,0.11721416565342224,20,m,1,17,2018_Oct_12_1101,MP_PerceptionTuring2,59.94001198699858,
158,resources/videos_generated\model(vcgpdm)-dataset(walking)-mode(ELBO)-parts(1)-dyn(27)-lvm(22)_final(1).mov,resources/videos_natural\training(25).mov,True,True,left,0,157,157,157,2018-10-12 11:18:31.981283,2018-10-12 11:18:35.934509,0:00:03.953226,4,left,1,0.23376725462821923,20,m,1,17,2018_Oct_12_1101,MP_PerceptionTuring2,59.94001198699858,
159,resources/videos_generated\model(vcgpdm)-dataset(walking)-mode(ELBO)-parts(2)-dyn(26)-lvm(23)_final(5).mov,resources/videos_natural\training(5).mov,True,False,right,0,158,158,158,2018-10-12 11:18:37.285587,2018-10-12 11:18:41.205811,0:00:03.920224,4,left,0,0.21721624375277315,20,m,1,17,2018_Oct_12_1101,MP_PerceptionTuring2,59.94001198699858,
160,resources/videos_generated\model(dmp)-dataset(walking)-npsi(80)_final(8).mov,resources/videos_natural\training(35).mov,False,True,left,0,159,159,159,2018-10-12 11:18:42.540887,2018-10-12 11:18:46.610120,0:00:04.069233,4,left,1,0.2503694650640682,20,m,1,17,2018_Oct_12_1101,MP_PerceptionTuring2,59.94001198699858,
161,resources/videos_generated\model(vcgpdm)-dataset(walking)-mode(ELBO)-parts(1)-dyn(22)-lvm(27)_final(4)_fail.mov,resources/videos_natural\training(37).mov,True,True,left,0,160,160,160,2018-10-12 11:18:47.978198,2018-10-12 11:18:51.898423,0:00:03.920225,4,left,1,0.26712015422526747,20,m,1,17,2018_Oct_12_1101,MP_PerceptionTuring2,59.94001198699858,
162,resources/videos_generated\model(vcgpdm)-dataset(walking)-mode(ELBO)-parts(1)-dyn(22)-lvm(25)_final(4).mov,resources/videos_natural\training(16).mov,False,True,left,0,161,161,161,2018-10-12 11:18:53.283502,2018-10-12 11:18:57.319733,0:00:04.036231,4,left,1,0.31717886807382456,20,m,1,17,2018_Oct_12_1101,MP_PerceptionTuring2,59.94001198699858,
163,resources/videos_generated\model(vcgpdm)-dataset(walking)-mode(ELBO)-parts(2)-dyn(28)-lvm(17)_final(3).mov,resources/videos_natural\training(38).mov,False,True,left,0,162,162,162,2018-10-12 11:18:58.754815,2018-10-12 11:19:02.624036,0:00:03.869221,4,left,1,0.25041464114656264,20,m,1,17,2018_Oct_12_1101,MP_PerceptionTuring2,59.94001198699858,
164,resources/videos_generated\model(vcgpdm)-dataset(walking)-mode(ELBO)-parts(1)-dyn(25)-lvm(24)_final(5).mov,resources/videos_natural\training(18).mov,False,False,right,0,163,163,163,2018-10-12 11:19:03.992114,2018-10-12 11:19:07.879337,0:00:03.887223,4,right,1,0.233790445017803,20,m,1,17,2018_Oct_12_1101,MP_PerceptionTuring2,59.94001198699858,
165,resources/videos_generated\model(vcgpdm)-dataset(walking)-mode(ELBO)-parts(2)-dyn(23)-lvm(18)_final(3).mov,resources/videos_natural\training(33).mov,True,True,left,0,164,164,164,2018-10-12 11:19:09.230414,2018-10-12 11:19:13.133637,0:00:03.903223,4,left,1,0.23377418162817776,20,m,1,17,2018_Oct_12_1101,MP_PerceptionTuring2,59.94001198699858,
166,resources/videos_generated\model(vcgpdm)-dataset(walking)-mode(ELBO)-parts(1)-dyn(23)-lvm(28)_final(6)_hip-corrected.mov,resources/videos_natural\training(15).mov,True,False,right,0,165,165,165,2018-10-12 11:19:14.484714,2018-10-12 11:19:18.521945,0:00:04.037231,4,left,0,0.2170012055994448,20,m,1,17,2018_Oct_12_1101,MP_PerceptionTuring2,59.94001198699858,
167,resources/videos_generated\model(vcgpdm)-dataset(walking)-mode(ELBO)-parts(2)-dyn(24)-lvm(19)_final(3).mov,resources/videos_natural\training(34).mov,False,False,right,0,166,166,166,2018-10-12 11:19:19.856022,2018-10-12 11:19:23.809248,0:00:03.953226,4,right,1,0.23378502388823108,20,m,1,17,2018_Oct_12_1101,MP_PerceptionTuring2,59.94001198699858,
168,resources/videos_generated\model(vcgpdm)-dataset(walking)-mode(ELBO)-parts(2)-dyn(22)-lvm(21)_final(5).mov,resources/videos_natural\training(7).mov,False,False,right,0,167,167,167,2018-10-12 11:19:25.160325,2018-10-12 11:19:29.297562,0:00:04.137237,4,right,1,0.18362421209167223,20,m,1,17,2018_Oct_12_1101,MP_PerceptionTuring2,59.94001198699858,
169,resources/videos_generated\model(dmp)-dataset(walking)-npsi(100)_final(0).mov,resources/videos_natural\training(26).mov,False,False,right,0,168,168,168,2018-10-12 11:19:30.598636,2018-10-12 11:19:34.468857,0:00:03.870221,4,right,1,0.2505808891310153,20,m,1,17,2018_Oct_12_1101,MP_PerceptionTuring2,59.94001198699858,
170,resources/videos_generated\model(tmp)-dataset(walking)-numprim(12)_final(4).mov,resources/videos_natural\training(12).mov,False,True,left,0,169,169,169,2018-10-12 11:19:35.836936,2018-10-12 11:19:39.907168,0:00:04.070232,4,right,0,0.5172803034392928,20,m,1,17,2018_Oct_12_1101,MP_PerceptionTuring2,59.94001198699858,
171,resources/videos_generated\model(vcgpdm)-dataset(walking)-mode(ELBO)-parts(2)-dyn(24)-lvm(19)_final(5).mov,resources/videos_natural\training(3).mov,True,False,right,0,170,170,170,2018-10-12 11:19:41.541262,2018-10-12 11:19:45.628496,0:00:04.087234,4,right,1,0.21712438571830717,20,m,1,17,2018_Oct_12_1101,MP_PerceptionTuring2,59.94001198699858,
172,resources/videos_generated\model(vcgpdm)-dataset(walking)-mode(ELBO)-parts(2)-dyn(28)-lvm(21)_final(3).mov,resources/videos_natural\training(8).mov,False,True,left,0,171,171,171,2018-10-12 11:19:46.962572,2018-10-12 11:19:50.882796,0:00:03.920224,4,right,0,0.21721503905791906,20,m,1,17,2018_Oct_12_1101,MP_PerceptionTuring2,59.94001198699858,
173,resources/videos_generated\model(vcgpdm)-dataset(walking)-mode(ELBO)-parts(1)-dyn(23)-lvm(22)_final(9)_fail.mov,resources/videos_natural\training(45).mov,True,True,left,0,172,172,172,2018-10-12 11:19:52.216873,2018-10-12 11:19:56.354109,0:00:04.137236,4,left,1,0.2504206646244711,20,m,1,17,2018_Oct_12_1101,MP_PerceptionTuring2,59.94001198699858,
174,resources/videos_generated\model(vcgpdm)-dataset(walking)-mode(ELBO)-parts(2)-dyn(27)-lvm(22)_final(3).mov,resources/videos_natural\training(3).mov,True,True,left,0,173,173,173,2018-10-12 11:19:57.722187,2018-10-12 11:20:01.642412,0:00:03.920225,4,left,1,0.016822970893372258,20,m,1,17,2018_Oct_12_1101,MP_PerceptionTuring2,59.94001198699858,
175,resources/videos_generated\model(dmp)-dataset(walking)-npsi(100)_final(2).mov,resources/videos_natural\training(16).mov,False,False,right,0,174,174,174,2018-10-12 11:20:02.776477,2018-10-12 11:20:06.713702,0:00:03.937225,4,left,0,0.3005847893336977,20,m,1,17,2018_Oct_12_1101,MP_PerceptionTuring2,59.94001198699858,
176,resources/videos_generated\model(dmp)-dataset(walking)-npsi(100)_final(8).mov,resources/videos_natural\training(8).mov,True,True,left,0,175,175,175,2018-10-12 11:20:08.130783,2018-10-12 11:20:12.051007,0:00:03.920224,4,left,1,0.21705330868098827,20,m,1,17,2018_Oct_12_1101,MP_PerceptionTuring2,59.94001198699858,
177,resources/videos_generated\model(vcgpdm)-dataset(walking)-mode(ELBO)-parts(2)-dyn(25)-lvm(18)_final(7).mov,resources/videos_natural\training(11).mov,False,True,left,0,176,176,176,2018-10-12 11:20:13.386083,2018-10-12 11:20:17.272306,0:00:03.886223,4,left,1,0.21720961792743765,20,m,1,17,2018_Oct_12_1101,MP_PerceptionTuring2,59.94001198699858,
178,resources/videos_generated\model(vcgpdm)-dataset(walking)-mode(ELBO)-parts(1)-dyn(23)-lvm(24)_final(9).mov,resources/videos_natural\training(0).mov,False,True,left,0,177,177,177,2018-10-12 11:20:18.606382,2018-10-12 11:20:22.510605,0:00:03.904223,4,left,1,0.16699820891881245,20,m,1,17,2018_Oct_12_1101,MP_PerceptionTuring2,59.94001198699858,
179,resources/videos_generated\model(vcgpdm)-dataset(walking)-mode(ELBO)-parts(2)-dyn(24)-lvm(23)_final(3).mov,resources/videos_natural\training(22).mov,False,False,right,0,178,178,178,2018-10-12 11:20:23.794679,2018-10-12 11:20:27.697902,0:00:03.903223,4,right,1,0.3005070864710433,20,m,1,17,2018_Oct_12_1101,MP_PerceptionTuring2,59.94001198699858,
180,resources/videos_generated\model(vcgpdm)-dataset(walking)-mode(ELBO)-parts(1)-dyn(25)-lvm(24)_final(1).mov,resources/videos_natural\training(19).mov,True,False,right,0,179,179,179,2018-10-12 11:20:29.115983,2018-10-12 11:20:33.069209,0:00:03.953226,4,right,1,0.4171180008315787,20,m,1,17,2018_Oct_12_1101,MP_PerceptionTuring2,59.94001198699858,
181,resources/videos_generated\model(vcgpdm)-dataset(walking)-mode(ELBO)-parts(2)-dyn(25)-lvm(20)_final(1).mov,resources/videos_natural\training(48).mov,False,True,left,0,180,180,180,2018-10-12 11:21:58.710108,2018-10-12 11:22:02.813342,0:00:04.103234,5,right,0,2.0520241746253305,20,m,1,17,2018_Oct_12_1101,MP_PerceptionTuring2,59.94001198699858,
182,resources/videos_generated\model(vcgpdm)-dataset(walking)-mode(ELBO)-parts(1)-dyn(22)-lvm(22)_final(2).mov,resources/videos_natural\training(33).mov,False,True,left,0,181,181,181,2018-10-12 11:22:05.982524,2018-10-12 11:22:10.069757,0:00:04.087233,5,left,1,0.30046552447493013,20,m,1,17,2018_Oct_12_1101,MP_PerceptionTuring2,59.94001198699858,
183,resources/videos_generated\model(vcgpdm)-dataset(walking)-mode(ELBO)-parts(1)-dyn(26)-lvm(25)_final(3).mov,resources/videos_natural\training(6).mov,True,False,right,0,182,182,182,2018-10-12 11:22:11.487838,2018-10-12 11:22:15.441065,0:00:03.953227,5,right,1,0.35038087955399533,20,m,1,17,2018_Oct_12_1101,MP_PerceptionTuring2,59.94001198699858,
184,resources/videos_generated\model(vcgpdm)-dataset(walking)-mode(ELBO)-parts(2)-dyn(25)-lvm(20)_final(3).mov,resources/videos_natural\training(23).mov,False,True,left,0,183,183,183,2018-10-12 11:22:16.909148,2018-10-12 11:22:20.795371,0:00:03.886223,5,left,1,0.26697920484639326,20,m,1,17,2018_Oct_12_1101,MP_PerceptionTuring2,59.94001198699858,
185,resources/videos_generated\model(tmp)-dataset(walking)-numprim(13)_final(6).mov,resources/videos_natural\training(28).mov,True,False,right,0,184,184,184,2018-10-12 11:22:22.180450,2018-10-12 11:22:26.266684,0:00:04.086234,5,right,1,0.2671993629564895,20,m,1,17,2018_Oct_12_1101,MP_PerceptionTuring2,59.94001198699858,
186,resources/videos_generated\model(tmp)-dataset(walking)-numprim(15)_final(2).mov,resources/videos_natural\training(17).mov,False,False,right,0,185,185,185,2018-10-12 11:22:27.651763,2018-10-12 11:22:31.637991,0:00:03.986228,5,right,1,0.2337982755389021,20,m,1,17,2018_Oct_12_1101,MP_PerceptionTuring2,59.94001198699858,
187,resources/videos_generated\model(vcgpdm)-dataset(walking)-mode(ELBO)-parts(1)-dyn(25)-lvm(22)_final(4).mov,resources/videos_natural\training(42).mov,True,True,left,0,186,186,186,2018-10-12 11:22:32.990068,2018-10-12 11:22:37.093303,0:00:04.103235,5,left,1,0.08366399716123851,20,m,1,17,2018_Oct_12_1101,MP_PerceptionTuring2,59.94001198699858,
188,resources/videos_generated\model(vcgpdm)-dataset(walking)-mode(ELBO)-parts(2)-dyn(27)-lvm(18)_final(9).mov,resources/videos_natural\training(43).mov,True,False,right,0,187,187,187,2018-10-12 11:22:38.294372,2018-10-12 11:22:42.230597,0:00:03.936225,5,right,1,0.2670430537109496,20,m,1,17,2018_Oct_12_1101,MP_PerceptionTuring2,59.94001198699858,
189,resources/videos_generated\model(vcgpdm)-dataset(walking)-mode(ELBO)-parts(1)-dyn(25)-lvm(28)_final(6).mov,resources/videos_natural\training(36).mov,False,False,right,0,188,188,188,2018-10-12 11:22:43.615676,2018-10-12 11:22:47.518899,0:00:03.903223,5,right,1,0.18365854591411335,20,m,1,17,2018_Oct_12_1101,MP_PerceptionTuring2,59.94001198699858,
190,resources/videos_generated\model(vcgpdm)-dataset(walking)-mode(ELBO)-parts(1)-dyn(24)-lvm(25)_final(4).mov,resources/videos_natural\training(10).mov,False,True,left,0,189,189,189,2018-10-12 11:22:48.819974,2018-10-12 11:22:52.923208,0:00:04.103234,5,right,0,0.2170749932010949,20,m,1,17,2018_Oct_12_1101,MP_PerceptionTuring2,59.94001198699858,
191,resources/videos_generated\model(vcgpdm)-dataset(walking)-mode(ELBO)-parts(1)-dyn(28)-lvm(23)_final(3)_fail.mov,resources/videos_natural\training(23).mov,False,True,left,0,190,190,190,2018-10-12 11:22:54.258285,2018-10-12 11:22:58.228512,0:00:03.970227,5,left,1,0.250530894266376,20,m,1,17,2018_Oct_12_1101,MP_PerceptionTuring2,59.94001198699858,
192,resources/videos_generated\model(dmp)-dataset(walking)-npsi(50)_final(8).mov,resources/videos_natural\training(26).mov,False,False,right,0,191,191,191,2018-10-12 11:22:59.595590,2018-10-12 11:23:03.532815,0:00:03.937225,5,left,0,0.16709307869314216,20,m,1,17,2018_Oct_12_1101,MP_PerceptionTuring2,59.94001198699858,
193,resources/videos_generated\model(dmp)-dataset(walking)-npsi(60)_final(0).mov,resources/videos_natural\training(48).mov,False,False,right,0,192,192,192,2018-10-12 11:23:04.816889,2018-10-12 11:23:08.821118,0:00:04.004229,5,right,1,0.18397568201635295,20,m,1,17,2018_Oct_12_1101,MP_PerceptionTuring2,59.94001198699858,
194,resources/videos_generated\model(vcgpdm)-dataset(walking)-mode(ELBO)-parts(2)-dyn(23)-lvm(20)_final(5).mov,resources/videos_natural\training(18).mov,True,False,right,0,193,193,193,2018-10-12 11:23:10.122192,2018-10-12 11:23:14.008414,0:00:03.886222,5,right,1,0.3839286386546519,20,m,1,17,2018_Oct_12_1101,MP_PerceptionTuring2,59.94001198699858,
195,resources/videos_generated\model(vcgpdm)-dataset(walking)-mode(ELBO)-parts(2)-dyn(24)-lvm(21)_final(9).mov,resources/videos_natural\training(20).mov,True,False,right,0,194,194,194,2018-10-12 11:23:15.509500,2018-10-12 11:23:19.446725,0:00:03.937225,5,right,1,0.2671484645707096,20,m,1,17,2018_Oct_12_1101,MP_PerceptionTuring2,59.94001198699858,
196,resources/videos_generated\model(vcgpdm)-dataset(walking)-mode(ELBO)-parts(1)-dyn(27)-lvm(26)_final(1).mov,resources/videos_natural\training(4).mov,True,True,left,0,195,195,195,2018-10-12 11:23:20.830805,2018-10-12 11:23:24.818033,0:00:03.987228,5,left,1,0.21704909224717994,20,m,1,17,2018_Oct_12_1101,MP_PerceptionTuring2,59.94001198699858,
197,resources/videos_generated\model(vcgpdm)-dataset(walking)-mode(ELBO)-parts(1)-dyn(27)-lvm(26)_final(3).mov,resources/videos_natural\training(30).mov,True,True,left,0,196,196,196,2018-10-12 11:23:26.152109,2018-10-12 11:23:30.189340,0:00:04.037231,5,left,1,0.21708252254848048,20,m,1,17,2018_Oct_12_1101,MP_PerceptionTuring2,59.94001198699858,
198,resources/videos_generated\model(vcgpdm)-dataset(walking)-mode(ELBO)-parts(2)-dyn(25)-lvm(20)_final(9).mov,resources/videos_natural\training(20).mov,False,True,left,0,197,197,197,2018-10-12 11:23:31.523416,2018-10-12 11:23:35.426639,0:00:03.903223,5,right,0,0.1838133492919951,20,m,1,17,2018_Oct_12_1101,MP_PerceptionTuring2,59.94001198699858,
199,resources/videos_generated\model(vcgpdm)-dataset(walking)-mode(ELBO)-parts(2)-dyn(26)-lvm(23)_final(9).mov,resources/videos_natural\training(45).mov,True,False,right,0,198,198,198,2018-10-12 11:23:36.727714,2018-10-12 11:23:40.814948,0:00:04.087234,5,right,1,0.2171668512364704,20,m,1,17,2018_Oct_12_1101,MP_PerceptionTuring2,59.94001198699858,
200,resources/videos_generated\model(vcgpdm)-dataset(walking)-mode(ELBO)-parts(1)-dyn(27)-lvm(24)_final(7).mov,resources/videos_natural\training(21).mov,True,True,left,0,199,199,199,2018-10-12 11:23:42.150024,2018-10-12 11:23:46.036246,0:00:03.886222,5,left,1,0.21715600897641707,20,m,1,17,2018_Oct_12_1101,MP_PerceptionTuring2,59.94001198699858,
201,resources/videos_generated\model(vcgpdm)-dataset(walking)-mode(ELBO)-parts(1)-dyn(22)-lvm(25)_final(0).mov,resources/videos_natural\training(1).mov,True,True,left,0,200,200,200,2018-10-12 11:23:47.370323,2018-10-12 11:23:51.290547,0:00:03.920224,5,left,1,0.250412834103372,20,m,1,17,2018_Oct_12_1101,MP_PerceptionTuring2,59.94001198699858,
202,resources/videos_generated\model(vcgpdm)-dataset(walking)-mode(ELBO)-parts(1)-dyn(28)-lvm(25)_final(7).mov,resources/videos_natural\training(2).mov,False,False,right,0,201,201,201,2018-10-12 11:23:52.658625,2018-10-12 11:23:56.694856,0:00:04.036231,5,left,0,0.2504037988865093,20,m,1,17,2018_Oct_12_1101,MP_PerceptionTuring2,59.94001198699858,
203,resources/videos_generated\model(vcgpdm)-dataset(walking)-mode(ELBO)-parts(1)-dyn(25)-lvm(22)_final(0).mov,resources/videos_natural\training(29).mov,False,False,right,0,202,202,202,2018-10-12 11:23:58.062934,2018-10-12 11:24:02.000159,0:00:03.937225,5,right,1,0.23373743841329997,20,m,1,17,2018_Oct_12_1101,MP_PerceptionTuring2,59.94001198699858,
204,resources/videos_generated\model(vcgpdm)-dataset(walking)-mode(ELBO)-parts(1)-dyn(27)-lvm(22)_final(3).mov,resources/videos_natural\training(12).mov,True,True,left,0,203,203,203,2018-10-12 11:24:03.351237,2018-10-12 11:24:07.421469,0:00:04.070232,5,left,1,0.1170319554521484,20,m,1,17,2018_Oct_12_1101,MP_PerceptionTuring2,59.94001198699858,
205,resources/videos_generated\model(vcgpdm)-dataset(walking)-mode(ELBO)-parts(1)-dyn(26)-lvm(27)_final(1).mov,resources/videos_natural\training(31).mov,True,True,left,0,204,204,204,2018-10-12 11:24:08.655540,2018-10-12 11:24:12.592765,0:00:03.937225,5,right,0,0.2171183622403987,20,m,1,17,2018_Oct_12_1101,MP_PerceptionTuring2,59.94001198699858,
206,resources/videos_generated\model(dmp)-dataset(walking)-npsi(100)_final(4).mov,resources/videos_natural\training(6).mov,False,True,left,0,205,205,205,2018-10-12 11:24:13.926842,2018-10-12 11:24:17.880068,0:00:03.953226,5,left,1,0.20033333925584884,20,m,1,17,2018_Oct_12_1101,MP_PerceptionTuring2,59.94001198699858,
207,resources/videos_generated\model(vcgpdm)-dataset(walking)-mode(ELBO)-parts(2)-dyn(24)-lvm(19)_final(7).mov,resources/videos_natural\training(10).mov,True,False,right,0,206,206,206,2018-10-12 11:24:19.198143,2018-10-12 11:24:23.285377,0:00:04.087234,5,left,0,0.2169891586436279,20,m,1,17,2018_Oct_12_1101,MP_PerceptionTuring2,59.94001198699858,
208,resources/videos_generated\model(vcgpdm)-dataset(walking)-mode(ELBO)-parts(2)-dyn(28)-lvm(21)_final(7).mov,resources/videos_natural\training(39).mov,True,True,left,0,207,207,207,2018-10-12 11:24:24.619453,2018-10-12 11:24:28.522676,0:00:03.903223,5,left,1,0.43394006820381037,20,m,1,17,2018_Oct_12_1101,MP_PerceptionTuring2,59.94001198699858,
209,resources/videos_generated\model(vcgpdm)-dataset(walking)-mode(ELBO)-parts(2)-dyn(28)-lvm(21)_final(5).mov,resources/videos_natural\training(7).mov,True,True,left,0,208,208,208,2018-10-12 11:24:30.073765,2018-10-12 11:24:34.110996,0:00:04.037231,5,left,1,0.1170096685855242,20,m,1,17,2018_Oct_12_1101,MP_PerceptionTuring2,59.94001198699858,
210,resources/videos_generated\model(tmp)-dataset(walking)-numprim(14)_final(6).mov,resources/videos_natural\training(1).mov,False,False,right,0,209,209,209,2018-10-12 11:24:35.345067,2018-10-12 11:24:39.299293,0:00:03.954226,5,left,0,0.28373531513716443,20,m,1,17,2018_Oct_12_1101,MP_PerceptionTuring2,59.94001198699858,
211,resources/videos_generated\model(vcgpdm)-dataset(walking)-mode(ELBO)-parts(2)-dyn(26)-lvm(21)_final(1).mov,resources/videos_natural\training(12).mov,False,True,left,0,210,210,210,2018-10-12 11:24:40.700373,2018-10-12 11:24:44.786607,0:00:04.086234,5,left,1,0.21708704015600233,20,m,1,17,2018_Oct_12_1101,MP_PerceptionTuring2,59.94001198699858,
212,resources/videos_generated\model(vcgpdm)-dataset(walking)-mode(ELBO)-parts(2)-dyn(26)-lvm(17)_final(9).mov,resources/videos_natural\training(31).mov,True,True,left,0,211,211,211,2018-10-12 11:24:46.121683,2018-10-12 11:24:50.157914,0:00:04.036231,5,left,1,0.1504935788216244,20,m,1,17,2018_Oct_12_1101,MP_PerceptionTuring2,59.94001198699858,
213,resources/videos_generated\model(vcgpdm)-dataset(walking)-mode(ELBO)-parts(2)-dyn(22)-lvm(19)_final(7).mov,resources/videos_natural\training(16).mov,False,True,left,0,212,212,212,2018-10-12 11:24:51.425986,2018-10-12 11:24:55.513220,0:00:04.087234,5,left,1,0.23376123115031078,20,m,1,17,2018_Oct_12_1101,MP_PerceptionTuring2,59.94001198699858,
214,resources/videos_generated\model(vcgpdm)-dataset(walking)-mode(ELBO)-parts(2)-dyn(23)-lvm(18)_final(9).mov,resources/videos_natural\training(20).mov,False,True,left,0,213,213,213,2018-10-12 11:24:56.864297,2018-10-12 11:25:00.884527,0:00:04.020230,5,left,1,0.18374377812415332,20,m,1,17,2018_Oct_12_1101,MP_PerceptionTuring2,59.94001198699858,
215,resources/videos_generated\model(vcgpdm)-dataset(walking)-mode(ELBO)-parts(1)-dyn(26)-lvm(25)_final(1).mov,resources/videos_natural\training(26).mov,False,True,left,0,214,214,214,2018-10-12 11:25:02.185602,2018-10-12 11:25:06.305837,0:00:04.120235,5,left,1,0.3171478471640512,20,m,1,17,2018_Oct_12_1101,MP_PerceptionTuring2,59.94001198699858,
216,resources/videos_generated\model(tmp)-dataset(walking)-numprim(13)_final(8).mov,resources/videos_natural\training(30).mov,True,True,left,0,215,215,215,2018-10-12 11:25:07.739919,2018-10-12 11:25:11.727148,0:00:03.987229,5,left,1,0.16704549321912054,20,m,1,17,2018_Oct_12_1101,MP_PerceptionTuring2,59.94001198699858,
217,resources/videos_generated\model(vcgpdm)-dataset(walking)-mode(ELBO)-parts(2)-dyn(25)-lvm(22)_final(3).mov,resources/videos_natural\training(3).mov,False,False,right,0,216,216,216,2018-10-12 11:25:13.011221,2018-10-12 11:25:16.964447,0:00:03.953226,5,left,0,0.3339756368395683,20,m,1,17,2018_Oct_12_1101,MP_PerceptionTuring2,59.94001198699858,
218,resources/videos_generated\model(dmp)-dataset(walking)-npsi(90)_final(0).mov,resources/videos_natural\training(14).mov,True,False,right,0,217,217,217,2018-10-12 11:25:18.415530,2018-10-12 11:25:22.502764,0:00:04.087234,5,left,0,0.2504565043172988,20,m,1,17,2018_Oct_12_1101,MP_PerceptionTuring2,59.94001198699858,
219,resources/videos_generated\model(vcgpdm)-dataset(walking)-mode(ELBO)-parts(1)-dyn(27)-lvm(28)_final(3).mov,resources/videos_natural\training(18).mov,True,False,right,0,218,218,218,2018-10-12 11:25:23.870842,2018-10-12 11:25:27.774065,0:00:03.903223,5,right,1,0.40050946574410773,20,m,1,17,2018_Oct_12_1101,MP_PerceptionTuring2,59.94001198699858,
220,resources/videos_generated\model(tmp)-dataset(walking)-numprim(12)_final(6).mov,resources/videos_natural\training(9).mov,True,True,left,0,219,219,219,2018-10-12 11:25:29.292152,2018-10-12 11:25:33.212376,0:00:03.920224,5,left,1,0.35094046063295536,20,m,1,17,2018_Oct_12_1101,MP_PerceptionTuring2,59.94001198699858,
221,resources/videos_generated\model(vcgpdm)-dataset(walking)-mode(ELBO)-parts(1)-dyn(25)-lvm(26)_final(2).mov,resources/videos_natural\training(43).mov,False,False,right,0,220,220,220,2018-10-12 11:25:34.679460,2018-10-12 11:25:38.583684,0:00:03.904224,5,right,1,0.2004998884149245,20,m,1,17,2018_Oct_12_1101,MP_PerceptionTuring2,59.94001198699858,
222,resources/videos_generated\model(vcgpdm)-dataset(walking)-mode(ELBO)-parts(1)-dyn(24)-lvm(23)_final(6)_fail.mov,resources/videos_natural\training(21).mov,True,False,right,0,221,221,221,2018-10-12 11:25:39.900759,2018-10-12 11:25:43.854985,0:00:03.954226,5,right,1,0.23383893401296518,20,m,1,17,2018_Oct_12_1101,MP_PerceptionTuring2,59.94001198699858,
223,resources/videos_generated\model(vcgpdm)-dataset(walking)-mode(ELBO)-parts(2)-dyn(23)-lvm(18)_final(1).mov,resources/videos_natural\training(46).mov,False,False,right,0,222,222,222,2018-10-12 11:25:45.206062,2018-10-12 11:25:49.292296,0:00:04.086234,5,right,1,0.2337970708431385,20,m,1,17,2018_Oct_12_1101,MP_PerceptionTuring2,59.94001198699858,
224,resources/videos_generated\model(vcgpdm)-dataset(walking)-mode(ELBO)-parts(2)-dyn(26)-lvm(19)_final(9).mov,resources/videos_natural\training(40).mov,True,True,left,0,223,223,223,2018-10-12 11:25:50.643373,2018-10-12 11:25:54.563598,0:00:03.920225,5,left,1,0.13371728988113318,20,m,1,17,2018_Oct_12_1101,MP_PerceptionTuring2,59.94001198699858,
225,resources/videos_generated\model(vcgpdm)-dataset(walking)-mode(ELBO)-parts(1)-dyn(22)-lvm(27)_final(6)_fail.mov,resources/videos_natural\training(19).mov,False,False,right,0,224,224,224,2018-10-12 11:25:55.814669,2018-10-12 11:25:59.851900,0:00:04.037231,5,right,1,0.233750991238594,20,m,1,17,2018_Oct_12_1101,MP_PerceptionTuring2,59.94001198699858,
226,resources/videos_generated\model(tmp)-dataset(walking)-numprim(13)_final(0).mov,resources/videos_natural\training(27).mov,True,True,left,0,225,225,225,2018-10-12 11:26:42.472338,2018-10-12 11:26:46.592574,0:00:04.120236,6,left,1,0.23392537091785925,20,m,1,17,2018_Oct_12_1101,MP_PerceptionTuring2,59.94001198699858,
227,resources/videos_generated\model(vcgpdm)-dataset(walking)-mode(ELBO)-parts(1)-dyn(27)-lvm(28)_final(5).mov,resources/videos_natural\training(25).mov,False,False,right,0,226,226,226,2018-10-12 11:26:47.943651,2018-10-12 11:26:51.879876,0:00:03.936225,6,right,1,0.2504312057108109,20,m,1,17,2018_Oct_12_1101,MP_PerceptionTuring2,59.94001198699858,
228,resources/videos_generated\model(vcgpdm)-dataset(walking)-mode(ELBO)-parts(2)-dyn(23)-lvm(22)_final(3).mov,resources/videos_natural\training(38).mov,False,False,right,0,227,227,227,2018-10-12 11:26:53.247954,2018-10-12 11:26:57.168178,0:00:03.920224,6,right,1,0.2505417365264293,20,m,1,17,2018_Oct_12_1101,MP_PerceptionTuring2,59.94001198699858,
229,resources/videos_generated\model(vcgpdm)-dataset(walking)-mode(ELBO)-parts(1)-dyn(24)-lvm(23)_final(4)_fail.mov,resources/videos_natural\training(32).mov,False,False,right,0,228,228,228,2018-10-12 11:26:58.536257,2018-10-12 11:27:02.472482,0:00:03.936225,6,right,1,0.21707408967904485,20,m,1,17,2018_Oct_12_1101,MP_PerceptionTuring2,59.94001198699858,
230,resources/videos_generated\model(vcgpdm)-dataset(walking)-mode(ELBO)-parts(1)-dyn(22)-lvm(22)_final(0).mov,resources/videos_natural\training(0).mov,True,True,left,0,229,229,229,2018-10-12 11:27:03.806558,2018-10-12 11:27:07.910793,0:00:04.104235,6,left,1,0.267061425317479,20,m,1,17,2018_Oct_12_1101,MP_PerceptionTuring2,59.94001198699858,
231,resources/videos_generated\model(dmp)-dataset(walking)-npsi(70)_final(6).mov,resources/videos_natural\training(2).mov,True,False,right,0,230,230,230,2018-10-12 11:27:09.294872,2018-10-12 11:27:13.365105,0:00:04.070233,6,left,0,0.2171117364150632,20,m,1,17,2018_Oct_12_1101,MP_PerceptionTuring2,59.94001198699858,
232,resources/videos_generated\model(vcgpdm)-dataset(walking)-mode(ELBO)-parts(1)-dyn(26)-lvm(23)_final(5).mov,resources/videos_natural\training(25).mov,True,False,right,0,231,231,231,2018-10-12 11:27:14.700181,2018-10-12 11:27:18.770414,0:00:04.070233,6,right,1,0.28379976634914783,20,m,1,17,2018_Oct_12_1101,MP_PerceptionTuring2,59.94001198699858,
233,resources/videos_generated\model(vcgpdm)-dataset(walking)-mode(ELBO)-parts(1)-dyn(22)-lvm(27)_final(8)_fail.mov,resources/videos_natural\training(0).mov,True,True,left,0,232,232,232,2018-10-12 11:27:20.171494,2018-10-12 11:27:24.124720,0:00:03.953226,6,left,1,0.2503456723270574,20,m,1,17,2018_Oct_12_1101,MP_PerceptionTuring2,59.94001198699858,
234,resources/videos_generated\model(vcgpdm)-dataset(walking)-mode(ELBO)-parts(1)-dyn(26)-lvm(25)_final(5).mov,resources/videos_natural\training(44).mov,False,True,left,0,233,233,233,2018-10-12 11:27:25.492798,2018-10-12 11:27:29.429024,0:00:03.936226,6,left,1,0.31715477416310023,20,m,1,17,2018_Oct_12_1101,MP_PerceptionTuring2,59.94001198699858,
235,resources/videos_generated\model(vcgpdm)-dataset(walking)-mode(ELBO)-parts(2)-dyn(23)-lvm(18)_final(7).mov,resources/videos_natural\training(1).mov,False,True,left,0,234,234,234,2018-10-12 11:27:30.864106,2018-10-12 11:27:34.817332,0:00:03.953226,6,left,1,0.4506232944149815,20,m,1,17,2018_Oct_12_1101,MP_PerceptionTuring2,59.94001198699858,
236,resources/videos_generated\model(vcgpdm)-dataset(walking)-mode(ELBO)-parts(2)-dyn(26)-lvm(19)_final(5).mov,resources/videos_natural\training(46).mov,False,False,right,0,235,235,235,2018-10-12 11:27:36.385421,2018-10-12 11:27:40.405651,0:00:04.020230,6,right,1,0.18396273153848597,20,m,1,17,2018_Oct_12_1101,MP_PerceptionTuring2,59.94001198699858,
237,resources/videos_generated\model(vcgpdm)-dataset(walking)-mode(ELBO)-parts(1)-dyn(23)-lvm(22)_final(1)_fail.mov,resources/videos_natural\training(17).mov,False,True,left,0,236,236,236,2018-10-12 11:27:41.706726,2018-10-12 11:27:45.709955,0:00:04.003229,6,left,1,0.15047189430242724,20,m,1,17,2018_Oct_12_1101,MP_PerceptionTuring2,59.94001198699858,
238,resources/videos_generated\model(vcgpdm)-dataset(walking)-mode(ELBO)-parts(1)-dyn(25)-lvm(26)_final(0).mov,resources/videos_natural\training(11).mov,True,False,right,0,237,237,237,2018-10-12 11:27:46.978027,2018-10-12 11:27:51.014258,0:00:04.036231,6,left,0,0.20021648378860846,20,m,1,17,2018_Oct_12_1101,MP_PerceptionTuring2,59.94001198699858,
239,resources/videos_generated\model(vcgpdm)-dataset(walking)-mode(ELBO)-parts(2)-dyn(24)-lvm(21)_final(7).mov,resources/videos_natural\training(45).mov,True,False,right,0,238,238,238,2018-10-12 11:27:52.332334,2018-10-12 11:27:56.268559,0:00:03.936225,6,left,0,0.11700454862875631,20,m,1,17,2018_Oct_12_1101,MP_PerceptionTuring2,59.94001198699858,
240,resources/videos_generated\model(dmp)-dataset(walking)-npsi(60)_final(8).mov,resources/videos_natural\training(42).mov,False,True,left,0,239,239,239,2018-10-12 11:27:57.503629,2018-10-12 11:28:01.473856,0:00:03.970227,6,right,0,0.16718373203184456,20,m,1,17,2018_Oct_12_1101,MP_PerceptionTuring2,59.94001198699858,
241,resources/videos_generated\model(vcgpdm)-dataset(walking)-mode(ELBO)-parts(1)-dyn(25)-lvm(24)_final(3).mov,resources/videos_natural\training(24).mov,False,False,right,0,240,240,240,2018-10-12 11:28:02.757930,2018-10-12 11:28:06.678154,0:00:03.920224,6,right,1,0.06695185825810768,20,m,1,17,2018_Oct_12_1101,MP_PerceptionTuring2,59.94001198699858,
242,resources/videos_generated\model(vcgpdm)-dataset(walking)-mode(ELBO)-parts(1)-dyn(25)-lvm(28)_final(2).mov,resources/videos_natural\training(19).mov,False,False,right,0,241,241,241,2018-10-12 11:28:07.862222,2018-10-12 11:28:11.782446,0:00:03.920224,6,right,1,0.3839078576565953,20,m,1,17,2018_Oct_12_1101,MP_PerceptionTuring2,59.94001198699858,
243,resources/videos_generated\model(vcgpdm)-dataset(walking)-mode(ELBO)-parts(2)-dyn(26)-lvm(21)_final(9).mov,resources/videos_natural\training(8).mov,True,True,left,0,242,242,242,2018-10-12 11:28:13.283532,2018-10-12 11:28:17.270760,0:00:03.987228,6,left,1,0.4171300477873956,20,m,1,17,2018_Oct_12_1101,MP_PerceptionTuring2,59.94001198699858,
244,resources/videos_generated\model(dmp)-dataset(walking)-npsi(70)_final(8).mov,resources/videos_natural\training(37).mov,False,True,left,0,243,243,243,2018-10-12 11:28:18.804848,2018-10-12 11:28:22.842079,0:00:04.037231,6,left,1,0.20045019472399872,20,m,1,17,2018_Oct_12_1101,MP_PerceptionTuring2,59.94001198699858,
245,resources/videos_generated\model(vcgpdm)-dataset(walking)-mode(ELBO)-parts(1)-dyn(25)-lvm(26)_final(6)_fail.mov,resources/videos_natural\training(16).mov,True,True,left,0,244,244,244,2018-10-12 11:28:24.160154,2018-10-12 11:28:28.230387,0:00:04.070233,6,left,1,0.21720811205887003,20,m,1,17,2018_Oct_12_1101,MP_PerceptionTuring2,59.94001198699858,
246,resources/videos_generated\model(vcgpdm)-dataset(walking)-mode(ELBO)-parts(1)-dyn(25)-lvm(28)_final(0).mov,resources/videos_natural\training(43).mov,False,False,right,0,245,245,245,2018-10-12 11:28:29.564463,2018-10-12 11:28:33.634696,0:00:04.070233,6,right,1,0.2838060910007698,20,m,1,17,2018_Oct_12_1101,MP_PerceptionTuring2,59.94001198699858,
247,resources/videos_generated\model(dmp)-dataset(walking)-npsi(90)_final(4).mov,resources/videos_natural\training(43).mov,True,True,left,0,246,246,246,2018-10-12 11:28:35.035776,2018-10-12 11:28:38.956000,0:00:03.920224,6,left,1,0.2336302205112588,20,m,1,17,2018_Oct_12_1101,MP_PerceptionTuring2,59.94001198699858,
248,resources/videos_generated\model(vcgpdm)-dataset(walking)-mode(ELBO)-parts(2)-dyn(24)-lvm(23)_final(1).mov,resources/videos_natural\training(14).mov,False,False,right,0,247,247,247,2018-10-12 11:28:40.307078,2018-10-12 11:28:44.227302,0:00:03.920224,6,left,0,0.10036860671789327,20,m,1,17,2018_Oct_12_1101,MP_PerceptionTuring2,59.94001198699858,
249,resources/videos_generated\model(vcgpdm)-dataset(walking)-mode(ELBO)-parts(2)-dyn(27)-lvm(22)_final(1).mov,resources/videos_natural\training(35).mov,True,True,left,0,248,248,248,2018-10-12 11:28:45.444371,2018-10-12 11:28:49.514604,0:00:04.070233,6,left,1,0.08350497734954843,20,m,1,17,2018_Oct_12_1101,MP_PerceptionTuring2,59.94001198699858,
250,resources/videos_generated\model(dmp)-dataset(walking)-npsi(90)_final(2).mov,resources/videos_natural\training(43).mov,False,False,right,0,249,249,249,2018-10-12 11:28:50.715673,2018-10-12 11:28:54.685900,0:00:03.970227,6,right,1,0.18384015376705065,20,m,1,17,2018_Oct_12_1101,MP_PerceptionTuring2,59.94001198699858,
251,resources/videos_generated\model(vcgpdm)-dataset(walking)-mode(ELBO)-parts(1)-dyn(22)-lvm(25)_final(2).mov,resources/videos_natural\training(7).mov,False,True,left,0,250,250,250,2018-10-12 11:28:55.986974,2018-10-12 11:28:59.941201,0:00:03.954227,6,left,1,0.05015689653555455,20,m,1,17,2018_Oct_12_1101,MP_PerceptionTuring2,59.94001198699858,
252,resources/videos_generated\model(vcgpdm)-dataset(walking)-mode(ELBO)-parts(2)-dyn(28)-lvm(21)_final(9).mov,resources/videos_natural\training(14).mov,True,False,right,0,251,251,251,2018-10-12 11:29:01.108267,2018-10-12 11:29:05.195501,0:00:04.087234,6,right,1,0.2505299907452354,20,m,1,17,2018_Oct_12_1101,MP_PerceptionTuring2,59.94001198699858,
253,resources/videos_generated\model(vcgpdm)-dataset(walking)-mode(ELBO)-parts(1)-dyn(27)-lvm(22)_final(9).mov,resources/videos_natural\training(9).mov,False,True,left,0,252,252,252,2018-10-12 11:29:06.563579,2018-10-12 11:29:10.549807,0:00:03.986228,6,left,1,0.4339644632891577,20,m,1,17,2018_Oct_12_1101,MP_PerceptionTuring2,59.94001198699858,
254,resources/videos_generated\model(vcgpdm)-dataset(walking)-mode(ELBO)-parts(2)-dyn(27)-lvm(18)_final(1).mov,resources/videos_natural\training(15).mov,False,True,left,0,253,253,253,2018-10-12 11:29:12.100896,2018-10-12 11:29:16.038121,0:00:03.937225,6,right,0,0.2504468667530091,20,m,1,17,2018_Oct_12_1101,MP_PerceptionTuring2,59.94001198699858,
255,resources/videos_generated\model(vcgpdm)-dataset(walking)-mode(ELBO)-parts(2)-dyn(23)-lvm(22)_final(9).mov,resources/videos_natural\training(25).mov,True,False,right,0,254,254,254,2018-10-12 11:29:17.406200,2018-10-12 11:29:21.476432,0:00:04.070232,6,right,1,0.10037854545680602,20,m,1,17,2018_Oct_12_1101,MP_PerceptionTuring2,59.94001198699858,
256,resources/videos_generated\model(vcgpdm)-dataset(walking)-mode(ELBO)-parts(1)-dyn(24)-lvm(27)_final(6).mov,resources/videos_natural\training(48).mov,True,True,left,0,255,255,255,2018-10-12 11:29:22.693502,2018-10-12 11:29:26.713732,0:00:04.020230,6,left,1,0.0502285759203005,20,m,1,17,2018_Oct_12_1101,MP_PerceptionTuring2,59.94001198699858,
257,resources/videos_generated\model(vcgpdm)-dataset(walking)-mode(ELBO)-parts(2)-dyn(22)-lvm(21)_final(1).mov,resources/videos_natural\training(22).mov,True,False,right,0,256,256,256,2018-10-12 11:29:27.881799,2018-10-12 11:29:31.818024,0:00:03.936225,6,left,0,0.2504483726224862,20,m,1,17,2018_Oct_12_1101,MP_PerceptionTuring2,59.94001198699858,
258,resources/videos_generated\model(vcgpdm)-dataset(walking)-mode(ELBO)-parts(2)-dyn(22)-lvm(21)_final(9).mov,resources/videos_natural\training(41).mov,False,False,right,0,257,257,257,2018-10-12 11:29:33.186102,2018-10-12 11:29:37.223333,0:00:04.037231,6,left,0,0.18362541678743582,20,m,1,17,2018_Oct_12_1101,MP_PerceptionTuring2,59.94001198699858,
259,resources/videos_generated\model(vcgpdm)-dataset(walking)-mode(ELBO)-parts(1)-dyn(26)-lvm(27)_final(5).mov,resources/videos_natural\training(45).mov,True,True,left,0,258,258,258,2018-10-12 11:29:38.524407,2018-10-12 11:29:42.610641,0:00:04.086234,6,left,1,0.0002478661081113387,20,m,1,17,2018_Oct_12_1101,MP_PerceptionTuring2,59.94001198699858,
260,resources/videos_generated\model(vcgpdm)-dataset(walking)-mode(ELBO)-parts(1)-dyn(23)-lvm(22)_final(5)_fail.mov,resources/videos_natural\training(40).mov,False,False,right,0,259,259,259,2018-10-12 11:29:43.728705,2018-10-12 11:29:47.681931,0:00:03.953226,6,right,1,0.1837091431270892,20,m,1,17,2018_Oct_12_1101,MP_PerceptionTuring2,59.94001198699858,
261,resources/videos_generated\model(vcgpdm)-dataset(walking)-mode(ELBO)-parts(2)-dyn(26)-lvm(19)_final(7).mov,resources/videos_natural\training(27).mov,True,False,right,0,260,260,260,2018-10-12 11:29:48.983006,2018-10-12 11:29:53.103241,0:00:04.120235,6,right,1,0.300423962478817,20,m,1,17,2018_Oct_12_1101,MP_PerceptionTuring2,59.94001198699858,
262,resources/videos_generated\model(vcgpdm)-dataset(walking)-mode(ELBO)-parts(1)-dyn(25)-lvm(28)_final(8).mov,resources/videos_natural\training(18).mov,False,False,right,0,261,261,261,2018-10-12 11:29:54.521322,2018-10-12 11:29:58.591555,0:00:04.070233,6,right,1,0.18372269595147372,20,m,1,17,2018_Oct_12_1101,MP_PerceptionTuring2,59.94001198699858,
263,resources/videos_generated\model(vcgpdm)-dataset(walking)-mode(ELBO)-parts(2)-dyn(22)-lvm(23)_final(3).mov,resources/videos_natural\training(42).mov,True,True,left,0,262,262,262,2018-10-12 11:29:59.892630,2018-10-12 11:30:03.829855,0:00:03.937225,6,left,1,0.1839567080605775,20,m,1,17,2018_Oct_12_1101,MP_PerceptionTuring2,59.94001198699858,
264,resources/videos_generated\model(vcgpdm)-dataset(walking)-mode(ELBO)-parts(2)-dyn(22)-lvm(17)_final(7).mov,resources/videos_natural\training(13).mov,True,False,right,0,263,263,263,2018-10-12 11:30:05.129929,2018-10-12 11:30:09.067154,0:00:03.937225,6,right,1,0.08368809107287234,20,m,1,17,2018_Oct_12_1101,MP_PerceptionTuring2,59.94001198699858,
265,resources/videos_generated\model(vcgpdm)-dataset(walking)-mode(ELBO)-parts(1)-dyn(25)-lvm(23)_final(0).mov,resources/videos_natural\training(31).mov,True,True,left,0,264,264,264,2018-10-12 11:30:10.268223,2018-10-12 11:30:14.238450,0:00:03.970227,6,left,1,0.18365884708873637,20,m,1,17,2018_Oct_12_1101,MP_PerceptionTuring2,59.94001198699858,
266,resources/videos_generated\model(vcgpdm)-dataset(walking)-mode(ELBO)-parts(2)-dyn(27)-lvm(22)_final(7).mov,resources/videos_natural\training(27).mov,True,True,left,0,265,265,265,2018-10-12 11:30:15.539525,2018-10-12 11:30:19.459749,0:00:03.920224,6,left,1,0.21707559554852196,20,m,1,17,2018_Oct_12_1101,MP_PerceptionTuring2,59.94001198699858,
267,resources/videos_generated\model(dmp)-dataset(walking)-npsi(80)_final(2).mov,resources/videos_natural\training(36).mov,False,False,right,0,266,266,266,2018-10-12 11:30:20.793825,2018-10-12 11:30:24.881059,0:00:04.087234,6,right,1,0.2004697710272012,20,m,1,17,2018_Oct_12_1101,MP_PerceptionTuring2,59.94001198699858,
268,resources/videos_generated\model(vcgpdm)-dataset(walking)-mode(ELBO)-parts(1)-dyn(27)-lvm(24)_final(5).mov,resources/videos_natural\training(1).mov,False,False,right,0,267,267,267,2018-10-12 11:30:26.198134,2018-10-12 11:30:30.319370,0:00:04.121236,6,right,1,0.31718669859492366,20,m,1,17,2018_Oct_12_1101,MP_PerceptionTuring2,59.94001198699858,
269,resources/videos_generated\model(vcgpdm)-dataset(walking)-mode(ELBO)-parts(2)-dyn(23)-lvm(18)_final(5).mov,resources/videos_natural\training(37).mov,False,True,left,0,268,268,268,2018-10-12 11:30:31.753452,2018-10-12 11:30:35.706678,0:00:03.953226,6,left,1,0.5840758524500416,20,m,1,17,2018_Oct_12_1101,MP_PerceptionTuring2,59.94001198699858,
270,resources/videos_generated\model(vcgpdm)-dataset(walking)-mode(ELBO)-parts(2)-dyn(26)-lvm(21)_final(7).mov,resources/videos_natural\training(29).mov,False,True,left,0,269,269,269,2018-10-12 11:30:37.408775,2018-10-12 11:30:41.328000,0:00:03.919225,6,left,1,0.16697622322499228,20,m,1,17,2018_Oct_12_1101,MP_PerceptionTuring2,59.94001198699858,
271,resources/videos_generated\model(vcgpdm)-dataset(walking)-mode(ELBO)-parts(1)-dyn(27)-lvm(24)_final(3).mov,resources/videos_natural\training(3).mov,False,False,right,0,270,270,270,2018-10-12 11:31:14.089873,2018-10-12 11:31:18.077102,0:00:03.987229,7,right,1,0.05015990827450878,20,m,1,17,2018_Oct_12_1101,MP_PerceptionTuring2,59.94001198699858,
272,resources/videos_generated\model(dmp)-dataset(walking)-npsi(70)_final(0).mov,resources/videos_natural\training(9).mov,True,True,left,0,271,271,271,2018-10-12 11:31:19.244168,2018-10-12 11:31:23.331402,0:00:04.087234,7,left,1,0.2337392454574001,20,m,1,17,2018_Oct_12_1101,MP_PerceptionTuring2,59.94001198699858,
273,resources/videos_generated\model(vcgpdm)-dataset(walking)-mode(ELBO)-parts(2)-dyn(26)-lvm(23)_final(7).mov,resources/videos_natural\training(11).mov,False,True,left,0,272,272,272,2018-10-12 11:31:24.682479,2018-10-12 11:31:28.602704,0:00:03.920225,7,left,1,0.2171183622403987,20,m,1,17,2018_Oct_12_1101,MP_PerceptionTuring2,59.94001198699858,
274,resources/videos_generated\model(vcgpdm)-dataset(walking)-mode(ELBO)-parts(2)-dyn(25)-lvm(20)_final(5).mov,resources/videos_natural\training(42).mov,False,False,right,0,273,273,273,2018-10-12 11:31:29.936780,2018-10-12 11:31:33.840003,0:00:03.903223,7,right,1,0.16706506952141353,20,m,1,17,2018_Oct_12_1101,MP_PerceptionTuring2,59.94001198699858,
275,resources/videos_generated\model(vcgpdm)-dataset(walking)-mode(ELBO)-parts(1)-dyn(22)-lvm(22)_final(8).mov,resources/videos_natural\training(23).mov,False,False,right,0,274,274,274,2018-10-12 11:31:35.125077,2018-10-12 11:31:39.045301,0:00:03.920224,7,right,1,0.21724756583716953,20,m,1,17,2018_Oct_12_1101,MP_PerceptionTuring2,59.94001198699858,
276,resources/videos_generated\model(vcgpdm)-dataset(walking)-mode(ELBO)-parts(2)-dyn(22)-lvm(19)_final(3).mov,resources/videos_natural\training(17).mov,False,True,left,0,275,275,275,2018-10-12 11:31:40.379377,2018-10-12 11:31:44.316602,0:00:03.937225,7,left,1,0.08368297111701395,20,m,1,17,2018_Oct_12_1101,MP_PerceptionTuring2,59.94001198699858,
277,resources/videos_generated\model(vcgpdm)-dataset(walking)-mode(ELBO)-parts(2)-dyn(25)-lvm(22)_final(5).mov,resources/videos_natural\training(30).mov,False,True,left,0,276,276,276,2018-10-12 11:31:45.516671,2018-10-12 11:31:49.437895,0:00:03.921224,7,right,0,0.4005166939177798,20,m,1,17,2018_Oct_12_1101,MP_PerceptionTuring2,59.94001198699858,
278,resources/videos_generated\model(tmp)-dataset(walking)-numprim(15)_final(8).mov,resources/videos_natural\training(5).mov,False,True,left,0,277,277,277,2018-10-12 11:31:50.954982,2018-10-12 11:31:54.942210,0:00:03.987228,7,right,0,0.26701052693078964,20,m,1,17,2018_Oct_12_1101,MP_PerceptionTuring2,59.94001198699858,
279,resources/videos_generated\model(dmp)-dataset(walking)-npsi(70)_final(2).mov,resources/videos_natural\training(9).mov,True,False,right,0,278,278,278,2018-10-12 11:31:56.326289,2018-10-12 11:32:00.263514,0:00:03.937225,7,left,0,0.06698137329840392,20,m,1,17,2018_Oct_12_1101,MP_PerceptionTuring2,59.94001198699858,
280,resources/videos_generated\model(vcgpdm)-dataset(walking)-mode(ELBO)-parts(1)-dyn(28)-lvm(25)_final(1).mov,resources/videos_natural\training(35).mov,True,True,left,0,279,279,279,2018-10-12 11:32:01.447582,2018-10-12 11:32:05.334805,0:00:03.887223,7,left,1,0.21704156289979437,20,m,1,17,2018_Oct_12_1101,MP_PerceptionTuring2,59.94001198699858,
281,resources/videos_generated\model(tmp)-dataset(walking)-numprim(14)_final(2).mov,resources/videos_natural\training(42).mov,False,False,right,0,280,280,280,2018-10-12 11:32:06.668881,2018-10-12 11:32:10.589105,0:00:03.920224,7,left,0,0.18375733094853786,20,m,1,17,2018_Oct_12_1101,MP_PerceptionTuring2,59.94001198699858,
282,resources/videos_generated\model(dmp)-dataset(walking)-npsi(80)_final(6).mov,resources/videos_natural\training(33).mov,True,False,right,0,281,281,281,2018-10-12 11:32:11.890179,2018-10-12 11:32:15.793403,0:00:03.903224,7,left,0,0.41723997625558695,20,m,1,17,2018_Oct_12_1101,MP_PerceptionTuring2,59.94001198699858,
283,resources/videos_generated\model(vcgpdm)-dataset(walking)-mode(ELBO)-parts(2)-dyn(23)-lvm(20)_final(7).mov,resources/videos_natural\training(24).mov,True,True,left,0,282,282,282,2018-10-12 11:32:17.327490,2018-10-12 11:32:21.231714,0:00:03.904224,7,left,1,0.26712888826841663,20,m,1,17,2018_Oct_12_1101,MP_PerceptionTuring2,59.94001198699858,
284,resources/videos_generated\model(vcgpdm)-dataset(walking)-mode(ELBO)-parts(2)-dyn(28)-lvm(21)_final(1).mov,resources/videos_natural\training(44).mov,True,True,left,0,283,283,283,2018-10-12 11:32:22.615793,2018-10-12 11:32:26.503015,0:00:03.887222,7,right,0,0.1670960904311869,20,m,1,17,2018_Oct_12_1101,MP_PerceptionTuring2,59.94001198699858,
285,resources/videos_generated\model(vcgpdm)-dataset(walking)-mode(ELBO)-parts(1)-dyn(22)-lvm(23)_final(6)_fail.mov,resources/videos_natural\training(35).mov,False,False,right,0,284,284,284,2018-10-12 11:32:27.787089,2018-10-12 11:32:31.707313,0:00:03.920224,7,right,1,0.15044388513069862,20,m,1,17,2018_Oct_12_1101,MP_PerceptionTuring2,59.94001198699858,
286,resources/videos_generated\model(vcgpdm)-dataset(walking)-mode(ELBO)-parts(2)-dyn(28)-lvm(23)_final(5).mov,resources/videos_natural\training(42).mov,True,False,right,0,285,285,285,2018-10-12 11:32:32.974385,2018-10-12 11:32:36.911611,0:00:03.937226,7,right,1,0.16705452843507373,20,m,1,17,2018_Oct_12_1101,MP_PerceptionTuring2,59.94001198699858,
287,resources/videos_generated\model(vcgpdm)-dataset(walking)-mode(ELBO)-parts(1)-dyn(25)-lvm(24)_final(9).mov,resources/videos_natural\training(31).mov,True,False,right,0,286,286,286,2018-10-12 11:32:38.195684,2018-10-12 11:32:42.082906,0:00:03.887222,7,right,1,0.2338916394428452,20,m,1,17,2018_Oct_12_1101,MP_PerceptionTuring2,59.94001198699858,
288,resources/videos_generated\model(vcgpdm)-dataset(walking)-mode(ELBO)-parts(1)-dyn(24)-lvm(27)_final(8).mov,resources/videos_natural\training(38).mov,True,False,right,0,287,287,287,2018-10-12 11:32:43.433984,2018-10-12 11:32:47.371209,0:00:03.937225,7,right,1,0.2506182346933201,20,m,1,17,2018_Oct_12_1101,MP_PerceptionTuring2,59.94001198699858,
289,resources/videos_generated\model(dmp)-dataset(walking)-npsi(50)_final(4).mov,resources/videos_natural\training(39).mov,True,False,right,0,288,288,288,2018-10-12 11:32:48.738287,2018-10-12 11:32:52.658511,0:00:03.920224,7,right,1,0.20040562098893133,20,m,1,17,2018_Oct_12_1101,MP_PerceptionTuring2,59.94001198699858,
290,resources/videos_generated\model(vcgpdm)-dataset(walking)-mode(ELBO)-parts(2)-dyn(26)-lvm(17)_final(5).mov,resources/videos_natural\training(8).mov,True,False,right,0,289,289,289,2018-10-12 11:32:53.976587,2018-10-12 11:32:57.912812,0:00:03.936225,7,right,1,0.050445722292352,20,m,1,17,2018_Oct_12_1101,MP_PerceptionTuring2,59.94001198699858,
291,resources/videos_generated\model(tmp)-dataset(walking)-numprim(12)_final(8).mov,resources/videos_natural\training(0).mov,False,False,right,0,290,290,290,2018-10-12 11:32:59.080879,2018-10-12 11:33:03.017104,0:00:03.936225,7,left,0,0.23377177223665058,20,m,1,17,2018_Oct_12_1101,MP_PerceptionTuring2,59.94001198699858,
