n_trial,mov_file_generated,mov_file_natural,mirrored,switch_stim_pos,correct_answer,trials.thisRepN,trials.thisTrialN,trials.thisN,trials.thisIndex,stimulus_onset,stimulus_off,stimulus_length,block,response.keys,response.corr,response.rt,age,gender,condition,participant,date,expName,frameRate,
1,resources/videos_generated\model(vcgpdm)-dataset(walking)-mode(ELBO)-parts(1)-dyn(28)-lvm(23)_final(4)_fail.mov,resources/videos_natural\training(18).mov,False,False,right,0,0,0,0,2018-10-29 14:06:28.822622,2018-10-29 14:06:33.476888,0:00:04.654266,1,right,1,1.868471134527681,20,f,2,18,2018_Oct_29_1405,MP_PerceptionTuring2,59.951339825059875,
2,resources/videos_generated\model(tmp)-dataset(walking)-numprim(15)_final(9).mov,resources/videos_natural\training(23).mov,True,False,right,0,1,1,1,2018-10-29 14:06:36.463059,2018-10-29 14:06:40.366282,0:00:03.903223,1,right,1,0.06700436188839376,20,f,2,18,2018_Oct_29_1405,MP_PerceptionTuring2,59.951339825059875,
3,resources/videos_generated\model(vcgpdm)-dataset(walking)-mode(ELBO)-parts(2)-dyn(25)-lvm(18)_final(4).mov,resources/videos_natural\training(36).mov,False,True,left,0,2,2,2,2018-10-29 14:06:41.550350,2018-10-29 14:06:45.637583,0:00:04.087233,1,left,1,0.03362385482796526,20,f,2,18,2018_Oct_29_1405,MP_PerceptionTuring2,59.951339825059875,
4,resources/videos_generated\model(vcgpdm)-dataset(walking)-mode(ELBO)-parts(2)-dyn(24)-lvm(19)_final(6).mov,resources/videos_natural\training(40).mov,True,False,right,0,3,3,3,2018-10-29 14:06:46.855653,2018-10-29 14:06:50.774877,0:00:03.919224,1,left,0,0.40057963751405623,20,f,2,18,2018_Oct_29_1405,MP_PerceptionTuring2,59.951339825059875,
5,resources/videos_generated\model(vcgpdm)-dataset(walking)-mode(ELBO)-parts(2)-dyn(24)-lvm(21)_final(8).mov,resources/videos_natural\training(29).mov,True,False,right,0,4,4,4,2018-10-29 14:06:52.292964,2018-10-29 14:06:56.380198,0:00:04.087234,1,right,1,2.752654463338331,20,f,2,18,2018_Oct_29_1405,MP_PerceptionTuring2,59.951339825059875,
6,resources/videos_generated\model(vcgpdm)-dataset(walking)-mode(ELBO)-parts(1)-dyn(26)-lvm(25)_final(8).mov,resources/videos_natural\training(13).mov,False,True,left,0,5,5,5,2018-10-29 14:07:00.250419,2018-10-29 14:07:04.270649,0:00:04.020230,1,left,1,0.4197032181227769,20,f,2,18,2018_Oct_29_1405,MP_PerceptionTuring2,59.951339825059875,
7,resources/videos_generated\model(vcgpdm)-dataset(walking)-mode(ELBO)-parts(1)-dyn(22)-lvm(23)_final(9).mov,resources/videos_natural\training(46).mov,True,False,right,0,6,6,6,2018-10-29 14:07:05.804737,2018-10-29 14:07:09.907972,0:00:04.103235,1,left,0,0.3840461445197434,20,f,2,18,2018_Oct_29_1405,MP_PerceptionTuring2,59.951339825059875,
8,resources/videos_generated\model(tmp)-dataset(walking)-numprim(12)_final(3).mov,resources/videos_natural\training(1).mov,False,True,left,0,7,7,7,2018-10-29 14:07:11.410057,2018-10-29 14:07:15.496291,0:00:04.086234,1,right,0,0.7339434897094179,20,f,2,18,2018_Oct_29_1405,MP_PerceptionTuring2,59.951339825059875,
9,resources/videos_generated\model(vcgpdm)-dataset(walking)-mode(ELBO)-parts(2)-dyn(24)-lvm(21)_final(4).mov,resources/videos_natural\training(42).mov,False,False,right,0,8,8,8,2018-10-29 14:07:17.348397,2018-10-29 14:07:21.434631,0:00:04.086234,1,right,1,0.5007636240861757,20,f,2,18,2018_Oct_29_1405,MP_PerceptionTuring2,59.951339825059875,
10,resources/videos_generated\model(vcgpdm)-dataset(walking)-mode(ELBO)-parts(2)-dyn(25)-lvm(20)_final(0).mov,resources/videos_natural\training(1).mov,False,False,right,0,9,9,9,2018-10-29 14:07:23.052723,2018-10-29 14:07:27.139957,0:00:04.087234,1,right,1,0.3004549820188913,20,f,2,18,2018_Oct_29_1405,MP_PerceptionTuring2,59.951339825059875,
11,resources/videos_generated\model(tmp)-dataset(walking)-numprim(15)_final(5).mov,resources/videos_natural\training(26).mov,False,False,right,0,10,10,10,2018-10-29 14:07:28.558038,2018-10-29 14:07:32.678274,0:00:04.120236,1,right,1,0.300777839451257,20,f,2,18,2018_Oct_29_1405,MP_PerceptionTuring2,59.951339825059875,
12,resources/videos_generated\model(vcgpdm)-dataset(walking)-mode(ELBO)-parts(1)-dyn(27)-lvm(24)_final(4).mov,resources/videos_natural\training(11).mov,False,True,left,0,11,11,11,2018-10-29 14:07:34.096355,2018-10-29 14:07:38.049581,0:00:03.953226,1,left,1,0.4339544222884797,20,f,2,18,2018_Oct_29_1405,MP_PerceptionTuring2,59.951339825059875,
13,resources/videos_generated\model(vcgpdm)-dataset(walking)-mode(ELBO)-parts(1)-dyn(27)-lvm(24)_final(6).mov,resources/videos_natural\training(6).mov,True,False,right,0,12,12,12,2018-10-29 14:07:39.600670,2018-10-29 14:07:43.520894,0:00:03.920224,1,right,1,0.41743056682844326,20,f,2,18,2018_Oct_29_1405,MP_PerceptionTuring2,59.951339825059875,
14,resources/videos_generated\model(vcgpdm)-dataset(walking)-mode(ELBO)-parts(2)-dyn(23)-lvm(22)_final(0).mov,resources/videos_natural\training(32).mov,True,False,right,0,13,13,13,2018-10-29 14:07:45.054982,2018-10-29 14:07:49.142216,0:00:04.087234,1,right,1,0.567346343805184,20,f,2,18,2018_Oct_29_1405,MP_PerceptionTuring2,59.951339825059875,
15,resources/videos_generated\model(vcgpdm)-dataset(walking)-mode(ELBO)-parts(1)-dyn(24)-lvm(25)_final(3).mov,resources/videos_natural\training(15).mov,True,True,left,0,14,14,14,2018-10-29 14:07:50.827312,2018-10-29 14:07:54.730535,0:00:03.903223,1,right,0,0.4004103782999664,20,f,2,18,2018_Oct_29_1405,MP_PerceptionTuring2,59.951339825059875,
16,resources/videos_generated\model(vcgpdm)-dataset(walking)-mode(ELBO)-parts(1)-dyn(25)-lvm(23)_final(2).mov,resources/videos_natural\training(34).mov,False,True,left,0,15,15,15,2018-10-29 14:07:56.248622,2018-10-29 14:08:00.335856,0:00:04.087234,1,right,0,0.33380717881937017,20,f,2,18,2018_Oct_29_1405,MP_PerceptionTuring2,59.951339825059875,
17,resources/videos_generated\model(vcgpdm)-dataset(walking)-mode(ELBO)-parts(2)-dyn(28)-lvm(21)_final(8).mov,resources/videos_natural\training(13).mov,True,False,right,0,16,16,16,2018-10-29 14:08:01.786939,2018-10-29 14:08:05.857172,0:00:04.070233,1,right,1,0.3506035958253051,20,f,2,18,2018_Oct_29_1405,MP_PerceptionTuring2,59.951339825059875,
18,resources/videos_generated\model(vcgpdm)-dataset(walking)-mode(ELBO)-parts(1)-dyn(25)-lvm(24)_final(2).mov,resources/videos_natural\training(12).mov,False,True,left,0,17,17,17,2018-10-29 14:08:07.324256,2018-10-29 14:08:11.411489,0:00:04.087233,1,left,1,0.36720906916161766,20,f,2,18,2018_Oct_29_1405,MP_PerceptionTuring2,59.951339825059875,
19,resources/videos_generated\model(vcgpdm)-dataset(walking)-mode(ELBO)-parts(1)-dyn(25)-lvm(28)_final(5).mov,resources/videos_natural\training(28).mov,True,False,right,0,18,18,18,2018-10-29 14:08:12.896574,2018-10-29 14:08:16.999809,0:00:04.103235,1,left,0,0.3506442541765864,20,f,2,18,2018_Oct_29_1405,MP_PerceptionTuring2,59.951339825059875,
20,resources/videos_generated\model(vcgpdm)-dataset(walking)-mode(ELBO)-parts(1)-dyn(25)-lvm(25)_final(0).mov,resources/videos_natural\training(34).mov,True,False,right,0,19,19,19,2018-10-29 14:08:18.467893,2018-10-29 14:08:22.571128,0:00:04.103235,1,right,1,0.8342940249394815,20,f,2,18,2018_Oct_29_1405,MP_PerceptionTuring2,59.951339825059875,
21,resources/videos_generated\model(dmp)-dataset(walking)-npsi(90)_final(3).mov,resources/videos_natural\training(39).mov,True,False,right,0,20,20,20,2018-10-29 14:08:24.523239,2018-10-29 14:08:28.626474,0:00:04.103235,1,left,0,0.43394839882876113,20,f,2,18,2018_Oct_29_1405,MP_PerceptionTuring2,59.951339825059875,
22,resources/videos_generated\model(vcgpdm)-dataset(walking)-mode(ELBO)-parts(1)-dyn(22)-lvm(25)_final(7).mov,resources/videos_natural\training(45).mov,True,False,right,0,21,21,21,2018-10-29 14:08:30.177563,2018-10-29 14:08:34.281797,0:00:04.104234,1,right,1,0.8677179009082465,20,f,2,18,2018_Oct_29_1405,MP_PerceptionTuring2,59.951339825059875,
23,resources/videos_generated\model(vcgpdm)-dataset(walking)-mode(ELBO)-parts(1)-dyn(25)-lvm(24)_final(0).mov,resources/videos_natural\training(6).mov,True,True,left,0,22,22,22,2018-10-29 14:08:36.265911,2018-10-29 14:08:40.336144,0:00:04.070233,1,right,0,0.3671666037716932,20,f,2,18,2018_Oct_29_1405,MP_PerceptionTuring2,59.951339825059875,
24,resources/videos_generated\model(vcgpdm)-dataset(walking)-mode(ELBO)-parts(1)-dyn(27)-lvm(24)_final(8).mov,resources/videos_natural\training(29).mov,False,True,left,0,23,23,23,2018-10-29 14:08:41.821229,2018-10-29 14:08:45.724452,0:00:03.903223,1,left,1,0.351671555206849,20,f,2,18,2018_Oct_29_1405,MP_PerceptionTuring2,59.951339825059875,
25,resources/videos_generated\model(vcgpdm)-dataset(walking)-mode(ELBO)-parts(2)-dyn(23)-lvm(20)_final(0).mov,resources/videos_natural\training(38).mov,True,True,left,0,24,24,24,2018-10-29 14:08:47.192536,2018-10-29 14:08:51.262769,0:00:04.070233,1,left,1,0.3504487929139941,20,f,2,18,2018_Oct_29_1405,MP_PerceptionTuring2,59.951339825059875,
26,resources/videos_generated\model(vcgpdm)-dataset(walking)-mode(ELBO)-parts(1)-dyn(22)-lvm(25)_final(1).mov,resources/videos_natural\training(17).mov,False,True,left,0,25,25,25,2018-10-29 14:08:52.730853,2018-10-29 14:08:56.834087,0:00:04.103234,1,left,1,1.2181046521891403,20,f,2,18,2018_Oct_29_1405,MP_PerceptionTuring2,59.951339825059875,
27,resources/videos_generated\model(vcgpdm)-dataset(walking)-mode(ELBO)-parts(1)-dyn(25)-lvm(22)_final(3).mov,resources/videos_natural\training(1).mov,True,True,left,0,26,26,26,2018-10-29 14:08:59.169221,2018-10-29 14:09:03.073444,0:00:03.904223,1,left,1,0.5007009801065578,20,f,2,18,2018_Oct_29_1405,MP_PerceptionTuring2,59.951339825059875,
28,resources/videos_generated\model(vcgpdm)-dataset(walking)-mode(ELBO)-parts(1)-dyn(28)-lvm(27)_final(2).mov,resources/videos_natural\training(20).mov,True,True,left,0,27,27,27,2018-10-29 14:09:04.690537,2018-10-29 14:09:08.777771,0:00:04.087234,1,left,1,0.3172592295204595,20,f,2,18,2018_Oct_29_1405,MP_PerceptionTuring2,59.951339825059875,
29,resources/videos_generated\model(tmp)-dataset(walking)-numprim(11)_final(9).mov,resources/videos_natural\training(35).mov,True,True,left,0,28,28,28,2018-10-29 14:09:10.212853,2018-10-29 14:09:14.333088,0:00:04.120235,1,left,1,0.46732830354449106,20,f,2,18,2018_Oct_29_1405,MP_PerceptionTuring2,59.951339825059875,
30,resources/videos_generated\model(vcgpdm)-dataset(walking)-mode(ELBO)-parts(1)-dyn(27)-lvm(28)_final(2).mov,resources/videos_natural\training(19).mov,False,True,left,0,29,29,29,2018-10-29 14:09:15.917179,2018-10-29 14:09:19.854404,0:00:03.937225,1,left,1,1.117869165036609,20,f,2,18,2018_Oct_29_1405,MP_PerceptionTuring2,59.951339825059875,
31,resources/videos_generated\model(vcgpdm)-dataset(walking)-mode(ELBO)-parts(1)-dyn(27)-lvm(24)_final(2).mov,resources/videos_natural\training(14).mov,True,False,right,0,30,30,30,2018-10-29 14:09:22.089532,2018-10-29 14:09:26.159765,0:00:04.070233,1,left,0,1.6349608821474249,20,f,2,18,2018_Oct_29_1405,MP_PerceptionTuring2,59.951339825059875,
32,resources/videos_generated\model(vcgpdm)-dataset(walking)-mode(ELBO)-parts(2)-dyn(25)-lvm(22)_final(6).mov,resources/videos_natural\training(33).mov,True,True,left,0,31,31,31,2018-10-29 14:09:28.911922,2018-10-29 14:09:32.982155,0:00:04.070233,1,left,1,0.2503798544184974,20,f,2,18,2018_Oct_29_1405,MP_PerceptionTuring2,59.951339825059875,
33,resources/videos_generated\model(vcgpdm)-dataset(walking)-mode(ELBO)-parts(2)-dyn(25)-lvm(18)_final(0).mov,resources/videos_natural\training(14).mov,False,True,left,0,32,32,32,2018-10-29 14:09:34.350233,2018-10-29 14:09:38.436467,0:00:04.086234,1,left,1,0.5673035772424555,20,f,2,18,2018_Oct_29_1405,MP_PerceptionTuring2,59.951339825059875,
34,resources/videos_generated\model(vcgpdm)-dataset(walking)-mode(ELBO)-parts(1)-dyn(27)-lvm(22)_final(4).mov,resources/videos_natural\training(10).mov,True,True,left,0,33,33,33,2018-10-29 14:09:40.121563,2018-10-29 14:09:44.174795,0:00:04.053232,1,right,0,1.0344162409337514,20,f,2,18,2018_Oct_29_1405,MP_PerceptionTuring2,59.951339825059875,
35,resources/videos_generated\model(vcgpdm)-dataset(walking)-mode(ELBO)-parts(2)-dyn(27)-lvm(20)_final(8).mov,resources/videos_natural\training(40).mov,True,True,left,0,34,34,34,2018-10-29 14:09:46.326918,2018-10-29 14:09:50.430153,0:00:04.103235,1,right,0,1.101194723088156,20,f,2,18,2018_Oct_29_1405,MP_PerceptionTuring2,59.951339825059875,
36,resources/videos_generated\model(dmp)-dataset(walking)-npsi(60)_final(7).mov,resources/videos_natural\training(37).mov,False,False,right,0,35,35,35,2018-10-29 14:09:52.649280,2018-10-29 14:09:56.735514,0:00:04.086234,1,right,1,1.6850408285145022,20,f,2,18,2018_Oct_29_1405,MP_PerceptionTuring2,59.951339825059875,
37,resources/videos_generated\model(vcgpdm)-dataset(walking)-mode(ELBO)-parts(1)-dyn(27)-lvm(26)_final(0).mov,resources/videos_natural\training(31).mov,False,False,right,0,36,36,36,2018-10-29 14:09:59.538674,2018-10-29 14:10:03.641909,0:00:04.103235,1,right,1,1.10147150105513,20,f,2,18,2018_Oct_29_1405,MP_PerceptionTuring2,59.951339825059875,
38,resources/videos_generated\model(vcgpdm)-dataset(walking)-mode(ELBO)-parts(1)-dyn(26)-lvm(25)_final(4).mov,resources/videos_natural\training(0).mov,False,True,left,0,37,37,37,2018-10-29 14:10:05.861036,2018-10-29 14:10:09.964270,0:00:04.103234,1,left,1,0.3839051955656032,20,f,2,18,2018_Oct_29_1405,MP_PerceptionTuring2,59.951339825059875,
39,resources/videos_generated\model(vcgpdm)-dataset(walking)-mode(ELBO)-parts(2)-dyn(27)-lvm(20)_final(2).mov,resources/videos_natural\training(1).mov,True,False,right,0,38,38,38,2018-10-29 14:10:11.465356,2018-10-29 14:10:15.385580,0:00:03.920224,1,right,1,0.48413074400832556,20,f,2,18,2018_Oct_29_1405,MP_PerceptionTuring2,59.951339825059875,
40,resources/videos_generated\model(tmp)-dataset(walking)-numprim(15)_final(1).mov,resources/videos_natural\training(0).mov,False,False,right,0,39,39,39,2018-10-29 14:10:16.986672,2018-10-29 14:10:21.073906,0:00:04.087234,1,left,0,0.6340263423953729,20,f,2,18,2018_Oct_29_1405,MP_PerceptionTuring2,59.951339825059875,
41,resources/videos_generated\model(vcgpdm)-dataset(walking)-mode(ELBO)-parts(2)-dyn(28)-lvm(21)_final(6).mov,resources/videos_natural\training(10).mov,True,True,left,0,40,40,40,2018-10-29 14:10:22.825006,2018-10-29 14:10:26.745230,0:00:03.920224,1,left,1,0.4838807704363717,20,f,2,18,2018_Oct_29_1405,MP_PerceptionTuring2,59.951339825059875,
42,resources/videos_generated\model(vcgpdm)-dataset(walking)-mode(ELBO)-parts(2)-dyn(28)-lvm(21)_final(4).mov,resources/videos_natural\training(1).mov,False,False,right,0,41,41,41,2018-10-29 14:10:28.346322,2018-10-29 14:10:32.450556,0:00:04.104234,1,right,1,0.4006287287102168,20,f,2,18,2018_Oct_29_1405,MP_PerceptionTuring2,59.951339825059875,
43,resources/videos_generated\model(vcgpdm)-dataset(walking)-mode(ELBO)-parts(1)-dyn(28)-lvm(27)_final(4).mov,resources/videos_natural\training(8).mov,False,True,left,0,42,42,42,2018-10-29 14:10:33.968643,2018-10-29 14:10:38.088879,0:00:04.120236,1,right,0,2.5857519280343695,20,f,2,18,2018_Oct_29_1405,MP_PerceptionTuring2,59.951339825059875,
44,resources/videos_generated\model(vcgpdm)-dataset(walking)-mode(ELBO)-parts(2)-dyn(26)-lvm(17)_final(4).mov,resources/videos_natural\training(4).mov,True,False,right,0,43,43,43,2018-10-29 14:10:41.792091,2018-10-29 14:10:45.828322,0:00:04.036231,1,left,0,0.7509221163663824,20,f,2,18,2018_Oct_29_1405,MP_PerceptionTuring2,59.951339825059875,
45,resources/videos_generated\model(vcgpdm)-dataset(walking)-mode(ELBO)-parts(1)-dyn(27)-lvm(26)_final(8).mov,resources/videos_natural\training(47).mov,True,True,left,0,44,44,44,2018-10-29 14:10:47.696428,2018-10-29 14:10:51.766661,0:00:04.070233,1,left,1,0.33401348230927397,20,f,2,18,2018_Oct_29_1405,MP_PerceptionTuring2,59.951339825059875,
46,resources/videos_generated\model(vcgpdm)-dataset(walking)-mode(ELBO)-parts(1)-dyn(24)-lvm(25)_final(7).mov,resources/videos_natural\training(10).mov,False,True,left,0,45,45,45,2018-10-29 14:11:25.112568,2018-10-29 14:11:29.215803,0:00:04.103235,2,right,0,0.5173567493320661,20,f,2,18,2018_Oct_29_1405,MP_PerceptionTuring2,59.951339825059875,
47,resources/videos_generated\model(vcgpdm)-dataset(walking)-mode(ELBO)-parts(2)-dyn(23)-lvm(22)_final(8).mov,resources/videos_natural\training(15).mov,False,True,left,0,46,46,46,2018-10-29 14:11:30.850897,2018-10-29 14:11:34.754120,0:00:03.903223,2,left,1,0.38401572604834655,20,f,2,18,2018_Oct_29_1405,MP_PerceptionTuring2,59.951339825059875,
48,resources/videos_generated\model(vcgpdm)-dataset(walking)-mode(ELBO)-parts(1)-dyn(22)-lvm(27)_final(5)_fail.mov,resources/videos_natural\training(28).mov,False,True,left,0,47,47,47,2018-10-29 14:11:36.255206,2018-10-29 14:11:40.342440,0:00:04.087234,2,left,1,0.40057030115167436,20,f,2,18,2018_Oct_29_1405,MP_PerceptionTuring2,59.951339825059875,
49,resources/videos_generated\model(vcgpdm)-dataset(walking)-mode(ELBO)-parts(2)-dyn(28)-lvm(23)_final(4)_fail.mov,resources/videos_natural\training(25).mov,True,True,left,0,48,48,48,2018-10-29 14:11:41.860526,2018-10-29 14:11:45.946760,0:00:04.086234,2,left,1,0.5672087077537071,20,f,2,18,2018_Oct_29_1405,MP_PerceptionTuring2,59.951339825059875,
50,resources/videos_generated\model(tmp)-dataset(walking)-numprim(12)_final(5).mov,resources/videos_natural\training(45).mov,True,False,right,0,49,49,49,2018-10-29 14:11:47.631856,2018-10-29 14:11:51.735091,0:00:04.103235,2,right,1,0.36735845095881814,20,f,2,18,2018_Oct_29_1405,MP_PerceptionTuring2,59.951339825059875,
51,resources/videos_generated\model(tmp)-dataset(walking)-numprim(12)_final(7).mov,resources/videos_natural\training(24).mov,True,False,right,0,50,50,50,2018-10-29 14:11:53.220176,2018-10-29 14:11:57.290409,0:00:04.070233,2,right,1,0.5841138482046517,20,f,2,18,2018_Oct_29_1405,MP_PerceptionTuring2,59.951339825059875,
52,resources/videos_generated\model(vcgpdm)-dataset(walking)-mode(ELBO)-parts(1)-dyn(25)-lvm(26)_final(5).mov,resources/videos_natural\training(5).mov,True,False,right,0,51,51,51,2018-10-29 14:11:58.991506,2018-10-29 14:12:03.078740,0:00:04.087234,2,right,1,0.48419670089151623,20,f,2,18,2018_Oct_29_1405,MP_PerceptionTuring2,59.951339825059875,
53,resources/videos_generated\model(vcgpdm)-dataset(walking)-mode(ELBO)-parts(2)-dyn(24)-lvm(17)_final(6).mov,resources/videos_natural\training(11).mov,False,False,right,0,52,52,52,2018-10-29 14:12:04.679832,2018-10-29 14:12:08.583055,0:00:03.903223,2,left,0,0.36726689437364257,20,f,2,18,2018_Oct_29_1405,MP_PerceptionTuring2,59.951339825059875,
54,resources/videos_generated\model(vcgpdm)-dataset(walking)-mode(ELBO)-parts(1)-dyn(28)-lvm(25)_final(8).mov,resources/videos_natural\training(13).mov,False,True,left,0,53,53,53,2018-10-29 14:12:10.068140,2018-10-29 14:12:14.205376,0:00:04.137236,2,left,1,0.4840560531101801,20,f,2,18,2018_Oct_29_1405,MP_PerceptionTuring2,59.951339825059875,
55,resources/videos_generated\model(vcgpdm)-dataset(walking)-mode(ELBO)-parts(2)-dyn(27)-lvm(18)_final(0).mov,resources/videos_natural\training(41).mov,False,False,right,0,54,54,54,2018-10-29 14:12:15.806468,2018-10-29 14:12:19.909703,0:00:04.103235,2,left,0,0.3672446075734115,20,f,2,18,2018_Oct_29_1405,MP_PerceptionTuring2,59.951339825059875,
56,resources/videos_generated\model(vcgpdm)-dataset(walking)-mode(ELBO)-parts(1)-dyn(23)-lvm(26)_final(8)_hip-corrected.mov,resources/videos_natural\training(21).mov,False,True,left,0,55,55,55,2018-10-29 14:12:21.394788,2018-10-29 14:12:25.498022,0:00:04.103234,2,left,1,0.35053462721225515,20,f,2,18,2018_Oct_29_1405,MP_PerceptionTuring2,59.951339825059875,
57,resources/videos_generated\model(vcgpdm)-dataset(walking)-mode(ELBO)-parts(2)-dyn(22)-lvm(19)_final(0).mov,resources/videos_natural\training(27).mov,False,False,right,0,56,56,56,2018-10-29 14:12:26.966106,2018-10-29 14:12:31.069341,0:00:04.103235,2,right,1,0.4339182815310778,20,f,2,18,2018_Oct_29_1405,MP_PerceptionTuring2,59.951339825059875,
58,resources/videos_generated\model(vcgpdm)-dataset(walking)-mode(ELBO)-parts(2)-dyn(24)-lvm(21)_final(6).mov,resources/videos_natural\training(43).mov,True,False,right,0,57,57,57,2018-10-29 14:12:32.621430,2018-10-29 14:12:36.724664,0:00:04.103234,2,right,1,0.4839913009200245,20,f,2,18,2018_Oct_29_1405,MP_PerceptionTuring2,59.951339825059875,
59,resources/videos_generated\model(vcgpdm)-dataset(walking)-mode(ELBO)-parts(1)-dyn(23)-lvm(28)_final(9).mov,resources/videos_natural\training(37).mov,False,False,right,0,58,58,58,2018-10-29 14:12:38.325756,2018-10-29 14:12:42.262981,0:00:03.937225,2,left,0,0.5340751625353732,20,f,2,18,2018_Oct_29_1405,MP_PerceptionTuring2,59.951339825059875,
60,resources/videos_generated\model(vcgpdm)-dataset(walking)-mode(ELBO)-parts(2)-dyn(22)-lvm(21)_final(0).mov,resources/videos_natural\training(12).mov,False,False,right,0,59,59,59,2018-10-29 14:12:43.914076,2018-10-29 14:12:47.834300,0:00:03.920224,2,left,0,0.4162445476395078,20,f,2,18,2018_Oct_29_1405,MP_PerceptionTuring2,59.951339825059875,
61,resources/videos_generated\model(vcgpdm)-dataset(walking)-mode(ELBO)-parts(1)-dyn(22)-lvm(23)_final(1).mov,resources/videos_natural\training(39).mov,True,True,left,0,60,60,60,2018-10-29 14:12:49.368388,2018-10-29 14:12:53.272611,0:00:03.904223,2,left,1,0.3339902919897213,20,f,2,18,2018_Oct_29_1405,MP_PerceptionTuring2,59.951339825059875,
62,resources/videos_generated\model(vcgpdm)-dataset(walking)-mode(ELBO)-parts(1)-dyn(23)-lvm(22)_final(8)_fail.mov,resources/videos_natural\training(20).mov,True,True,left,0,61,61,61,2018-10-29 14:12:54.723694,2018-10-29 14:12:58.793927,0:00:04.070233,2,left,1,0.7007358559385466,20,f,2,18,2018_Oct_29_1405,MP_PerceptionTuring2,59.951339825059875,
63,resources/videos_generated\model(vcgpdm)-dataset(walking)-mode(ELBO)-parts(2)-dyn(28)-lvm(21)_final(0).mov,resources/videos_natural\training(35).mov,True,True,left,0,62,62,62,2018-10-29 14:13:00.612031,2018-10-29 14:13:04.715265,0:00:04.103234,2,left,1,0.700853012227526,20,f,2,18,2018_Oct_29_1405,MP_PerceptionTuring2,59.951339825059875,
64,resources/videos_generated\model(tmp)-dataset(walking)-numprim(11)_final(5).mov,resources/videos_natural\training(41).mov,False,False,right,0,63,63,63,2018-10-29 14:13:06.533369,2018-10-29 14:13:10.603602,0:00:04.070233,2,right,1,0.3173056101595648,20,f,2,18,2018_Oct_29_1405,MP_PerceptionTuring2,59.951339825059875,
65,resources/videos_generated\model(vcgpdm)-dataset(walking)-mode(ELBO)-parts(2)-dyn(24)-lvm(23)_final(0).mov,resources/videos_natural\training(42).mov,True,True,left,0,64,64,64,2018-10-29 14:13:12.038684,2018-10-29 14:13:16.058914,0:00:04.020230,2,left,1,0.5173459071047546,20,f,2,18,2018_Oct_29_1405,MP_PerceptionTuring2,59.951339825059875,
66,resources/videos_generated\model(vcgpdm)-dataset(walking)-mode(ELBO)-parts(2)-dyn(25)-lvm(20)_final(4).mov,resources/videos_natural\training(31).mov,False,False,right,0,65,65,65,2018-10-29 14:13:17.693008,2018-10-29 14:13:21.780241,0:00:04.087233,2,right,1,1.3346679311925982,20,f,2,18,2018_Oct_29_1405,MP_PerceptionTuring2,59.951339825059875,
67,resources/videos_generated\model(dmp)-dataset(walking)-npsi(50)_final(7).mov,resources/videos_natural\training(27).mov,False,True,left,0,66,66,66,2018-10-29 14:13:24.232382,2018-10-29 14:13:28.318615,0:00:04.086233,2,right,0,1.0510409893413453,20,f,2,18,2018_Oct_29_1405,MP_PerceptionTuring2,59.951339825059875,
68,resources/videos_generated\model(vcgpdm)-dataset(walking)-mode(ELBO)-parts(2)-dyn(23)-lvm(20)_final(4).mov,resources/videos_natural\training(21).mov,False,False,right,0,67,67,67,2018-10-29 14:13:30.487739,2018-10-29 14:13:34.590974,0:00:04.103235,2,left,0,0.5006669475606031,20,f,2,18,2018_Oct_29_1405,MP_PerceptionTuring2,59.951339825059875,
69,resources/videos_generated\model(vcgpdm)-dataset(walking)-mode(ELBO)-parts(2)-dyn(22)-lvm(17)_final(6).mov,resources/videos_natural\training(29).mov,True,True,left,0,68,68,68,2018-10-29 14:13:36.209067,2018-10-29 14:13:40.313301,0:00:04.104234,2,right,0,0.6174844165579998,20,f,2,18,2018_Oct_29_1405,MP_PerceptionTuring2,59.951339825059875,
70,resources/videos_generated\model(vcgpdm)-dataset(walking)-mode(ELBO)-parts(2)-dyn(28)-lvm(17)_final(4).mov,resources/videos_natural\training(15).mov,False,True,left,0,69,69,69,2018-10-29 14:13:42.047401,2018-10-29 14:13:46.151635,0:00:04.104234,2,left,1,0.6508844998625136,20,f,2,18,2018_Oct_29_1405,MP_PerceptionTuring2,59.951339825059875,
71,resources/videos_generated\model(vcgpdm)-dataset(walking)-mode(ELBO)-parts(2)-dyn(22)-lvm(19)_final(4).mov,resources/videos_natural\training(0).mov,True,False,right,0,70,70,70,2018-10-29 14:13:47.919737,2018-10-29 14:13:52.005970,0:00:04.086233,2,right,1,0.3671732295770198,20,f,2,18,2018_Oct_29_1405,MP_PerceptionTuring2,59.951339825059875,
72,resources/videos_generated\model(vcgpdm)-dataset(walking)-mode(ELBO)-parts(1)-dyn(22)-lvm(22)_final(3).mov,resources/videos_natural\training(24).mov,False,True,left,0,71,71,71,2018-10-29 14:13:53.491055,2018-10-29 14:13:57.611291,0:00:04.120236,2,left,1,0.4841202029547276,20,f,2,18,2018_Oct_29_1405,MP_PerceptionTuring2,59.951339825059875,
73,resources/videos_generated\model(vcgpdm)-dataset(walking)-mode(ELBO)-parts(1)-dyn(23)-lvm(27)_final(0).mov,resources/videos_natural\training(24).mov,False,False,right,0,72,72,72,2018-10-29 14:13:59.212382,2018-10-29 14:14:03.315617,0:00:04.103235,2,left,0,0.3839425410151307,20,f,2,18,2018_Oct_29_1405,MP_PerceptionTuring2,59.951339825059875,
74,resources/videos_generated\model(vcgpdm)-dataset(walking)-mode(ELBO)-parts(2)-dyn(27)-lvm(22)_final(4).mov,resources/videos_natural\training(17).mov,False,True,left,0,73,73,73,2018-10-29 14:14:04.817703,2018-10-29 14:14:08.903937,0:00:04.086234,2,left,1,0.3839070026042464,20,f,2,18,2018_Oct_29_1405,MP_PerceptionTuring2,59.951339825059875,
75,resources/videos_generated\model(vcgpdm)-dataset(walking)-mode(ELBO)-parts(1)-dyn(27)-lvm(22)_final(6).mov,resources/videos_natural\training(4).mov,True,False,right,0,74,74,74,2018-10-29 14:14:10.405023,2018-10-29 14:14:14.475255,0:00:04.070232,2,right,1,0.3674521157554409,20,f,2,18,2018_Oct_29_1405,MP_PerceptionTuring2,59.951339825059875,
76,resources/videos_generated\model(vcgpdm)-dataset(walking)-mode(ELBO)-parts(2)-dyn(22)-lvm(21)_final(4).mov,resources/videos_natural\training(21).mov,True,False,right,0,75,75,75,2018-10-29 14:14:15.960340,2018-10-29 14:14:19.897566,0:00:03.937226,2,right,1,0.4342589081697952,20,f,2,18,2018_Oct_29_1405,MP_PerceptionTuring2,59.951339825059875,
77,resources/videos_generated\model(vcgpdm)-dataset(walking)-mode(ELBO)-parts(2)-dyn(24)-lvm(21)_final(2).mov,resources/videos_natural\training(5).mov,False,False,right,0,76,76,76,2018-10-29 14:14:21.448654,2018-10-29 14:14:25.401880,0:00:03.953226,2,right,1,0.36728255536945653,20,f,2,18,2018_Oct_29_1405,MP_PerceptionTuring2,59.951339825059875,
78,resources/videos_generated\model(vcgpdm)-dataset(walking)-mode(ELBO)-parts(1)-dyn(26)-lvm(22)_final(2).mov,resources/videos_natural\training(21).mov,False,True,left,0,77,77,77,2018-10-29 14:14:26.885965,2018-10-29 14:14:30.773188,0:00:03.887223,2,right,0,0.40048265981567965,20,f,2,18,2018_Oct_29_1405,MP_PerceptionTuring2,59.951339825059875,
79,resources/videos_generated\model(vcgpdm)-dataset(walking)-mode(ELBO)-parts(1)-dyn(22)-lvm(27)_final(9)_hip-corrected.mov,resources/videos_natural\training(6).mov,True,False,right,0,78,78,78,2018-10-29 14:14:32.291274,2018-10-29 14:14:36.194498,0:00:03.903224,2,right,1,0.45053971703600837,20,f,2,18,2018_Oct_29_1405,MP_PerceptionTuring2,59.951339825059875,
80,resources/videos_generated\model(vcgpdm)-dataset(walking)-mode(ELBO)-parts(2)-dyn(23)-lvm(22)_final(4).mov,resources/videos_natural\training(2).mov,True,True,left,0,79,79,79,2018-10-29 14:14:37.762587,2018-10-29 14:14:41.698813,0:00:03.936226,2,left,1,0.30049142394818773,20,f,2,18,2018_Oct_29_1405,MP_PerceptionTuring2,59.951339825059875,
81,resources/videos_generated\model(vcgpdm)-dataset(walking)-mode(ELBO)-parts(1)-dyn(26)-lvm(25)_final(2).mov,resources/videos_natural\training(16).mov,True,True,left,0,80,80,80,2018-10-29 14:14:43.116894,2018-10-29 14:14:47.020117,0:00:03.903223,2,left,1,0.5007597088388138,20,f,2,18,2018_Oct_29_1405,MP_PerceptionTuring2,59.951339825059875,
82,resources/videos_generated\model(vcgpdm)-dataset(walking)-mode(ELBO)-parts(1)-dyn(22)-lvm(22)_final(5).mov,resources/videos_natural\training(34).mov,False,True,left,0,81,81,81,2018-10-29 14:14:48.638209,2018-10-29 14:14:52.742444,0:00:04.104235,2,right,0,0.6341404869544931,20,f,2,18,2018_Oct_29_1405,MP_PerceptionTuring2,59.951339825059875,
83,resources/videos_generated\model(vcgpdm)-dataset(walking)-mode(ELBO)-parts(1)-dyn(27)-lvm(28)_final(0).mov,resources/videos_natural\training(27).mov,False,True,left,0,82,82,82,2018-10-29 14:14:54.493544,2018-10-29 14:14:58.396768,0:00:03.903224,2,left,1,0.4340806137661275,20,f,2,18,2018_Oct_29_1405,MP_PerceptionTuring2,59.951339825059875,
84,resources/videos_generated\model(dmp)-dataset(walking)-npsi(80)_final(5).mov,resources/videos_natural\training(16).mov,True,False,right,0,83,83,83,2018-10-29 14:14:59.947856,2018-10-29 14:15:04.052091,0:00:04.104235,2,left,0,0.4341095263716852,20,f,2,18,2018_Oct_29_1405,MP_PerceptionTuring2,59.951339825059875,
85,resources/videos_generated\model(vcgpdm)-dataset(walking)-mode(ELBO)-parts(2)-dyn(26)-lvm(23)_final(8).mov,resources/videos_natural\training(19).mov,False,True,left,0,84,84,84,2018-10-29 14:15:05.603180,2018-10-29 14:15:09.707415,0:00:04.104235,2,right,0,0.41727757095395646,20,f,2,18,2018_Oct_29_1405,MP_PerceptionTuring2,59.951339825059875,
86,resources/videos_generated\model(vcgpdm)-dataset(walking)-mode(ELBO)-parts(1)-dyn(25)-lvm(24)_final(6).mov,resources/videos_natural\training(29).mov,False,False,right,0,85,85,85,2018-10-29 14:15:11.241502,2018-10-29 14:15:15.328736,0:00:04.087234,2,right,1,0.35046927267649153,20,f,2,18,2018_Oct_29_1405,MP_PerceptionTuring2,59.951339825059875,
87,resources/videos_generated\model(dmp)-dataset(walking)-npsi(80)_final(9).mov,resources/videos_natural\training(18).mov,False,False,right,0,86,86,86,2018-10-29 14:15:16.795820,2018-10-29 14:15:20.750046,0:00:03.954226,2,left,0,0.283836257071016,20,f,2,18,2018_Oct_29_1405,MP_PerceptionTuring2,59.951339825059875,
88,resources/videos_generated\model(vcgpdm)-dataset(walking)-mode(ELBO)-parts(2)-dyn(27)-lvm(18)_final(8).mov,resources/videos_natural\training(0).mov,False,False,right,0,87,87,87,2018-10-29 14:15:22.151126,2018-10-29 14:15:26.171356,0:00:04.020230,2,left,0,0.4172986530647904,20,f,2,18,2018_Oct_29_1405,MP_PerceptionTuring2,59.951339825059875,
89,resources/videos_generated\model(vcgpdm)-dataset(walking)-mode(ELBO)-parts(2)-dyn(26)-lvm(21)_final(6).mov,resources/videos_natural\training(6).mov,False,False,right,0,88,88,88,2018-10-29 14:15:27.705444,2018-10-29 14:15:31.642669,0:00:03.937225,2,left,0,0.8343593794743356,20,f,2,18,2018_Oct_29_1405,MP_PerceptionTuring2,59.951339825059875,
90,resources/videos_generated\model(tmp)-dataset(walking)-numprim(13)_final(1).mov,resources/videos_natural\training(30).mov,False,True,left,0,89,89,89,2018-10-29 14:15:33.593781,2018-10-29 14:15:37.531006,0:00:03.937225,2,right,0,0.4503915399291145,20,f,2,18,2018_Oct_29_1405,MP_PerceptionTuring2,59.951339825059875,
91,resources/videos_generated\model(dmp)-dataset(walking)-npsi(50)_final(9).mov,resources/videos_natural\training(40).mov,True,True,left,0,90,90,90,2018-10-29 14:16:10.258878,2018-10-29 14:16:14.179102,0:00:03.920224,3,left,1,0.33388909786845034,20,f,2,18,2018_Oct_29_1405,MP_PerceptionTuring2,59.951339825059875,
92,resources/videos_generated\model(vcgpdm)-dataset(walking)-mode(ELBO)-parts(1)-dyn(28)-lvm(23)_final(6)_fail.mov,resources/videos_natural\training(43).mov,True,True,left,0,91,91,91,2018-10-29 14:16:15.630185,2018-10-29 14:16:19.533408,0:00:03.903223,3,left,1,0.3338972295405256,20,f,2,18,2018_Oct_29_1405,MP_PerceptionTuring2,59.951339825059875,
93,resources/videos_generated\model(vcgpdm)-dataset(walking)-mode(ELBO)-parts(1)-dyn(26)-lvm(23)_final(8).mov,resources/videos_natural\training(0).mov,True,False,right,0,92,92,92,2018-10-29 14:16:20.985491,2018-10-29 14:16:24.905716,0:00:03.920225,3,right,1,0.30040619199644425,20,f,2,18,2018_Oct_29_1405,MP_PerceptionTuring2,59.951339825059875,
94,resources/videos_generated\model(vcgpdm)-dataset(walking)-mode(ELBO)-parts(2)-dyn(25)-lvm(22)_final(8).mov,resources/videos_natural\training(24).mov,False,False,right,0,93,93,93,2018-10-29 14:16:26.322797,2018-10-29 14:16:30.427031,0:00:04.104234,3,left,0,0.3171631553414045,20,f,2,18,2018_Oct_29_1405,MP_PerceptionTuring2,59.951339825059875,
95,resources/videos_generated\model(vcgpdm)-dataset(walking)-mode(ELBO)-parts(2)-dyn(24)-lvm(21)_final(0).mov,resources/videos_natural\training(3).mov,False,True,left,0,94,94,94,2018-10-29 14:16:31.861113,2018-10-29 14:16:35.964348,0:00:04.103235,3,left,1,0.4504758683651744,20,f,2,18,2018_Oct_29_1405,MP_PerceptionTuring2,59.951339825059875,
96,resources/videos_generated\model(vcgpdm)-dataset(walking)-mode(ELBO)-parts(1)-dyn(25)-lvm(22)_final(1).mov,resources/videos_natural\training(31).mov,True,True,left,0,95,95,95,2018-10-29 14:16:37.532438,2018-10-29 14:16:41.469663,0:00:03.937225,3,left,1,0.4506909058709425,20,f,2,18,2018_Oct_29_1405,MP_PerceptionTuring2,59.951339825059875,
97,resources/videos_generated\model(vcgpdm)-dataset(walking)-mode(ELBO)-parts(2)-dyn(24)-lvm(23)_final(6).mov,resources/videos_natural\training(5).mov,False,True,left,0,96,96,96,2018-10-29 14:16:43.037753,2018-10-29 14:16:46.973978,0:00:03.936225,3,left,1,1.2513686053080164,20,f,2,18,2018_Oct_29_1405,MP_PerceptionTuring2,59.951339825059875,
98,resources/videos_generated\model(vcgpdm)-dataset(walking)-mode(ELBO)-parts(2)-dyn(24)-lvm(23)_final(4).mov,resources/videos_natural\training(6).mov,True,False,right,0,97,97,97,2018-10-29 14:16:49.344113,2018-10-29 14:16:53.446348,0:00:04.102235,3,right,1,1.2180173120250402,20,f,2,18,2018_Oct_29_1405,MP_PerceptionTuring2,59.951339825059875,
99,resources/videos_generated\model(vcgpdm)-dataset(walking)-mode(ELBO)-parts(2)-dyn(22)-lvm(19)_final(2).mov,resources/videos_natural\training(7).mov,False,False,right,0,98,98,98,2018-10-29 14:16:55.781482,2018-10-29 14:16:59.718707,0:00:03.937225,3,right,1,0.36731146797501424,20,f,2,18,2018_Oct_29_1405,MP_PerceptionTuring2,59.951339825059875,
100,resources/videos_generated\model(tmp)-dataset(walking)-numprim(14)_final(7).mov,resources/videos_natural\training(13).mov,True,False,right,0,99,99,99,2018-10-29 14:17:01.202792,2018-10-29 14:17:05.107015,0:00:03.904223,3,left,0,0.3004805817217857,20,f,2,18,2018_Oct_29_1405,MP_PerceptionTuring2,59.951339825059875,
101,resources/videos_generated\model(vcgpdm)-dataset(walking)-mode(ELBO)-parts(1)-dyn(22)-lvm(23)_final(7).mov,resources/videos_natural\training(46).mov,False,False,right,0,100,100,100,2018-10-29 14:17:06.524096,2018-10-29 14:17:10.444320,0:00:03.920224,3,left,0,0.35054878234222997,20,f,2,18,2018_Oct_29_1405,MP_PerceptionTuring2,59.951339825059875,
102,resources/videos_generated\model(vcgpdm)-dataset(walking)-mode(ELBO)-parts(1)-dyn(22)-lvm(25)_final(3).mov,resources/videos_natural\training(30).mov,False,False,right,0,101,101,101,2018-10-29 14:17:11.912404,2018-10-29 14:17:15.999638,0:00:04.087234,3,right,1,0.3339990260064951,20,f,2,18,2018_Oct_29_1405,MP_PerceptionTuring2,59.951339825059875,
103,resources/videos_generated\model(vcgpdm)-dataset(walking)-mode(ELBO)-parts(1)-dyn(24)-lvm(23)_final(7).mov,resources/videos_natural\training(36).mov,True,False,right,0,102,102,102,2018-10-29 14:17:17.450721,2018-10-29 14:17:21.336943,0:00:03.886222,3,right,1,0.30053328699250415,20,f,2,18,2018_Oct_29_1405,MP_PerceptionTuring2,59.951339825059875,
104,resources/videos_generated\model(vcgpdm)-dataset(walking)-mode(ELBO)-parts(2)-dyn(26)-lvm(17)_final(0).mov,resources/videos_natural\training(47).mov,True,True,left,0,103,103,103,2018-10-29 14:17:22.755024,2018-10-29 14:17:26.875260,0:00:04.120236,3,right,0,0.41726251230829803,20,f,2,18,2018_Oct_29_1405,MP_PerceptionTuring2,59.951339825059875,
105,resources/videos_generated\model(vcgpdm)-dataset(walking)-mode(ELBO)-parts(1)-dyn(28)-lvm(27)_final(8).mov,resources/videos_natural\training(44).mov,True,True,left,0,104,104,104,2018-10-29 14:17:28.410348,2018-10-29 14:17:32.496582,0:00:04.086234,3,right,0,0.5508637490438559,20,f,2,18,2018_Oct_29_1405,MP_PerceptionTuring2,59.951339825059875,
106,resources/videos_generated\model(vcgpdm)-dataset(walking)-mode(ELBO)-parts(1)-dyn(23)-lvm(24)_final(4).mov,resources/videos_natural\training(23).mov,False,False,right,0,105,105,105,2018-10-29 14:17:34.164677,2018-10-29 14:17:38.268912,0:00:04.104235,3,right,1,0.4506725343180733,20,f,2,18,2018_Oct_29_1405,MP_PerceptionTuring2,59.951339825059875,
107,resources/videos_generated\model(vcgpdm)-dataset(walking)-mode(ELBO)-parts(1)-dyn(22)-lvm(23)_final(5).mov,resources/videos_natural\training(17).mov,False,True,left,0,106,106,106,2018-10-29 14:17:39.837001,2018-10-29 14:17:43.890233,0:00:04.053232,3,left,1,0.4506562709775608,20,f,2,18,2018_Oct_29_1405,MP_PerceptionTuring2,59.951339825059875,
108,resources/videos_generated\model(vcgpdm)-dataset(walking)-mode(ELBO)-parts(2)-dyn(27)-lvm(22)_final(8).mov,resources/videos_natural\training(42).mov,False,True,left,0,107,107,107,2018-10-29 14:17:45.458323,2018-10-29 14:17:49.378547,0:00:03.920224,3,left,1,0.46727258654209436,20,f,2,18,2018_Oct_29_1405,MP_PerceptionTuring2,59.951339825059875,
109,resources/videos_generated\model(vcgpdm)-dataset(walking)-mode(ELBO)-parts(1)-dyn(26)-lvm(23)_final(0).mov,resources/videos_natural\training(2).mov,True,True,left,0,108,108,108,2018-10-29 14:17:50.962638,2018-10-29 14:17:54.982868,0:00:04.020230,3,left,1,0.7510085530120705,20,f,2,18,2018_Oct_29_1405,MP_PerceptionTuring2,59.951339825059875,
110,resources/videos_generated\model(vcgpdm)-dataset(walking)-mode(ELBO)-parts(2)-dyn(22)-lvm(23)_final(6).mov,resources/videos_natural\training(13).mov,False,True,left,0,109,109,109,2018-10-29 14:17:56.850975,2018-10-29 14:18:00.805201,0:00:03.954226,3,left,1,0.3005362987223634,20,f,2,18,2018_Oct_29_1405,MP_PerceptionTuring2,59.951339825059875,
111,resources/videos_generated\model(vcgpdm)-dataset(walking)-mode(ELBO)-parts(2)-dyn(27)-lvm(22)_final(6).mov,resources/videos_natural\training(46).mov,False,True,left,0,110,110,110,2018-10-29 14:18:02.222282,2018-10-29 14:18:06.326517,0:00:04.104235,3,left,1,0.3339655958061485,20,f,2,18,2018_Oct_29_1405,MP_PerceptionTuring2,59.951339825059875,
112,resources/videos_generated\model(vcgpdm)-dataset(walking)-mode(ELBO)-parts(1)-dyn(23)-lvm(27)_final(7).mov,resources/videos_natural\training(9).mov,False,True,left,0,111,111,111,2018-10-29 14:18:07.777600,2018-10-29 14:18:11.847832,0:00:04.070232,3,left,1,0.30077302068457357,20,f,2,18,2018_Oct_29_1405,MP_PerceptionTuring2,59.951339825059875,
113,resources/videos_generated\model(vcgpdm)-dataset(walking)-mode(ELBO)-parts(1)-dyn(28)-lvm(25)_final(2).mov,resources/videos_natural\training(27).mov,True,True,left,0,112,112,112,2018-10-29 14:18:13.264913,2018-10-29 14:18:17.369148,0:00:04.104235,3,right,0,0.3504936676872603,20,f,2,18,2018_Oct_29_1405,MP_PerceptionTuring2,59.951339825059875,
114,resources/videos_generated\model(vcgpdm)-dataset(walking)-mode(ELBO)-parts(1)-dyn(24)-lvm(25)_final(1).mov,resources/videos_natural\training(30).mov,False,True,left,0,113,113,113,2018-10-29 14:18:18.837232,2018-10-29 14:18:22.757456,0:00:03.920224,3,left,1,0.48384161795002,20,f,2,18,2018_Oct_29_1405,MP_PerceptionTuring2,59.951339825059875,
115,resources/videos_generated\model(vcgpdm)-dataset(walking)-mode(ELBO)-parts(1)-dyn(22)-lvm(27)_final(1)_fail.mov,resources/videos_natural\training(44).mov,True,True,left,0,114,114,114,2018-10-29 14:18:24.358548,2018-10-29 14:18:28.411780,0:00:04.053232,3,left,1,0.4005588565796643,20,f,2,18,2018_Oct_29_1405,MP_PerceptionTuring2,59.951339825059875,
116,resources/videos_generated\model(vcgpdm)-dataset(walking)-mode(ELBO)-parts(1)-dyn(23)-lvm(22)_final(2).mov,resources/videos_natural\training(35).mov,False,False,right,0,115,115,115,2018-10-29 14:18:29.929867,2018-10-29 14:18:34.017100,0:00:04.087233,3,left,0,0.43407910790119786,20,f,2,18,2018_Oct_29_1405,MP_PerceptionTuring2,59.951339825059875,
117,resources/videos_generated\model(vcgpdm)-dataset(walking)-mode(ELBO)-parts(2)-dyn(22)-lvm(17)_final(8).mov,resources/videos_natural\training(20).mov,False,True,left,0,116,116,116,2018-10-29 14:18:35.568189,2018-10-29 14:18:39.671424,0:00:04.103235,3,right,0,0.4839172123665776,20,f,2,18,2018_Oct_29_1405,MP_PerceptionTuring2,59.951339825059875,
118,resources/videos_generated\model(vcgpdm)-dataset(walking)-mode(ELBO)-parts(1)-dyn(23)-lvm(26)_final(6)_hip-corrected.mov,resources/videos_natural\training(30).mov,True,True,left,0,117,117,117,2018-10-29 14:18:41.272515,2018-10-29 14:18:45.359749,0:00:04.087234,3,left,1,0.3838524902930658,20,f,2,18,2018_Oct_29_1405,MP_PerceptionTuring2,59.951339825059875,
119,resources/videos_generated\model(vcgpdm)-dataset(walking)-mode(ELBO)-parts(2)-dyn(24)-lvm(19)_final(2).mov,resources/videos_natural\training(32).mov,False,False,right,0,118,118,118,2018-10-29 14:18:46.860835,2018-10-29 14:18:50.931068,0:00:04.070233,3,left,0,0.3340179999049724,20,f,2,18,2018_Oct_29_1405,MP_PerceptionTuring2,59.951339825059875,
120,resources/videos_generated\model(vcgpdm)-dataset(walking)-mode(ELBO)-parts(1)-dyn(24)-lvm(25)_final(5).mov,resources/videos_natural\training(42).mov,True,True,left,0,119,119,119,2018-10-29 14:18:52.382151,2018-10-29 14:18:56.436383,0:00:04.054232,3,left,1,0.36738405066171254,20,f,2,18,2018_Oct_29_1405,MP_PerceptionTuring2,59.951339825059875,
121,resources/videos_generated\model(vcgpdm)-dataset(walking)-mode(ELBO)-parts(1)-dyn(28)-lvm(27)_final(6).mov,resources/videos_natural\training(45).mov,True,True,left,0,120,120,120,2018-10-29 14:18:57.920468,2018-10-29 14:19:02.040703,0:00:04.120235,3,left,1,0.48399401147617027,20,f,2,18,2018_Oct_29_1405,MP_PerceptionTuring2,59.951339825059875,
122,resources/videos_generated\model(vcgpdm)-dataset(walking)-mode(ELBO)-parts(2)-dyn(22)-lvm(17)_final(0).mov,resources/videos_natural\training(41).mov,True,True,left,0,121,121,121,2018-10-29 14:19:03.643795,2018-10-29 14:19:07.729029,0:00:04.085234,3,left,1,0.43391466745561047,20,f,2,18,2018_Oct_29_1405,MP_PerceptionTuring2,59.951339825059875,
123,resources/videos_generated\model(vcgpdm)-dataset(walking)-mode(ELBO)-parts(2)-dyn(28)-lvm(17)_final(8).mov,resources/videos_natural\training(33).mov,True,False,right,0,122,122,122,2018-10-29 14:19:09.281117,2018-10-29 14:19:13.167340,0:00:03.886223,3,right,1,1.1512035926316457,20,f,2,18,2018_Oct_29_1405,MP_PerceptionTuring2,59.951339825059875,
124,resources/videos_generated\model(vcgpdm)-dataset(walking)-mode(ELBO)-parts(2)-dyn(27)-lvm(18)_final(6).mov,resources/videos_natural\training(45).mov,False,True,left,0,123,123,123,2018-10-29 14:19:15.435469,2018-10-29 14:19:19.505702,0:00:04.070233,3,left,1,0.33388277323683724,20,f,2,18,2018_Oct_29_1405,MP_PerceptionTuring2,59.951339825059875,
125,resources/videos_generated\model(vcgpdm)-dataset(walking)-mode(ELBO)-parts(1)-dyn(25)-lvm(24)_final(4).mov,resources/videos_natural\training(47).mov,False,True,left,0,124,124,124,2018-10-29 14:19:20.957785,2018-10-29 14:19:25.028018,0:00:04.070233,3,left,1,0.4840512343434966,20,f,2,18,2018_Oct_29_1405,MP_PerceptionTuring2,59.951339825059875,
126,resources/videos_generated\model(vcgpdm)-dataset(walking)-mode(ELBO)-parts(1)-dyn(25)-lvm(26)_final(1).mov,resources/videos_natural\training(34).mov,True,True,left,0,125,125,125,2018-10-29 14:19:26.629110,2018-10-29 14:19:30.749345,0:00:04.120235,3,right,0,0.3671955163790699,20,f,2,18,2018_Oct_29_1405,MP_PerceptionTuring2,59.951339825059875,
127,resources/videos_generated\model(vcgpdm)-dataset(walking)-mode(ELBO)-parts(2)-dyn(22)-lvm(17)_final(4).mov,resources/videos_natural\training(29).mov,True,True,left,0,126,126,126,2018-10-29 14:19:32.233430,2018-10-29 14:19:36.320664,0:00:04.087234,3,left,1,0.33393728554619884,20,f,2,18,2018_Oct_29_1405,MP_PerceptionTuring2,59.951339825059875,
128,resources/videos_generated\model(dmp)-dataset(walking)-npsi(90)_final(5).mov,resources/videos_natural\training(5).mov,True,False,right,0,127,127,127,2018-10-29 14:19:37.771747,2018-10-29 14:19:41.875982,0:00:04.104235,3,right,1,0.5341182302709058,20,f,2,18,2018_Oct_29_1405,MP_PerceptionTuring2,59.951339825059875,
129,resources/videos_generated\model(vcgpdm)-dataset(walking)-mode(ELBO)-parts(2)-dyn(26)-lvm(23)_final(6).mov,resources/videos_natural\training(31).mov,False,False,right,0,128,128,128,2018-10-29 14:19:43.527076,2018-10-29 14:19:47.430299,0:00:03.903223,3,right,1,0.4173049776964035,20,f,2,18,2018_Oct_29_1405,MP_PerceptionTuring2,59.951339825059875,
130,resources/videos_generated\model(vcgpdm)-dataset(walking)-mode(ELBO)-parts(1)-dyn(26)-lvm(23)_final(6)_fail.mov,resources/videos_natural\training(8).mov,True,False,right,0,129,129,129,2018-10-29 14:19:48.965387,2018-10-29 14:19:53.051621,0:00:04.086234,3,right,1,0.28385914621685515,20,f,2,18,2018_Oct_29_1405,MP_PerceptionTuring2,59.951339825059875,
131,resources/videos_generated\model(vcgpdm)-dataset(walking)-mode(ELBO)-parts(2)-dyn(28)-lvm(19)_final(4).mov,resources/videos_natural\training(7).mov,True,False,right,0,130,130,130,2018-10-29 14:19:54.452701,2018-10-29 14:19:58.539935,0:00:04.087234,3,right,1,0.33386048643660615,20,f,2,18,2018_Oct_29_1405,MP_PerceptionTuring2,59.951339825059875,
132,resources/videos_generated\model(vcgpdm)-dataset(walking)-mode(ELBO)-parts(1)-dyn(23)-lvm(28)_final(1).mov,resources/videos_natural\training(23).mov,False,False,right,0,131,131,131,2018-10-29 14:19:59.991018,2018-10-29 14:20:04.078252,0:00:04.087234,3,right,1,0.43391677566614817,20,f,2,18,2018_Oct_29_1405,MP_PerceptionTuring2,59.951339825059875,
133,resources/videos_generated\model(vcgpdm)-dataset(walking)-mode(ELBO)-parts(1)-dyn(25)-lvm(25)_final(7).mov,resources/videos_natural\training(18).mov,False,True,left,0,132,132,132,2018-10-29 14:20:05.629340,2018-10-29 14:20:09.732575,0:00:04.103235,3,right,0,0.30054171983647393,20,f,2,18,2018_Oct_29_1405,MP_PerceptionTuring2,59.951339825059875,
134,resources/videos_generated\model(vcgpdm)-dataset(walking)-mode(ELBO)-parts(1)-dyn(23)-lvm(26)_final(4)_hip-corrected.mov,resources/videos_natural\training(22).mov,False,True,left,0,133,133,133,2018-10-29 14:20:11.150656,2018-10-29 14:20:15.220889,0:00:04.070233,3,left,1,0.2509141352820734,20,f,2,18,2018_Oct_29_1405,MP_PerceptionTuring2,59.951339825059875,
135,resources/videos_generated\model(vcgpdm)-dataset(walking)-mode(ELBO)-parts(2)-dyn(25)-lvm(18)_final(6).mov,resources/videos_natural\training(38).mov,True,True,left,0,134,134,134,2018-10-29 14:20:16.588967,2018-10-29 14:20:20.692202,0:00:04.103235,3,right,0,0.3671434134521405,20,f,2,18,2018_Oct_29_1405,MP_PerceptionTuring2,59.951339825059875,
136,resources/videos_generated\model(vcgpdm)-dataset(walking)-mode(ELBO)-parts(2)-dyn(26)-lvm(21)_final(8).mov,resources/videos_natural\training(13).mov,False,True,left,0,135,135,135,2018-10-29 14:20:53.454076,2018-10-29 14:20:57.557310,0:00:04.103234,4,right,0,0.4006970949758397,20,f,2,18,2018_Oct_29_1405,MP_PerceptionTuring2,59.951339825059875,
137,resources/videos_generated\model(vcgpdm)-dataset(walking)-mode(ELBO)-parts(2)-dyn(22)-lvm(21)_final(2).mov,resources/videos_natural\training(0).mov,True,False,right,0,136,136,136,2018-10-29 14:20:59.075397,2018-10-29 14:21:03.179632,0:00:04.104235,4,right,1,0.28374771221388073,20,f,2,18,2018_Oct_29_1405,MP_PerceptionTuring2,59.951339825059875,
138,resources/videos_generated\model(vcgpdm)-dataset(walking)-mode(ELBO)-parts(1)-dyn(27)-lvm(28)_final(6).mov,resources/videos_natural\training(39).mov,True,False,right,0,137,137,137,2018-10-29 14:21:04.580712,2018-10-29 14:21:08.666946,0:00:04.086234,4,left,0,0.7174295729564619,20,f,2,18,2018_Oct_29_1405,MP_PerceptionTuring2,59.951339825059875,
139,resources/videos_generated\model(tmp)-dataset(walking)-numprim(11)_final(7).mov,resources/videos_natural\training(21).mov,False,False,right,0,138,138,138,2018-10-29 14:21:10.502051,2018-10-29 14:21:14.405274,0:00:03.903223,4,right,1,0.5173218132658803,20,f,2,18,2018_Oct_29_1405,MP_PerceptionTuring2,59.951339825059875,
140,resources/videos_generated\model(dmp)-dataset(walking)-npsi(70)_final(1).mov,resources/videos_natural\training(7).mov,False,True,left,0,139,139,139,2018-10-29 14:21:16.040368,2018-10-29 14:21:20.143602,0:00:04.103234,4,right,0,0.5841114388204005,20,f,2,18,2018_Oct_29_1405,MP_PerceptionTuring2,59.951339825059875,
141,resources/videos_generated\model(vcgpdm)-dataset(walking)-mode(ELBO)-parts(2)-dyn(22)-lvm(23)_final(4).mov,resources/videos_natural\training(27).mov,False,False,right,0,140,140,140,2018-10-29 14:21:21.845700,2018-10-29 14:21:25.765924,0:00:03.920224,4,right,1,0.48400334783946164,20,f,2,18,2018_Oct_29_1405,MP_PerceptionTuring2,59.951339825059875,
142,resources/videos_generated\model(vcgpdm)-dataset(walking)-mode(ELBO)-parts(1)-dyn(25)-lvm(22)_final(5).mov,resources/videos_natural\training(8).mov,True,False,right,0,141,141,141,2018-10-29 14:21:27.367015,2018-10-29 14:21:31.453249,0:00:04.086234,4,right,1,0.3005947262809059,20,f,2,18,2018_Oct_29_1405,MP_PerceptionTuring2,59.951339825059875,
143,resources/videos_generated\model(tmp)-dataset(walking)-numprim(11)_final(3).mov,resources/videos_natural\training(11).mov,False,False,right,0,142,142,142,2018-10-29 14:21:32.871330,2018-10-29 14:21:36.975565,0:00:04.104235,4,right,1,0.38387266888275917,20,f,2,18,2018_Oct_29_1405,MP_PerceptionTuring2,59.951339825059875,
144,resources/videos_generated\model(dmp)-dataset(walking)-npsi(50)_final(1).mov,resources/videos_natural\training(36).mov,True,False,right,0,143,143,143,2018-10-29 14:21:38.476651,2018-10-29 14:21:42.562885,0:00:04.086234,4,right,1,0.3504807172503206,20,f,2,18,2018_Oct_29_1405,MP_PerceptionTuring2,59.951339825059875,
145,resources/videos_generated\model(vcgpdm)-dataset(walking)-mode(ELBO)-parts(1)-dyn(25)-lvm(26)_final(7).mov,resources/videos_natural\training(41).mov,False,True,left,0,144,144,144,2018-10-29 14:21:44.030969,2018-10-29 14:21:47.918191,0:00:03.887222,4,left,1,0.5673364050962846,20,f,2,18,2018_Oct_29_1405,MP_PerceptionTuring2,59.951339825059875,
146,resources/videos_generated\model(vcgpdm)-dataset(walking)-mode(ELBO)-parts(1)-dyn(23)-lvm(22)_final(4)_fail.mov,resources/videos_natural\training(36).mov,False,True,left,0,145,145,145,2018-10-29 14:21:49.602287,2018-10-29 14:21:53.706522,0:00:04.104235,4,left,1,0.5673433320753247,20,f,2,18,2018_Oct_29_1405,MP_PerceptionTuring2,59.951339825059875,
147,resources/videos_generated\model(vcgpdm)-dataset(walking)-mode(ELBO)-parts(1)-dyn(23)-lvm(26)_final(2).mov,resources/videos_natural\training(28).mov,True,True,left,0,146,146,146,2018-10-29 14:21:55.390618,2018-10-29 14:21:59.494853,0:00:04.104235,4,right,0,0.23389334440798848,20,f,2,18,2018_Oct_29_1405,MP_PerceptionTuring2,59.951339825059875,
148,resources/videos_generated\model(vcgpdm)-dataset(walking)-mode(ELBO)-parts(1)-dyn(28)-lvm(25)_final(4).mov,resources/videos_natural\training(19).mov,True,True,left,0,147,147,147,2018-10-29 14:22:00.845930,2018-10-29 14:22:04.966166,0:00:04.120236,4,left,1,0.4339056322660326,20,f,2,18,2018_Oct_29_1405,MP_PerceptionTuring2,59.951339825059875,
149,resources/videos_generated\model(dmp)-dataset(walking)-npsi(50)_final(3).mov,resources/videos_natural\training(42).mov,True,True,left,0,148,148,148,2018-10-29 14:22:06.517255,2018-10-29 14:22:10.620489,0:00:04.103234,4,left,1,0.35057106914246106,20,f,2,18,2018_Oct_29_1405,MP_PerceptionTuring2,59.951339825059875,
150,resources/videos_generated\model(vcgpdm)-dataset(walking)-mode(ELBO)-parts(2)-dyn(26)-lvm(19)_final(4).mov,resources/videos_natural\training(48).mov,False,True,left,0,149,149,149,2018-10-29 14:22:12.088573,2018-10-29 14:22:16.208809,0:00:04.120236,4,left,1,0.3338954225018824,20,f,2,18,2018_Oct_29_1405,MP_PerceptionTuring2,59.951339825059875,
151,resources/videos_generated\model(vcgpdm)-dataset(walking)-mode(ELBO)-parts(1)-dyn(25)-lvm(28)_final(7).mov,resources/videos_natural\training(5).mov,False,True,left,0,150,150,150,2018-10-29 14:22:17.659892,2018-10-29 14:22:21.764127,0:00:04.104235,4,left,1,0.3671518462961103,20,f,2,18,2018_Oct_29_1405,MP_PerceptionTuring2,59.951339825059875,
152,resources/videos_generated\model(vcgpdm)-dataset(walking)-mode(ELBO)-parts(1)-dyn(25)-lvm(26)_final(3)_fail.mov,resources/videos_natural\training(5).mov,False,True,left,0,151,151,151,2018-10-29 14:22:23.248212,2018-10-29 14:22:27.385448,0:00:04.137236,4,left,1,0.4006308369207545,20,f,2,18,2018_Oct_29_1405,MP_PerceptionTuring2,59.951339825059875,
153,resources/videos_generated\model(vcgpdm)-dataset(walking)-mode(ELBO)-parts(2)-dyn(24)-lvm(17)_final(8).mov,resources/videos_natural\training(15).mov,False,True,left,0,152,152,152,2018-10-29 14:22:28.903535,2018-10-29 14:22:32.989769,0:00:04.086234,4,left,1,0.3838091213856387,20,f,2,18,2018_Oct_29_1405,MP_PerceptionTuring2,59.951339825059875,
154,resources/videos_generated\model(vcgpdm)-dataset(walking)-mode(ELBO)-parts(2)-dyn(23)-lvm(18)_final(4).mov,resources/videos_natural\training(22).mov,False,True,left,0,153,153,153,2018-10-29 14:22:34.491855,2018-10-29 14:22:38.628091,0:00:04.136236,4,right,0,0.4340547128904291,20,f,2,18,2018_Oct_29_1405,MP_PerceptionTuring2,59.951339825059875,
155,resources/videos_generated\model(vcgpdm)-dataset(walking)-mode(ELBO)-parts(1)-dyn(23)-lvm(28)_final(5).mov,resources/videos_natural\training(23).mov,False,False,right,0,154,154,154,2018-10-29 14:22:40.180180,2018-10-29 14:22:44.283415,0:00:04.103235,4,right,1,0.6007358860551903,20,f,2,18,2018_Oct_29_1405,MP_PerceptionTuring2,59.951339825059875,
156,resources/videos_generated\model(vcgpdm)-dataset(walking)-mode(ELBO)-parts(1)-dyn(24)-lvm(27)_final(9).mov,resources/videos_natural\training(43).mov,False,False,right,0,155,155,155,2018-10-29 14:22:46.001513,2018-10-29 14:22:50.104748,0:00:04.103235,4,right,1,0.31710171605300275,20,f,2,18,2018_Oct_29_1405,MP_PerceptionTuring2,59.951339825059875,
157,resources/videos_generated\model(vcgpdm)-dataset(walking)-mode(ELBO)-parts(2)-dyn(25)-lvm(22)_final(2).mov,resources/videos_natural\training(36).mov,False,False,right,0,156,156,156,2018-10-29 14:22:51.539830,2018-10-29 14:22:55.476055,0:00:03.936225,4,right,1,0.3171571318816859,20,f,2,18,2018_Oct_29_1405,MP_PerceptionTuring2,59.951339825059875,
158,resources/videos_generated\model(tmp)-dataset(walking)-numprim(12)_final(9).mov,resources/videos_natural\training(19).mov,False,False,right,0,157,157,157,2018-10-29 14:22:56.911137,2018-10-29 14:23:01.014372,0:00:04.103235,4,right,1,0.484092495040386,20,f,2,18,2018_Oct_29_1405,MP_PerceptionTuring2,59.951339825059875,
159,resources/videos_generated\model(vcgpdm)-dataset(walking)-mode(ELBO)-parts(2)-dyn(28)-lvm(17)_final(2).mov,resources/videos_natural\training(48).mov,False,False,right,0,158,158,158,2018-10-29 14:23:02.615463,2018-10-29 14:23:06.719698,0:00:04.104235,4,left,0,0.4340884442644892,20,f,2,18,2018_Oct_29_1405,MP_PerceptionTuring2,59.951339825059875,
160,resources/videos_generated\model(vcgpdm)-dataset(walking)-mode(ELBO)-parts(1)-dyn(25)-lvm(22)_final(7).mov,resources/videos_natural\training(26).mov,False,False,right,0,159,159,159,2018-10-29 14:23:08.270787,2018-10-29 14:23:12.374021,0:00:04.103234,4,right,1,0.2671844030955981,20,f,2,18,2018_Oct_29_1405,MP_PerceptionTuring2,59.951339825059875,
161,resources/videos_generated\model(vcgpdm)-dataset(walking)-mode(ELBO)-parts(1)-dyn(28)-lvm(23)_final(8).mov,resources/videos_natural\training(45).mov,False,False,right,0,160,160,160,2018-10-29 14:23:13.759101,2018-10-29 14:23:17.829334,0:00:04.070233,4,right,1,0.40066848354399554,20,f,2,18,2018_Oct_29_1405,MP_PerceptionTuring2,59.951339825059875,
162,resources/videos_generated\model(vcgpdm)-dataset(walking)-mode(ELBO)-parts(2)-dyn(25)-lvm(20)_final(6).mov,resources/videos_natural\training(16).mov,True,True,left,0,161,161,161,2018-10-29 14:23:19.346420,2018-10-29 14:23:23.433654,0:00:04.087234,4,right,0,0.3840837911411654,20,f,2,18,2018_Oct_29_1405,MP_PerceptionTuring2,59.951339825059875,
163,resources/videos_generated\model(dmp)-dataset(walking)-npsi(60)_final(5).mov,resources/videos_natural\training(39).mov,False,False,right,0,162,162,162,2018-10-29 14:23:24.934740,2018-10-29 14:23:29.038975,0:00:04.104235,4,right,1,0.35056263630031026,20,f,2,18,2018_Oct_29_1405,MP_PerceptionTuring2,59.951339825059875,
164,resources/videos_generated\model(vcgpdm)-dataset(walking)-mode(ELBO)-parts(2)-dyn(24)-lvm(17)_final(2).mov,resources/videos_natural\training(25).mov,False,False,right,0,163,163,163,2018-10-29 14:23:30.506059,2018-10-29 14:23:34.593292,0:00:04.087233,4,right,1,0.33397704037997755,20,f,2,18,2018_Oct_29_1405,MP_PerceptionTuring2,59.951339825059875,
165,resources/videos_generated\model(vcgpdm)-dataset(walking)-mode(ELBO)-parts(2)-dyn(23)-lvm(20)_final(2).mov,resources/videos_natural\training(15).mov,False,True,left,0,164,164,164,2018-10-29 14:23:36.044375,2018-10-29 14:23:40.164611,0:00:04.120236,4,left,1,0.3839425410151307,20,f,2,18,2018_Oct_29_1405,MP_PerceptionTuring2,59.951339825059875,
166,resources/videos_generated\model(vcgpdm)-dataset(walking)-mode(ELBO)-parts(1)-dyn(27)-lvm(22)_final(2).mov,resources/videos_natural\training(37).mov,True,False,right,0,165,165,165,2018-10-29 14:23:41.665697,2018-10-29 14:23:45.769932,0:00:04.104235,4,left,0,0.317259831868796,20,f,2,18,2018_Oct_29_1405,MP_PerceptionTuring2,59.951339825059875,
167,resources/videos_generated\model(vcgpdm)-dataset(walking)-mode(ELBO)-parts(2)-dyn(28)-lvm(19)_final(2).mov,resources/videos_natural\training(43).mov,True,False,right,0,166,166,166,2018-10-29 14:23:47.204014,2018-10-29 14:23:51.291247,0:00:04.087233,4,right,1,0.25054911363258725,20,f,2,18,2018_Oct_29_1405,MP_PerceptionTuring2,59.951339825059875,
168,resources/videos_generated\model(vcgpdm)-dataset(walking)-mode(ELBO)-parts(1)-dyn(28)-lvm(24)_final(5).mov,resources/videos_natural\training(23).mov,True,False,right,0,167,167,167,2018-10-29 14:23:52.659326,2018-10-29 14:23:56.579550,0:00:03.920224,4,right,1,0.28386788023453846,20,f,2,18,2018_Oct_29_1405,MP_PerceptionTuring2,59.951339825059875,
169,resources/videos_generated\model(tmp)-dataset(walking)-numprim(13)_final(5).mov,resources/videos_natural\training(4).mov,False,True,left,0,168,168,168,2018-10-29 14:23:57.980630,2018-10-29 14:24:02.066864,0:00:04.086234,4,right,0,1.9686650598086999,20,f,2,18,2018_Oct_29_1405,MP_PerceptionTuring2,59.951339825059875,
170,resources/videos_generated\model(dmp)-dataset(walking)-npsi(80)_final(7).mov,resources/videos_natural\training(10).mov,True,False,right,0,169,169,169,2018-10-29 14:24:05.153040,2018-10-29 14:24:09.256275,0:00:04.103235,4,right,1,0.2836820565062226,20,f,2,18,2018_Oct_29_1405,MP_PerceptionTuring2,59.951339825059875,
171,resources/videos_generated\model(vcgpdm)-dataset(walking)-mode(ELBO)-parts(2)-dyn(22)-lvm(19)_final(6).mov,resources/videos_natural\training(18).mov,True,False,right,0,170,170,170,2018-10-29 14:24:10.658355,2018-10-29 14:24:14.761590,0:00:04.103235,4,left,0,0.3171878515258868,20,f,2,18,2018_Oct_29_1405,MP_PerceptionTuring2,59.951339825059875,
172,resources/videos_generated\model(vcgpdm)-dataset(walking)-mode(ELBO)-parts(1)-dyn(25)-lvm(28)_final(9).mov,resources/videos_natural\training(4).mov,False,False,right,0,171,171,171,2018-10-29 14:24:16.195672,2018-10-29 14:24:20.115896,0:00:03.920224,4,right,1,0.4171830026407406,20,f,2,18,2018_Oct_29_1405,MP_PerceptionTuring2,59.951339825059875,
173,resources/videos_generated\model(tmp)-dataset(walking)-numprim(14)_final(5).mov,resources/videos_natural\training(10).mov,True,False,right,0,172,172,172,2018-10-29 14:24:21.650984,2018-10-29 14:24:25.571208,0:00:03.920224,4,right,1,0.48399250561124063,20,f,2,18,2018_Oct_29_1405,MP_PerceptionTuring2,59.951339825059875,
174,resources/videos_generated\model(tmp)-dataset(walking)-numprim(13)_final(9).mov,resources/videos_natural\training(17).mov,False,True,left,0,173,173,173,2018-10-29 14:24:27.172300,2018-10-29 14:24:31.259533,0:00:04.087233,4,left,1,0.3505135451032402,20,f,2,18,2018_Oct_29_1405,MP_PerceptionTuring2,59.951339825059875,
175,resources/videos_generated\model(vcgpdm)-dataset(walking)-mode(ELBO)-parts(1)-dyn(25)-lvm(28)_final(3).mov,resources/videos_natural\training(3).mov,False,False,right,0,174,174,174,2018-10-29 14:24:32.726617,2018-10-29 14:24:36.796850,0:00:04.070233,4,right,1,3.0193720483166544,20,f,2,18,2018_Oct_29_1405,MP_PerceptionTuring2,59.951339825059875,
176,resources/videos_generated\model(dmp)-dataset(walking)-npsi(60)_final(9).mov,resources/videos_natural\training(37).mov,False,False,right,0,175,175,175,2018-10-29 14:24:40.934087,2018-10-29 14:24:45.021321,0:00:04.087234,4,right,1,0.43392852141187177,20,f,2,18,2018_Oct_29_1405,MP_PerceptionTuring2,59.951339825059875,
177,resources/videos_generated\model(vcgpdm)-dataset(walking)-mode(ELBO)-parts(2)-dyn(23)-lvm(18)_final(0).mov,resources/videos_natural\training(32).mov,True,True,left,0,176,176,176,2018-10-29 14:24:46.572409,2018-10-29 14:24:50.659643,0:00:04.087234,4,right,0,0.7675357213738607,20,f,2,18,2018_Oct_29_1405,MP_PerceptionTuring2,59.951339825059875,
178,resources/videos_generated\model(vcgpdm)-dataset(walking)-mode(ELBO)-parts(1)-dyn(23)-lvm(28)_final(3)_hip-corrected.mov,resources/videos_natural\training(24).mov,False,False,right,0,177,177,177,2018-10-29 14:24:52.543751,2018-10-29 14:24:56.613984,0:00:04.070233,4,left,0,0.5840301221160189,20,f,2,18,2018_Oct_29_1405,MP_PerceptionTuring2,59.951339825059875,
179,resources/videos_generated\model(vcgpdm)-dataset(walking)-mode(ELBO)-parts(2)-dyn(22)-lvm(23)_final(2).mov,resources/videos_natural\training(2).mov,False,True,left,0,178,178,178,2018-10-29 14:24:58.316081,2018-10-29 14:25:02.402315,0:00:04.086234,4,left,1,0.3838558031966386,20,f,2,18,2018_Oct_29_1405,MP_PerceptionTuring2,59.951339825059875,
180,resources/videos_generated\model(vcgpdm)-dataset(walking)-mode(ELBO)-parts(1)-dyn(28)-lvm(23)_final(0).mov,resources/videos_natural\training(3).mov,True,False,right,0,179,179,179,2018-10-29 14:25:03.904401,2018-10-29 14:25:08.007635,0:00:04.103234,4,left,0,0.4338553363777464,20,f,2,18,2018_Oct_29_1405,MP_PerceptionTuring2,59.951339825059875,
181,resources/videos_generated\model(dmp)-dataset(walking)-npsi(90)_final(1).mov,resources/videos_natural\training(25).mov,False,True,left,0,180,180,180,2018-10-29 14:25:48.892974,2018-10-29 14:25:52.829199,0:00:03.936225,5,right,0,0.3672150926213362,20,f,2,18,2018_Oct_29_1405,MP_PerceptionTuring2,59.951339825059875,
182,resources/videos_generated\model(vcgpdm)-dataset(walking)-mode(ELBO)-parts(1)-dyn(22)-lvm(23)_final(3)_fail.mov,resources/videos_natural\training(9).mov,True,False,right,0,181,181,181,2018-10-29 14:25:54.314284,2018-10-29 14:25:58.201506,0:00:03.887222,5,right,1,0.2505087564532005,20,f,2,18,2018_Oct_29_1405,MP_PerceptionTuring2,59.951339825059875,
183,resources/videos_generated\model(vcgpdm)-dataset(walking)-mode(ELBO)-parts(2)-dyn(25)-lvm(22)_final(4).mov,resources/videos_natural\training(11).mov,False,False,right,0,182,182,182,2018-10-29 14:25:59.568584,2018-10-29 14:26:03.505810,0:00:03.937226,5,left,0,0.46735179503593827,20,f,2,18,2018_Oct_29_1405,MP_PerceptionTuring2,59.951339825059875,
184,resources/videos_generated\model(vcgpdm)-dataset(walking)-mode(ELBO)-parts(1)-dyn(25)-lvm(24)_final(8).mov,resources/videos_natural\training(7).mov,True,False,right,0,183,183,183,2018-10-29 14:26:05.089900,2018-10-29 14:26:08.977123,0:00:03.887223,5,right,1,0.16707872149709146,20,f,2,18,2018_Oct_29_1405,MP_PerceptionTuring2,59.951339825059875,
185,resources/videos_generated\model(vcgpdm)-dataset(walking)-mode(ELBO)-parts(2)-dyn(27)-lvm(22)_final(2).mov,resources/videos_natural\training(33).mov,True,False,right,0,184,184,184,2018-10-29 14:26:10.261196,2018-10-29 14:26:14.181420,0:00:03.920224,5,right,1,0.28375674740527757,20,f,2,18,2018_Oct_29_1405,MP_PerceptionTuring2,59.951339825059875,
186,resources/videos_generated\model(vcgpdm)-dataset(walking)-mode(ELBO)-parts(1)-dyn(28)-lvm(23)_final(2).mov,resources/videos_natural\training(18).mov,True,False,right,0,185,185,185,2018-10-29 14:26:15.582500,2018-10-29 14:26:19.502725,0:00:03.920225,5,left,0,0.26717416321480414,20,f,2,18,2018_Oct_29_1405,MP_PerceptionTuring2,59.951339825059875,
187,resources/videos_generated\model(vcgpdm)-dataset(walking)-mode(ELBO)-parts(1)-dyn(24)-lvm(23)_final(9).mov,resources/videos_natural\training(17).mov,False,False,right,0,186,186,186,2018-10-29 14:26:20.886804,2018-10-29 14:26:24.807028,0:00:03.920224,5,left,0,0.5341829824628803,20,f,2,18,2018_Oct_29_1405,MP_PerceptionTuring2,59.951339825059875,
188,resources/videos_generated\model(vcgpdm)-dataset(walking)-mode(ELBO)-parts(1)-dyn(26)-lvm(27)_final(2).mov,resources/videos_natural\training(32).mov,False,True,left,0,187,187,187,2018-10-29 14:26:26.459123,2018-10-29 14:26:30.395348,0:00:03.936225,5,left,1,0.4171839061582432,20,f,2,18,2018_Oct_29_1405,MP_PerceptionTuring2,59.951339825059875,
189,resources/videos_generated\model(vcgpdm)-dataset(walking)-mode(ELBO)-parts(2)-dyn(26)-lvm(23)_final(0).mov,resources/videos_natural\training(39).mov,False,True,left,0,188,188,188,2018-10-29 14:26:31.930435,2018-10-29 14:26:36.033670,0:00:04.103235,5,left,1,0.25046448402463284,20,f,2,18,2018_Oct_29_1405,MP_PerceptionTuring2,59.951339825059875,
190,resources/videos_generated\model(vcgpdm)-dataset(walking)-mode(ELBO)-parts(1)-dyn(24)-lvm(23)_final(5).mov,resources/videos_natural\training(2).mov,True,True,left,0,189,189,189,2018-10-29 14:26:37.401748,2018-10-29 14:26:41.504983,0:00:04.103235,5,left,1,0.31702491694522905,20,f,2,18,2018_Oct_29_1405,MP_PerceptionTuring2,59.951339825059875,
191,resources/videos_generated\model(dmp)-dataset(walking)-npsi(70)_final(3).mov,resources/videos_natural\training(19).mov,False,True,left,0,190,190,190,2018-10-29 14:26:42.940065,2018-10-29 14:26:46.843288,0:00:03.903223,5,left,1,0.3005007603114791,20,f,2,18,2018_Oct_29_1405,MP_PerceptionTuring2,59.951339825059875,
192,resources/videos_generated\model(vcgpdm)-dataset(walking)-mode(ELBO)-parts(2)-dyn(28)-lvm(17)_final(0).mov,resources/videos_natural\training(47).mov,False,True,left,0,191,191,191,2018-10-29 14:26:48.260369,2018-10-29 14:26:52.347603,0:00:04.087234,5,left,1,1.7850856731711247,20,f,2,18,2018_Oct_29_1405,MP_PerceptionTuring2,59.951339825059875,
193,resources/videos_generated\model(dmp)-dataset(walking)-npsi(50)_final(5).mov,resources/videos_natural\training(12).mov,False,False,right,0,192,192,192,2018-10-29 14:26:55.250769,2018-10-29 14:26:59.169993,0:00:03.919224,5,left,0,0.5507658678252483,20,f,2,18,2018_Oct_29_1405,MP_PerceptionTuring2,59.951339825059875,
194,resources/videos_generated\model(vcgpdm)-dataset(walking)-mode(ELBO)-parts(1)-dyn(25)-lvm(22)_final(9).mov,resources/videos_natural\training(22).mov,False,True,left,0,193,193,193,2018-10-29 14:27:00.838089,2018-10-29 14:27:04.758313,0:00:03.920224,5,right,0,0.36731598556798417,20,f,2,18,2018_Oct_29_1405,MP_PerceptionTuring2,59.951339825059875,
195,resources/videos_generated\model(vcgpdm)-dataset(walking)-mode(ELBO)-parts(1)-dyn(26)-lvm(27)_final(8).mov,resources/videos_natural\training(35).mov,True,True,left,0,194,194,194,2018-10-29 14:27:06.243398,2018-10-29 14:27:10.162622,0:00:03.919224,5,right,0,1.1847127005548828,20,f,2,18,2018_Oct_29_1405,MP_PerceptionTuring2,59.951339825059875,
196,resources/videos_generated\model(tmp)-dataset(walking)-numprim(12)_final(1).mov,resources/videos_natural\training(33).mov,False,True,left,0,195,195,195,2018-10-29 14:27:12.464754,2018-10-29 14:27:16.568989,0:00:04.104235,5,right,0,3.403287182591157,20,f,2,18,2018_Oct_29_1405,MP_PerceptionTuring2,59.951339825059875,
197,resources/videos_generated\model(vcgpdm)-dataset(walking)-mode(ELBO)-parts(1)-dyn(24)-lvm(27)_final(5).mov,resources/videos_natural\training(44).mov,True,False,right,0,196,196,196,2018-10-29 14:27:21.089247,2018-10-29 14:27:25.009471,0:00:03.920224,5,left,0,1.0011836098055937,20,f,2,18,2018_Oct_29_1405,MP_PerceptionTuring2,59.951339825059875,
198,resources/videos_generated\model(vcgpdm)-dataset(walking)-mode(ELBO)-parts(1)-dyn(23)-lvm(24)_final(0).mov,resources/videos_natural\training(31).mov,False,False,right,0,197,197,197,2018-10-29 14:27:27.127593,2018-10-29 14:27:31.064818,0:00:03.937225,5,right,1,0.4006606530456338,20,f,2,18,2018_Oct_29_1405,MP_PerceptionTuring2,59.951339825059875,
199,resources/videos_generated\model(vcgpdm)-dataset(walking)-mode(ELBO)-parts(1)-dyn(24)-lvm(27)_final(1).mov,resources/videos_natural\training(11).mov,False,True,left,0,198,198,198,2018-10-29 14:27:32.582905,2018-10-29 14:27:36.703140,0:00:04.120235,5,right,0,0.6677932543880161,20,f,2,18,2018_Oct_29_1405,MP_PerceptionTuring2,59.951339825059875,
200,resources/videos_generated\model(vcgpdm)-dataset(walking)-mode(ELBO)-parts(2)-dyn(28)-lvm(23)_final(0).mov,resources/videos_natural\training(38).mov,False,False,right,0,199,199,199,2018-10-29 14:27:38.487242,2018-10-29 14:27:42.591477,0:00:04.104235,5,left,0,0.267129589612523,20,f,2,18,2018_Oct_29_1405,MP_PerceptionTuring2,59.951339825059875,
201,resources/videos_generated\model(vcgpdm)-dataset(walking)-mode(ELBO)-parts(1)-dyn(27)-lvm(28)_final(8).mov,resources/videos_natural\training(32).mov,True,False,right,0,200,200,200,2018-10-29 14:27:43.975556,2018-10-29 14:27:47.895780,0:00:03.920224,5,left,0,0.9177999554867711,20,f,2,18,2018_Oct_29_1405,MP_PerceptionTuring2,59.951339825059875,
202,resources/videos_generated\model(vcgpdm)-dataset(walking)-mode(ELBO)-parts(1)-dyn(23)-lvm(24)_final(6).mov,resources/videos_natural\training(8).mov,True,True,left,0,201,201,201,2018-10-29 14:27:49.930897,2018-10-29 14:27:54.051132,0:00:04.120235,5,left,1,0.4007181770830357,20,f,2,18,2018_Oct_29_1405,MP_PerceptionTuring2,59.951339825059875,
203,resources/videos_generated\model(dmp)-dataset(walking)-npsi(60)_final(3).mov,resources/videos_natural\training(9).mov,False,True,left,0,202,202,202,2018-10-29 14:27:55.569219,2018-10-29 14:27:59.672454,0:00:04.103235,5,left,1,0.6340980215645686,20,f,2,18,2018_Oct_29_1405,MP_PerceptionTuring2,59.951339825059875,
204,resources/videos_generated\model(vcgpdm)-dataset(walking)-mode(ELBO)-parts(2)-dyn(26)-lvm(19)_final(6).mov,resources/videos_natural\training(17).mov,False,False,right,0,203,203,203,2018-10-29 14:28:01.424554,2018-10-29 14:28:05.527789,0:00:04.103235,5,right,1,0.5841442666751391,20,f,2,18,2018_Oct_29_1405,MP_PerceptionTuring2,59.951339825059875,
205,resources/videos_generated\model(vcgpdm)-dataset(walking)-mode(ELBO)-parts(1)-dyn(25)-lvm(28)_final(1).mov,resources/videos_natural\training(27).mov,True,False,right,0,204,204,204,2018-10-29 14:28:07.228886,2018-10-29 14:28:11.149110,0:00:03.920224,5,right,1,0.3839533832415327,20,f,2,18,2018_Oct_29_1405,MP_PerceptionTuring2,59.951339825059875,
206,resources/videos_generated\model(vcgpdm)-dataset(walking)-mode(ELBO)-parts(1)-dyn(26)-lvm(27)_final(0).mov,resources/videos_natural\training(25).mov,True,True,left,0,205,205,205,2018-10-29 14:28:12.650196,2018-10-29 14:28:16.570421,0:00:03.920225,5,left,1,0.6341115743489354,20,f,2,18,2018_Oct_29_1405,MP_PerceptionTuring2,59.951339825059875,
207,resources/videos_generated\model(dmp)-dataset(walking)-npsi(80)_final(3).mov,resources/videos_natural\training(17).mov,True,True,left,0,206,206,206,2018-10-29 14:28:18.322521,2018-10-29 14:28:22.393754,0:00:04.071233,5,right,0,0.2838555321395688,20,f,2,18,2018_Oct_29_1405,MP_PerceptionTuring2,59.951339825059875,
208,resources/videos_generated\model(vcgpdm)-dataset(walking)-mode(ELBO)-parts(2)-dyn(28)-lvm(23)_final(6).mov,resources/videos_natural\training(21).mov,False,True,left,0,207,207,207,2018-10-29 14:28:23.793834,2018-10-29 14:28:27.880067,0:00:04.086233,5,left,1,0.6008184074507881,20,f,2,18,2018_Oct_29_1405,MP_PerceptionTuring2,59.951339825059875,
209,resources/videos_generated\model(vcgpdm)-dataset(walking)-mode(ELBO)-parts(2)-dyn(26)-lvm(21)_final(0).mov,resources/videos_natural\training(25).mov,False,True,left,0,208,208,208,2018-10-29 14:28:29.598166,2018-10-29 14:28:33.535391,0:00:03.937225,5,right,0,2.1520480816634517,20,f,2,18,2018_Oct_29_1405,MP_PerceptionTuring2,59.951339825059875,
210,resources/videos_generated\model(dmp)-dataset(walking)-npsi(100)_final(9).mov,resources/videos_natural\training(18).mov,False,True,left,0,209,209,209,2018-10-29 14:28:36.804578,2018-10-29 14:28:40.874811,0:00:04.070233,5,left,1,0.2671916312465328,20,f,2,18,2018_Oct_29_1405,MP_PerceptionTuring2,59.951339825059875,
211,resources/videos_generated\model(vcgpdm)-dataset(walking)-mode(ELBO)-parts(1)-dyn(25)-lvm(26)_final(9).mov,resources/videos_natural\training(36).mov,False,False,right,0,210,210,210,2018-10-29 14:28:42.259890,2018-10-29 14:28:46.330123,0:00:04.070233,5,left,0,0.20051343969498703,20,f,2,18,2018_Oct_29_1405,MP_PerceptionTuring2,59.951339825059875,
212,resources/videos_generated\model(vcgpdm)-dataset(walking)-mode(ELBO)-parts(2)-dyn(22)-lvm(23)_final(0).mov,resources/videos_natural\training(28).mov,False,False,right,0,211,211,211,2018-10-29 14:28:47.647198,2018-10-29 14:28:51.734432,0:00:04.087234,5,right,1,0.267124469672126,20,f,2,18,2018_Oct_29_1405,MP_PerceptionTuring2,59.951339825059875,
213,resources/videos_generated\model(dmp)-dataset(walking)-npsi(60)_final(1).mov,resources/videos_natural\training(11).mov,False,True,left,0,212,212,212,2018-10-29 14:28:53.118511,2018-10-29 14:28:57.222746,0:00:04.104235,5,left,1,2.0519957076830906,20,f,2,18,2018_Oct_29_1405,MP_PerceptionTuring2,59.951339825059875,
214,resources/videos_generated\model(vcgpdm)-dataset(walking)-mode(ELBO)-parts(1)-dyn(27)-lvm(26)_final(2).mov,resources/videos_natural\training(37).mov,False,False,right,0,213,213,213,2018-10-29 14:29:00.391927,2018-10-29 14:29:04.312151,0:00:03.920224,5,right,1,1.101281159733844,20,f,2,18,2018_Oct_29_1405,MP_PerceptionTuring2,59.951339825059875,
215,resources/videos_generated\model(vcgpdm)-dataset(walking)-mode(ELBO)-parts(1)-dyn(27)-lvm(26)_final(4).mov,resources/videos_natural\training(12).mov,False,False,right,0,214,214,214,2018-10-29 14:29:06.530278,2018-10-29 14:29:10.633513,0:00:04.103235,5,right,1,0.7341618401187588,20,f,2,18,2018_Oct_29_1405,MP_PerceptionTuring2,59.951339825059875,
216,resources/videos_generated\model(vcgpdm)-dataset(walking)-mode(ELBO)-parts(1)-dyn(27)-lvm(28)_final(4).mov,resources/videos_natural\training(37).mov,False,True,left,0,215,215,215,2018-10-29 14:29:12.485619,2018-10-29 14:29:16.588853,0:00:04.103234,5,left,1,0.9677211836951756,20,f,2,18,2018_Oct_29_1405,MP_PerceptionTuring2,59.951339825059875,
217,resources/videos_generated\model(vcgpdm)-dataset(walking)-mode(ELBO)-parts(1)-dyn(26)-lvm(23)_final(4)_fail.mov,resources/videos_natural\training(8).mov,True,False,right,0,216,216,216,2018-10-29 14:29:18.673973,2018-10-29 14:29:22.778207,0:00:04.104234,5,right,1,0.41728630497163977,20,f,2,18,2018_Oct_29_1405,MP_PerceptionTuring2,59.951339825059875,
218,resources/videos_generated\model(tmp)-dataset(walking)-numprim(11)_final(1).mov,resources/videos_natural\training(20).mov,False,False,right,0,217,217,217,2018-10-29 14:29:24.312295,2018-10-29 14:29:28.299523,0:00:03.987228,5,right,1,0.25050755176198436,20,f,2,18,2018_Oct_29_1405,MP_PerceptionTuring2,59.951339825059875,
219,resources/videos_generated\model(dmp)-dataset(walking)-npsi(70)_final(7).mov,resources/videos_natural\training(14).mov,True,True,left,0,218,218,218,2018-10-29 14:29:29.667601,2018-10-29 14:29:33.586826,0:00:03.919225,5,left,1,0.38418859933699423,20,f,2,18,2018_Oct_29_1405,MP_PerceptionTuring2,59.951339825059875,
220,resources/videos_generated\model(vcgpdm)-dataset(walking)-mode(ELBO)-parts(1)-dyn(26)-lvm(23)_final(2).mov,resources/videos_natural\training(41).mov,False,True,left,0,219,219,219,2018-10-29 14:29:35.088912,2018-10-29 14:29:39.225148,0:00:04.136236,5,right,0,1.0177083687849517,20,f,2,18,2018_Oct_29_1405,MP_PerceptionTuring2,59.951339825059875,
221,resources/videos_generated\model(tmp)-dataset(walking)-numprim(15)_final(3).mov,resources/videos_natural\training(38).mov,True,True,left,0,220,220,220,2018-10-29 14:29:41.360270,2018-10-29 14:29:45.447504,0:00:04.087234,5,left,1,0.7350990904287755,20,f,2,18,2018_Oct_29_1405,MP_PerceptionTuring2,59.951339825059875,
222,resources/videos_generated\model(vcgpdm)-dataset(walking)-mode(ELBO)-parts(2)-dyn(26)-lvm(19)_final(8).mov,resources/videos_natural\training(16).mov,False,True,left,0,221,221,221,2018-10-29 14:29:47.298610,2018-10-29 14:29:51.385844,0:00:04.087234,5,left,1,1.217832994163473,20,f,2,18,2018_Oct_29_1405,MP_PerceptionTuring2,59.951339825059875,
223,resources/videos_generated\model(vcgpdm)-dataset(walking)-mode(ELBO)-parts(2)-dyn(27)-lvm(22)_final(0).mov,resources/videos_natural\training(44).mov,True,True,left,0,222,222,222,2018-10-29 14:29:53.720977,2018-10-29 14:29:57.808211,0:00:04.087234,5,left,1,0.6008063605331699,20,f,2,18,2018_Oct_29_1405,MP_PerceptionTuring2,59.951339825059875,
224,resources/videos_generated\model(vcgpdm)-dataset(walking)-mode(ELBO)-parts(1)-dyn(28)-lvm(25)_final(0).mov,resources/videos_natural\training(27).mov,False,False,right,0,223,223,223,2018-10-29 14:29:59.526309,2018-10-29 14:30:03.629544,0:00:04.103235,5,right,1,0.5663865055230417,20,f,2,18,2018_Oct_29_1405,MP_PerceptionTuring2,59.951339825059875,
225,resources/videos_generated\model(dmp)-dataset(walking)-npsi(90)_final(7).mov,resources/videos_natural\training(22).mov,True,False,right,0,224,224,224,2018-10-29 14:30:05.314640,2018-10-29 14:30:09.251866,0:00:03.937226,5,left,0,0.5841367373504909,20,f,2,18,2018_Oct_29_1405,MP_PerceptionTuring2,59.951339825059875,
226,resources/videos_generated\model(vcgpdm)-dataset(walking)-mode(ELBO)-parts(2)-dyn(26)-lvm(21)_final(2).mov,resources/videos_natural\training(25).mov,False,False,right,0,225,225,225,2018-10-29 14:30:42.279755,2018-10-29 14:30:46.216980,0:00:03.937225,6,right,1,0.21699242038084776,20,f,2,18,2018_Oct_29_1405,MP_PerceptionTuring2,59.951339825059875,
227,resources/videos_generated\model(vcgpdm)-dataset(walking)-mode(ELBO)-parts(2)-dyn(25)-lvm(18)_final(8).mov,resources/videos_natural\training(28).mov,False,True,left,0,226,226,226,2018-10-29 14:30:47.551056,2018-10-29 14:30:51.454279,0:00:03.903223,6,left,1,0.2339053913292446,20,f,2,18,2018_Oct_29_1405,MP_PerceptionTuring2,59.951339825059875,
228,resources/videos_generated\model(vcgpdm)-dataset(walking)-mode(ELBO)-parts(1)-dyn(27)-lvm(26)_final(6).mov,resources/videos_natural\training(30).mov,True,False,right,0,227,227,227,2018-10-29 14:30:52.805357,2018-10-29 14:30:56.875589,0:00:04.070232,6,right,1,0.3838717653634376,20,f,2,18,2018_Oct_29_1405,MP_PerceptionTuring2,59.951339825059875,
229,resources/videos_generated\model(vcgpdm)-dataset(walking)-mode(ELBO)-parts(2)-dyn(26)-lvm(23)_final(2).mov,resources/videos_natural\training(16).mov,True,False,right,0,228,228,228,2018-10-29 14:30:58.376675,2018-10-29 14:31:02.463909,0:00:04.087234,6,left,0,0.25042743974881887,20,f,2,18,2018_Oct_29_1405,MP_PerceptionTuring2,59.951339825059875,
230,resources/videos_generated\model(dmp)-dataset(walking)-npsi(100)_final(5).mov,resources/videos_natural\training(11).mov,False,True,left,0,229,229,229,2018-10-29 14:31:03.831987,2018-10-29 14:31:07.952223,0:00:04.120236,6,right,0,0.48399672203231603,20,f,2,18,2018_Oct_29_1405,MP_PerceptionTuring2,59.951339825059875,
231,resources/videos_generated\model(vcgpdm)-dataset(walking)-mode(ELBO)-parts(2)-dyn(26)-lvm(17)_final(2).mov,resources/videos_natural\training(26).mov,True,True,left,0,230,230,230,2018-10-29 14:31:09.553315,2018-10-29 14:31:13.673550,0:00:04.120235,6,left,1,0.30063869753576,20,f,2,18,2018_Oct_29_1405,MP_PerceptionTuring2,59.951339825059875,
232,resources/videos_generated\model(vcgpdm)-dataset(walking)-mode(ELBO)-parts(2)-dyn(26)-lvm(19)_final(2).mov,resources/videos_natural\training(48).mov,True,False,right,0,231,231,231,2018-10-29 14:31:15.091631,2018-10-29 14:31:19.194866,0:00:04.103235,6,right,1,0.3005549714471272,20,f,2,18,2018_Oct_29_1405,MP_PerceptionTuring2,59.951339825059875,
233,resources/videos_generated\model(vcgpdm)-dataset(walking)-mode(ELBO)-parts(2)-dyn(26)-lvm(17)_final(6).mov,resources/videos_natural\training(10).mov,False,False,right,0,232,232,232,2018-10-29 14:31:20.612947,2018-10-29 14:31:24.716182,0:00:04.103235,6,left,0,1.084392583796216,20,f,2,18,2018_Oct_29_1405,MP_PerceptionTuring2,59.951339825059875,
234,resources/videos_generated\model(vcgpdm)-dataset(walking)-mode(ELBO)-parts(1)-dyn(23)-lvm(24)_final(2).mov,resources/videos_natural\training(43).mov,True,False,right,0,233,233,233,2018-10-29 14:31:26.918308,2018-10-29 14:31:31.021542,0:00:04.103234,6,right,1,2.8860159663836384,20,f,2,18,2018_Oct_29_1405,MP_PerceptionTuring2,59.951339825059875,
235,resources/videos_generated\model(vcgpdm)-dataset(walking)-mode(ELBO)-parts(2)-dyn(23)-lvm(20)_final(8).mov,resources/videos_natural\training(48).mov,True,False,right,0,234,234,234,2018-10-29 14:31:35.025772,2018-10-29 14:31:39.129006,0:00:04.103234,6,right,1,0.3839437457063468,20,f,2,18,2018_Oct_29_1405,MP_PerceptionTuring2,59.951339825059875,
236,resources/videos_generated\model(vcgpdm)-dataset(walking)-mode(ELBO)-parts(1)-dyn(24)-lvm(23)_final(1).mov,resources/videos_natural\training(20).mov,True,True,left,0,235,235,235,2018-10-29 14:31:40.630092,2018-10-29 14:31:44.734327,0:00:04.104235,6,left,1,0.35047258558006433,20,f,2,18,2018_Oct_29_1405,MP_PerceptionTuring2,59.951339825059875,
237,resources/videos_generated\model(tmp)-dataset(walking)-numprim(14)_final(1).mov,resources/videos_natural\training(3).mov,False,False,right,0,236,236,236,2018-10-29 14:31:46.202411,2018-10-29 14:31:50.305645,0:00:04.103234,6,left,0,0.5340266736857302,20,f,2,18,2018_Oct_29_1405,MP_PerceptionTuring2,59.951339825059875,
238,resources/videos_generated\model(vcgpdm)-dataset(walking)-mode(ELBO)-parts(2)-dyn(25)-lvm(20)_final(2).mov,resources/videos_natural\training(40).mov,True,False,right,0,237,237,237,2018-10-29 14:31:51.956740,2018-10-29 14:31:55.909966,0:00:03.953226,6,left,0,0.48406659416468756,20,f,2,18,2018_Oct_29_1405,MP_PerceptionTuring2,59.951339825059875,
239,resources/videos_generated\model(tmp)-dataset(walking)-numprim(14)_final(9).mov,resources/videos_natural\training(41).mov,False,False,right,0,238,238,238,2018-10-29 14:31:57.512058,2018-10-29 14:32:01.632293,0:00:04.120235,6,right,1,0.3672415958426427,20,f,2,18,2018_Oct_29_1405,MP_PerceptionTuring2,59.951339825059875,
240,resources/videos_generated\model(vcgpdm)-dataset(walking)-mode(ELBO)-parts(1)-dyn(23)-lvm(28)_final(7).mov,resources/videos_natural\training(40).mov,True,False,right,0,239,239,239,2018-10-29 14:32:03.116378,2018-10-29 14:32:07.236614,0:00:04.120236,6,left,0,0.3505150509681698,20,f,2,18,2018_Oct_29_1405,MP_PerceptionTuring2,59.951339825059875,
241,resources/videos_generated\model(vcgpdm)-dataset(walking)-mode(ELBO)-parts(1)-dyn(22)-lvm(25)_final(5).mov,resources/videos_natural\training(47).mov,False,False,right,0,240,240,240,2018-10-29 14:32:08.704698,2018-10-29 14:32:12.774931,0:00:04.070233,6,right,1,0.7676694421752472,20,f,2,18,2018_Oct_29_1405,MP_PerceptionTuring2,59.951339825059875,
242,resources/videos_generated\model(vcgpdm)-dataset(walking)-mode(ELBO)-parts(2)-dyn(23)-lvm(18)_final(8).mov,resources/videos_natural\training(45).mov,True,True,left,0,241,241,241,2018-10-29 14:32:14.660038,2018-10-29 14:32:18.763273,0:00:04.103235,6,right,0,0.6340558573483577,20,f,2,18,2018_Oct_29_1405,MP_PerceptionTuring2,59.951339825059875,
243,resources/videos_generated\model(vcgpdm)-dataset(walking)-mode(ELBO)-parts(2)-dyn(24)-lvm(17)_final(0).mov,resources/videos_natural\training(37).mov,False,False,right,0,242,242,242,2018-10-29 14:32:20.514373,2018-10-29 14:32:24.602607,0:00:04.088234,6,left,0,0.8176126560119883,20,f,2,18,2018_Oct_29_1405,MP_PerceptionTuring2,59.951339825059875,
244,resources/videos_generated\model(vcgpdm)-dataset(walking)-mode(ELBO)-parts(2)-dyn(28)-lvm(23)_final(2).mov,resources/videos_natural\training(20).mov,False,False,right,0,243,243,243,2018-10-29 14:32:26.536718,2018-10-29 14:32:30.606951,0:00:04.070233,6,right,1,0.6341133813857596,20,f,2,18,2018_Oct_29_1405,MP_PerceptionTuring2,59.951339825059875,
245,resources/videos_generated\model(vcgpdm)-dataset(walking)-mode(ELBO)-parts(1)-dyn(26)-lvm(27)_final(6).mov,resources/videos_natural\training(29).mov,True,True,left,0,244,244,244,2018-10-29 14:32:32.358051,2018-10-29 14:32:36.462285,0:00:04.104234,6,left,1,0.3840464456916379,20,f,2,18,2018_Oct_29_1405,MP_PerceptionTuring2,59.951339825059875,
246,resources/videos_generated\model(vcgpdm)-dataset(walking)-mode(ELBO)-parts(2)-dyn(22)-lvm(21)_final(8).mov,resources/videos_natural\training(46).mov,False,False,right,0,245,245,245,2018-10-29 14:32:37.963371,2018-10-29 14:32:42.050605,0:00:04.087234,6,left,0,0.4172375149482832,20,f,2,18,2018_Oct_29_1405,MP_PerceptionTuring2,59.951339825059875,
247,resources/videos_generated\model(tmp)-dataset(walking)-numprim(13)_final(7).mov,resources/videos_natural\training(44).mov,True,False,right,0,246,246,246,2018-10-29 14:32:43.584693,2018-10-29 14:32:47.487916,0:00:03.903223,6,left,0,0.333901445961601,20,f,2,18,2018_Oct_29_1405,MP_PerceptionTuring2,59.951339825059875,
248,resources/videos_generated\model(vcgpdm)-dataset(walking)-mode(ELBO)-parts(1)-dyn(27)-lvm(22)_final(8).mov,resources/videos_natural\training(47).mov,True,False,right,0,247,247,247,2018-10-29 14:32:48.938999,2018-10-29 14:32:53.043234,0:00:04.104235,6,left,0,0.33382524919761636,20,f,2,18,2018_Oct_29_1405,MP_PerceptionTuring2,59.951339825059875,
249,resources/videos_generated\model(vcgpdm)-dataset(walking)-mode(ELBO)-parts(2)-dyn(22)-lvm(17)_final(2).mov,resources/videos_natural\training(34).mov,True,False,right,0,248,248,248,2018-10-29 14:32:54.494317,2018-10-29 14:32:58.430542,0:00:03.936225,6,left,0,0.7343314005065622,20,f,2,18,2018_Oct_29_1405,MP_PerceptionTuring2,59.951339825059875,
250,resources/videos_generated\model(dmp)-dataset(walking)-npsi(80)_final(1).mov,resources/videos_natural\training(23).mov,False,False,right,0,249,249,249,2018-10-29 14:33:00.282648,2018-10-29 14:33:04.235874,0:00:03.953226,6,right,1,0.9675874628919701,20,f,2,18,2018_Oct_29_1405,MP_PerceptionTuring2,59.951339825059875,
251,resources/videos_generated\model(vcgpdm)-dataset(walking)-mode(ELBO)-parts(2)-dyn(25)-lvm(18)_final(2).mov,resources/videos_natural\training(22).mov,True,False,right,0,250,250,250,2018-10-29 14:33:06.320993,2018-10-29 14:33:10.424228,0:00:04.103235,6,left,0,0.38386513955992996,20,f,2,18,2018_Oct_29_1405,MP_PerceptionTuring2,59.951339825059875,
252,resources/videos_generated\model(vcgpdm)-dataset(walking)-mode(ELBO)-parts(1)-dyn(23)-lvm(22)_final(0).mov,resources/videos_natural\training(4).mov,False,True,left,0,251,251,251,2018-10-29 14:33:11.926314,2018-10-29 14:33:16.046550,0:00:04.120236,6,right,0,0.5508176695766451,20,f,2,18,2018_Oct_29_1405,MP_PerceptionTuring2,59.951339825059875,
253,resources/videos_generated\model(vcgpdm)-dataset(walking)-mode(ELBO)-parts(2)-dyn(25)-lvm(20)_final(8).mov,resources/videos_natural\training(30).mov,True,False,right,0,252,252,252,2018-10-29 14:33:17.714645,2018-10-29 14:33:21.817880,0:00:04.103235,6,right,1,0.46725451616475766,20,f,2,18,2018_Oct_29_1405,MP_PerceptionTuring2,59.951339825059875,
254,resources/videos_generated\model(vcgpdm)-dataset(walking)-mode(ELBO)-parts(2)-dyn(26)-lvm(19)_final(0).mov,resources/videos_natural\training(32).mov,True,True,left,0,253,253,253,2018-10-29 14:33:23.402970,2018-10-29 14:33:27.523206,0:00:04.120236,6,right,0,0.4838807704363717,20,f,2,18,2018_Oct_29_1405,MP_PerceptionTuring2,59.951339825059875,
255,resources/videos_generated\model(vcgpdm)-dataset(walking)-mode(ELBO)-parts(1)-dyn(22)-lvm(27)_final(3)_fail.mov,resources/videos_natural\training(44).mov,False,False,right,0,254,254,254,2018-10-29 14:33:29.124298,2018-10-29 14:33:33.194530,0:00:04.070232,6,right,1,0.333880363852586,20,f,2,18,2018_Oct_29_1405,MP_PerceptionTuring2,59.951339825059875,
256,resources/videos_generated\model(vcgpdm)-dataset(walking)-mode(ELBO)-parts(1)-dyn(24)-lvm(27)_final(3).mov,resources/videos_natural\training(46).mov,False,True,left,0,255,255,255,2018-10-29 14:33:34.645613,2018-10-29 14:33:38.732847,0:00:04.087234,6,right,0,0.6175064021845174,20,f,2,18,2018_Oct_29_1405,MP_PerceptionTuring2,59.951339825059875,
257,resources/videos_generated\model(tmp)-dataset(walking)-numprim(13)_final(3).mov,resources/videos_natural\training(6).mov,True,False,right,0,256,256,256,2018-10-29 14:33:40.466946,2018-10-29 14:33:44.621184,0:00:04.154238,6,right,1,0.2837389781980164,20,f,2,18,2018_Oct_29_1405,MP_PerceptionTuring2,59.951339825059875,
258,resources/videos_generated\model(vcgpdm)-dataset(walking)-mode(ELBO)-parts(1)-dyn(26)-lvm(25)_final(6).mov,resources/videos_natural\training(4).mov,True,True,left,0,257,257,257,2018-10-29 14:33:46.022264,2018-10-29 14:33:50.142500,0:00:04.120236,6,left,1,0.4674355211245711,20,f,2,18,2018_Oct_29_1405,MP_PerceptionTuring2,59.951339825059875,
259,resources/videos_generated\model(vcgpdm)-dataset(walking)-mode(ELBO)-parts(2)-dyn(24)-lvm(23)_final(8).mov,resources/videos_natural\training(26).mov,True,True,left,0,258,258,258,2018-10-29 14:33:51.726590,2018-10-29 14:33:55.813824,0:00:04.087234,6,right,0,0.8508693809781107,20,f,2,18,2018_Oct_29_1405,MP_PerceptionTuring2,59.951339825059875,
260,resources/videos_generated\model(vcgpdm)-dataset(walking)-mode(ELBO)-parts(2)-dyn(24)-lvm(17)_final(4).mov,resources/videos_natural\training(31).mov,False,True,left,0,259,259,259,2018-10-29 14:33:57.781937,2018-10-29 14:34:01.902172,0:00:04.120235,6,left,1,0.26723500015577883,20,f,2,18,2018_Oct_29_1405,MP_PerceptionTuring2,59.951339825059875,
261,resources/videos_generated\model(vcgpdm)-dataset(walking)-mode(ELBO)-parts(1)-dyn(22)-lvm(22)_final(1).mov,resources/videos_natural\training(7).mov,False,True,left,0,260,260,260,2018-10-29 14:34:03.287252,2018-10-29 14:34:07.223477,0:00:03.936225,6,left,1,1.4013783482532745,20,f,2,18,2018_Oct_29_1405,MP_PerceptionTuring2,59.951339825059875,
262,resources/videos_generated\model(vcgpdm)-dataset(walking)-mode(ELBO)-parts(2)-dyn(28)-lvm(17)_final(6).mov,resources/videos_natural\training(43).mov,False,False,right,0,261,261,261,2018-10-29 14:34:09.742621,2018-10-29 14:34:13.829855,0:00:04.087234,6,left,0,0.4840295498870546,20,f,2,18,2018_Oct_29_1405,MP_PerceptionTuring2,59.951339825059875,
263,resources/videos_generated\model(vcgpdm)-dataset(walking)-mode(ELBO)-parts(1)-dyn(26)-lvm(25)_final(0).mov,resources/videos_natural\training(35).mov,True,False,right,0,262,262,262,2018-10-29 14:34:15.430946,2018-10-29 14:34:19.534181,0:00:04.103235,6,right,1,0.40055433898487536,20,f,2,18,2018_Oct_29_1405,MP_PerceptionTuring2,59.951339825059875,
264,resources/videos_generated\model(dmp)-dataset(walking)-npsi(100)_final(7).mov,resources/videos_natural\training(11).mov,False,False,right,0,263,263,263,2018-10-29 14:34:21.052268,2018-10-29 14:34:25.122500,0:00:04.070232,6,left,0,0.33396077703764604,20,f,2,18,2018_Oct_29_1405,MP_PerceptionTuring2,59.951339825059875,
265,resources/videos_generated\model(vcgpdm)-dataset(walking)-mode(ELBO)-parts(2)-dyn(28)-lvm(23)_final(8).mov,resources/videos_natural\training(9).mov,True,False,right,0,264,264,264,2018-10-29 14:34:26.573583,2018-10-29 14:34:30.710820,0:00:04.137237,6,left,0,0.3172785045917408,20,f,2,18,2018_Oct_29_1405,MP_PerceptionTuring2,59.951339825059875,
266,resources/videos_generated\model(vcgpdm)-dataset(walking)-mode(ELBO)-parts(2)-dyn(24)-lvm(19)_final(8).mov,resources/videos_natural\training(31).mov,False,True,left,0,265,265,265,2018-10-29 14:34:32.144902,2018-10-29 14:34:36.065126,0:00:03.920224,6,right,0,0.3002935533022537,20,f,2,18,2018_Oct_29_1405,MP_PerceptionTuring2,59.951339825059875,
267,resources/videos_generated\model(vcgpdm)-dataset(walking)-mode(ELBO)-parts(2)-dyn(27)-lvm(18)_final(2).mov,resources/videos_natural\training(38).mov,True,False,right,0,266,266,266,2018-10-29 14:34:37.483207,2018-10-29 14:34:41.420433,0:00:03.937226,6,left,0,0.5006561053342011,20,f,2,18,2018_Oct_29_1405,MP_PerceptionTuring2,59.951339825059875,
268,resources/videos_generated\model(tmp)-dataset(walking)-numprim(15)_final(7).mov,resources/videos_natural\training(15).mov,True,True,left,0,267,267,267,2018-10-29 14:34:43.038525,2018-10-29 14:34:46.974750,0:00:03.936225,6,right,0,0.6508233617478254,20,f,2,18,2018_Oct_29_1405,MP_PerceptionTuring2,59.951339825059875,
269,resources/videos_generated\model(vcgpdm)-dataset(walking)-mode(ELBO)-parts(1)-dyn(22)-lvm(22)_final(9).mov,resources/videos_natural\training(16).mov,False,False,right,0,268,268,268,2018-10-29 14:34:48.742852,2018-10-29 14:34:52.830085,0:00:04.087233,6,right,1,0.40056789176742313,20,f,2,18,2018_Oct_29_1405,MP_PerceptionTuring2,59.951339825059875,
270,resources/videos_generated\model(vcgpdm)-dataset(walking)-mode(ELBO)-parts(2)-dyn(23)-lvm(22)_final(6).mov,resources/videos_natural\training(42).mov,True,True,left,0,269,269,269,2018-10-29 14:34:54.348172,2018-10-29 14:34:58.434406,0:00:04.086234,6,left,1,0.40075311315013096,20,f,2,18,2018_Oct_29_1405,MP_PerceptionTuring2,59.951339825059875,
271,resources/videos_generated\model(vcgpdm)-dataset(walking)-mode(ELBO)-parts(2)-dyn(27)-lvm(20)_final(6).mov,resources/videos_natural\training(26).mov,False,False,right,0,270,270,270,2018-10-29 14:35:31.980325,2018-10-29 14:35:36.117561,0:00:04.137236,7,right,1,0.45073608181883174,20,f,2,18,2018_Oct_29_1405,MP_PerceptionTuring2,59.951339825059875,
272,resources/videos_generated\model(vcgpdm)-dataset(walking)-mode(ELBO)-parts(1)-dyn(28)-lvm(24)_final(0).mov,resources/videos_natural\training(2).mov,True,False,right,0,271,271,271,2018-10-29 14:35:37.685651,2018-10-29 14:35:41.771885,0:00:04.086234,7,right,1,0.367244607574321,20,f,2,18,2018_Oct_29_1405,MP_PerceptionTuring2,59.951339825059875,
273,resources/videos_generated\model(vcgpdm)-dataset(walking)-mode(ELBO)-parts(2)-dyn(22)-lvm(19)_final(8).mov,resources/videos_natural\training(48).mov,True,False,right,0,272,272,272,2018-10-29 14:35:43.256970,2018-10-29 14:35:47.193195,0:00:03.936225,7,right,1,0.33390445769146027,20,f,2,18,2018_Oct_29_1405,MP_PerceptionTuring2,59.951339825059875,
274,resources/videos_generated\model(tmp)-dataset(walking)-numprim(14)_final(3).mov,resources/videos_natural\training(31).mov,False,True,left,0,273,273,273,2018-10-29 14:35:48.644278,2018-10-29 14:35:52.598504,0:00:03.954226,7,right,0,0.26724373417164315,20,f,2,18,2018_Oct_29_1405,MP_PerceptionTuring2,59.951339825059875,
275,resources/videos_generated\model(vcgpdm)-dataset(walking)-mode(ELBO)-parts(1)-dyn(24)-lvm(25)_final(9).mov,resources/videos_natural\training(34).mov,True,False,right,0,274,274,274,2018-10-29 14:35:53.982583,2018-10-29 14:35:57.919808,0:00:03.937225,7,right,1,0.3004706430128863,20,f,2,18,2018_Oct_29_1405,MP_PerceptionTuring2,59.951339825059875,
276,resources/videos_generated\model(vcgpdm)-dataset(walking)-mode(ELBO)-parts(1)-dyn(23)-lvm(26)_final(0).mov,resources/videos_natural\training(40).mov,True,True,left,0,275,275,275,2018-10-29 14:35:59.336889,2018-10-29 14:36:03.241113,0:00:03.904224,7,right,0,0.4672316270170995,20,f,2,18,2018_Oct_29_1405,MP_PerceptionTuring2,59.951339825059875,
277,resources/videos_generated\model(vcgpdm)-dataset(walking)-mode(ELBO)-parts(2)-dyn(25)-lvm(22)_final(0).mov,resources/videos_natural\training(12).mov,True,True,left,0,276,276,276,2018-10-29 14:36:04.825203,2018-10-29 14:36:08.728426,0:00:03.903223,7,left,1,0.4673502891710086,20,f,2,18,2018_Oct_29_1405,MP_PerceptionTuring2,59.951339825059875,
278,resources/videos_generated\model(dmp)-dataset(walking)-npsi(90)_final(9).mov,resources/videos_natural\training(21).mov,True,False,right,0,277,277,277,2018-10-29 14:36:10.313517,2018-10-29 14:36:14.250742,0:00:03.937225,7,right,1,0.2504735192142107,20,f,2,18,2018_Oct_29_1405,MP_PerceptionTuring2,59.951339825059875,
279,resources/videos_generated\model(dmp)-dataset(walking)-npsi(70)_final(9).mov,resources/videos_natural\training(16).mov,True,True,left,0,278,278,278,2018-10-29 14:36:15.617820,2018-10-29 14:36:19.538045,0:00:03.920225,7,left,1,0.23368131863207964,20,f,2,18,2018_Oct_29_1405,MP_PerceptionTuring2,59.951339825059875,
280,resources/videos_generated\model(vcgpdm)-dataset(walking)-mode(ELBO)-parts(2)-dyn(24)-lvm(19)_final(4).mov,resources/videos_natural\training(23).mov,True,True,left,0,279,279,279,2018-10-29 14:36:20.889122,2018-10-29 14:36:24.809346,0:00:03.920224,7,left,1,0.4174715263543476,20,f,2,18,2018_Oct_29_1405,MP_PerceptionTuring2,59.951339825059875,
281,resources/videos_generated\model(vcgpdm)-dataset(walking)-mode(ELBO)-parts(1)-dyn(27)-lvm(22)_final(0).mov,resources/videos_natural\training(26).mov,True,False,right,0,280,280,280,2018-10-29 14:36:26.344434,2018-10-29 14:36:30.397666,0:00:04.053232,7,right,1,0.2171219247593399,20,f,2,18,2018_Oct_29_1405,MP_PerceptionTuring2,59.951339825059875,
282,resources/videos_generated\model(vcgpdm)-dataset(walking)-mode(ELBO)-parts(1)-dyn(23)-lvm(24)_final(8).mov,resources/videos_natural\training(33).mov,False,False,right,0,281,281,281,2018-10-29 14:36:31.731742,2018-10-29 14:36:35.801975,0:00:04.070233,7,right,1,0.2836576614936348,20,f,2,18,2018_Oct_29_1405,MP_PerceptionTuring2,59.951339825059875,
283,resources/videos_generated\model(dmp)-dataset(walking)-npsi(70)_final(5).mov,resources/videos_natural\training(8).mov,True,True,left,0,282,282,282,2018-10-29 14:36:37.203055,2018-10-29 14:36:41.323291,0:00:04.120236,7,left,1,0.2838883599961264,20,f,2,18,2018_Oct_29_1405,MP_PerceptionTuring2,59.951339825059875,
284,resources/videos_generated\model(vcgpdm)-dataset(walking)-mode(ELBO)-parts(2)-dyn(26)-lvm(23)_final(4).mov,resources/videos_natural\training(19).mov,False,False,right,0,283,283,283,2018-10-29 14:36:42.725371,2018-10-29 14:36:46.794604,0:00:04.069233,7,right,1,0.5007440478439094,20,f,2,18,2018_Oct_29_1405,MP_PerceptionTuring2,59.951339825059875,
285,resources/videos_generated\model(vcgpdm)-dataset(walking)-mode(ELBO)-parts(2)-dyn(28)-lvm(19)_final(0).mov,resources/videos_natural\training(40).mov,False,False,right,0,284,284,284,2018-10-29 14:36:48.412696,2018-10-29 14:36:52.499930,0:00:04.087234,7,right,1,0.28377602247564937,20,f,2,18,2018_Oct_29_1405,MP_PerceptionTuring2,59.951339825059875,
286,resources/videos_generated\model(vcgpdm)-dataset(walking)-mode(ELBO)-parts(2)-dyn(24)-lvm(23)_final(2).mov,resources/videos_natural\training(32).mov,False,True,left,0,285,285,285,2018-10-29 14:36:53.901010,2018-10-29 14:36:58.004245,0:00:04.103235,7,left,1,0.350650879983732,20,f,2,18,2018_Oct_29_1405,MP_PerceptionTuring2,59.951339825059875,
287,resources/videos_generated\model(vcgpdm)-dataset(walking)-mode(ELBO)-parts(2)-dyn(23)-lvm(18)_final(2).mov,resources/videos_natural\training(9).mov,False,False,right,0,286,286,286,2018-10-29 14:36:59.472329,2018-10-29 14:37:03.576564,0:00:04.104235,7,right,1,0.3840590949566831,20,f,2,18,2018_Oct_29_1405,MP_PerceptionTuring2,59.951339825059875,
288,resources/videos_generated\model(vcgpdm)-dataset(walking)-mode(ELBO)-parts(2)-dyn(27)-lvm(20)_final(4).mov,resources/videos_natural\training(22).mov,True,True,left,0,287,287,287,2018-10-29 14:37:05.077649,2018-10-29 14:37:08.980873,0:00:03.903224,7,left,1,0.3338002518412395,20,f,2,18,2018_Oct_29_1405,MP_PerceptionTuring2,59.951339825059875,
289,resources/videos_generated\model(vcgpdm)-dataset(walking)-mode(ELBO)-parts(1)-dyn(26)-lvm(27)_final(4).mov,resources/videos_natural\training(13).mov,False,False,right,0,288,288,288,2018-10-29 14:37:10.431956,2018-10-29 14:37:14.369181,0:00:03.937225,7,left,0,0.233722579328969,20,f,2,18,2018_Oct_29_1405,MP_PerceptionTuring2,59.951339825059875,
290,resources/videos_generated\model(vcgpdm)-dataset(walking)-mode(ELBO)-parts(2)-dyn(28)-lvm(19)_final(6).mov,resources/videos_natural\training(24).mov,False,False,right,0,289,289,289,2018-10-29 14:37:15.720258,2018-10-29 14:37:19.823493,0:00:04.103235,7,right,1,0.3671069715219346,20,f,2,18,2018_Oct_29_1405,MP_PerceptionTuring2,59.951339825059875,
