n_trial,mov_file_generated,mov_file_natural,mirrored,switch_stim_pos,correct_answer,trials.thisRepN,trials.thisTrialN,trials.thisN,trials.thisIndex,stimulus_onset,stimulus_off,stimulus_length,block,response.keys,response.corr,response.rt,age,gender,condition,participant,date,expName,frameRate,
1,resources/videos_generated\model(vcgpdm)-dataset(walking)-mode(ELBO)-parts(1)-dyn(23)-lvm(26)_final(5)_hip-corrected.mov,resources/videos_natural\training(14).mov,True,True,left,0,0,0,0,2018-10-31 14:57:51.714426,2018-10-31 14:57:56.368693,0:00:04.654267,1,right,0,2.985972266185115,19,f,1,19,2018_Oct_31_1456,MP_PerceptionTuring2,59.929590175475745,
2,resources/videos_generated\model(vcgpdm)-dataset(walking)-mode(ELBO)-parts(1)-dyn(23)-lvm(28)_final(4)_hip-corrected.mov,resources/videos_natural\training(22).mov,False,True,left,0,1,1,1,2018-10-31 14:58:00.554932,2018-10-31 14:58:04.508158,0:00:03.953226,1,right,0,0.4338279296375731,19,f,1,19,2018_Oct_31_1456,MP_PerceptionTuring2,59.929590175475745,
3,resources/videos_generated\model(dmp)-dataset(walking)-npsi(100)_final(8).mov,resources/videos_natural\training(29).mov,True,False,right,0,2,2,2,2018-10-31 14:58:06.060247,2018-10-31 14:58:09.996472,0:00:03.936225,1,left,0,0.6175335077526256,19,f,1,19,2018_Oct_31_1456,MP_PerceptionTuring2,59.929590175475745,
4,resources/videos_generated\model(vcgpdm)-dataset(walking)-mode(ELBO)-parts(2)-dyn(28)-lvm(17)_final(5).mov,resources/videos_natural\training(48).mov,False,True,left,0,3,3,3,2018-10-31 14:58:11.798575,2018-10-31 14:58:15.701798,0:00:03.903223,1,left,1,0.6174091233125978,19,f,1,19,2018_Oct_31_1456,MP_PerceptionTuring2,59.929590175475745,
5,resources/videos_generated\model(vcgpdm)-dataset(walking)-mode(ELBO)-parts(1)-dyn(23)-lvm(26)_final(7).mov,resources/videos_natural\training(21).mov,False,False,right,0,4,4,4,2018-10-31 14:58:17.436898,2018-10-31 14:58:21.540132,0:00:04.103234,1,right,1,0.28365133686168065,19,f,1,19,2018_Oct_31_1456,MP_PerceptionTuring2,59.929590175475745,
6,resources/videos_generated\model(vcgpdm)-dataset(walking)-mode(ELBO)-parts(1)-dyn(24)-lvm(25)_final(0).mov,resources/videos_natural\training(8).mov,True,True,left,0,5,5,5,2018-10-31 14:58:22.941213,2018-10-31 14:58:26.861437,0:00:03.920224,1,left,1,0.2503196198233013,19,f,1,19,2018_Oct_31_1456,MP_PerceptionTuring2,59.929590175475745,
7,resources/videos_generated\model(vcgpdm)-dataset(walking)-mode(ELBO)-parts(2)-dyn(28)-lvm(23)_final(3).mov,resources/videos_natural\training(15).mov,True,False,right,0,6,6,6,2018-10-31 14:58:28.229515,2018-10-31 14:58:32.315749,0:00:04.086234,1,left,0,0.31708756092348267,19,f,1,19,2018_Oct_31_1456,MP_PerceptionTuring2,59.929590175475745,
8,resources/videos_generated\model(vcgpdm)-dataset(walking)-mode(ELBO)-parts(1)-dyn(25)-lvm(25)_final(2).mov,resources/videos_natural\training(22).mov,True,False,right,0,7,7,7,2018-10-31 14:58:33.750831,2018-10-31 14:58:37.854066,0:00:04.103235,1,left,0,0.5340555862919132,19,f,1,19,2018_Oct_31_1456,MP_PerceptionTuring2,59.929590175475745,
9,resources/videos_generated\model(vcgpdm)-dataset(walking)-mode(ELBO)-parts(1)-dyn(23)-lvm(26)_final(3)_hip-corrected.mov,resources/videos_natural\training(37).mov,True,False,right,0,8,8,8,2018-10-31 14:58:39.505160,2018-10-31 14:58:43.609395,0:00:04.104235,1,left,0,0.5172124874749784,19,f,1,19,2018_Oct_31_1456,MP_PerceptionTuring2,59.929590175475745,
10,resources/videos_generated\model(vcgpdm)-dataset(walking)-mode(ELBO)-parts(1)-dyn(27)-lvm(22)_final(3).mov,resources/videos_natural\training(20).mov,True,True,left,0,9,9,9,2018-10-31 14:58:45.243488,2018-10-31 14:58:49.330722,0:00:04.087234,1,right,0,0.28371277614922974,19,f,1,19,2018_Oct_31_1456,MP_PerceptionTuring2,59.929590175475745,
11,resources/videos_generated\model(vcgpdm)-dataset(walking)-mode(ELBO)-parts(1)-dyn(24)-lvm(23)_final(8).mov,resources/videos_natural\training(48).mov,False,False,right,0,10,10,10,2018-10-31 14:58:50.731802,2018-10-31 14:58:54.669027,0:00:03.937225,1,left,0,0.7676266756135419,19,f,1,19,2018_Oct_31_1456,MP_PerceptionTuring2,59.929590175475745,
12,resources/videos_generated\model(vcgpdm)-dataset(walking)-mode(ELBO)-parts(2)-dyn(24)-lvm(23)_final(9).mov,resources/videos_natural\training(24).mov,True,False,right,0,11,11,11,2018-10-31 14:58:56.553135,2018-10-31 14:59:00.657370,0:00:04.104235,1,left,0,0.367354234537288,19,f,1,19,2018_Oct_31_1456,MP_PerceptionTuring2,59.929590175475745,
13,resources/videos_generated\model(vcgpdm)-dataset(walking)-mode(ELBO)-parts(1)-dyn(27)-lvm(26)_final(5).mov,resources/videos_natural\training(23).mov,True,True,left,0,12,12,12,2018-10-31 14:59:02.141455,2018-10-31 14:59:06.044678,0:00:03.903223,1,left,1,0.5173980100296376,19,f,1,19,2018_Oct_31_1456,MP_PerceptionTuring2,59.929590175475745,
14,resources/videos_generated\model(vcgpdm)-dataset(walking)-mode(ELBO)-parts(2)-dyn(27)-lvm(18)_final(3).mov,resources/videos_natural\training(21).mov,True,False,right,0,13,13,13,2018-10-31 14:59:07.679771,2018-10-31 14:59:11.599996,0:00:03.920225,1,left,0,0.9177644170752046,19,f,1,19,2018_Oct_31_1456,MP_PerceptionTuring2,59.929590175475745,
15,resources/videos_generated\model(vcgpdm)-dataset(walking)-mode(ELBO)-parts(2)-dyn(24)-lvm(17)_final(5).mov,resources/videos_natural\training(37).mov,False,False,right,0,14,14,14,2018-10-31 14:59:13.635112,2018-10-31 14:59:17.538335,0:00:03.903223,1,left,0,0.41720589178675027,19,f,1,19,2018_Oct_31_1456,MP_PerceptionTuring2,59.929590175475745,
16,resources/videos_generated\model(vcgpdm)-dataset(walking)-mode(ELBO)-parts(1)-dyn(28)-lvm(24)_final(2).mov,resources/videos_natural\training(6).mov,True,False,right,0,15,15,15,2018-10-31 14:59:19.073423,2018-10-31 14:59:23.109654,0:00:04.036231,1,left,0,0.23376112947096317,19,f,1,19,2018_Oct_31_1456,MP_PerceptionTuring2,59.929590175475745,
17,resources/videos_generated\model(vcgpdm)-dataset(walking)-mode(ELBO)-parts(1)-dyn(27)-lvm(24)_final(7).mov,resources/videos_natural\training(37).mov,False,True,left,0,16,16,16,2018-10-31 14:59:24.460731,2018-10-31 14:59:28.547965,0:00:04.087234,1,right,0,0.267147961164369,19,f,1,19,2018_Oct_31_1456,MP_PerceptionTuring2,59.929590175475745,
18,resources/videos_generated\model(tmp)-dataset(walking)-numprim(15)_final(4).mov,resources/videos_natural\training(38).mov,False,True,left,0,17,17,17,2018-10-31 14:59:29.932044,2018-10-31 14:59:33.969275,0:00:04.037231,1,left,1,0.41730377300473265,19,f,1,19,2018_Oct_31_1456,MP_PerceptionTuring2,59.929590175475745,
19,resources/videos_generated\model(vcgpdm)-dataset(walking)-mode(ELBO)-parts(1)-dyn(26)-lvm(25)_final(9).mov,resources/videos_natural\training(18).mov,False,True,left,0,18,18,18,2018-10-31 14:59:35.504363,2018-10-31 14:59:39.590597,0:00:04.086234,1,left,1,0.18383688953360888,19,f,1,19,2018_Oct_31_1456,MP_PerceptionTuring2,59.929590175475745,
20,resources/videos_generated\model(vcgpdm)-dataset(walking)-mode(ELBO)-parts(1)-dyn(23)-lvm(26)_final(9).mov,resources/videos_natural\training(22).mov,False,True,left,0,19,19,19,2018-10-31 14:59:40.891671,2018-10-31 14:59:44.828896,0:00:03.937225,1,left,1,0.31726796353757436,19,f,1,19,2018_Oct_31_1456,MP_PerceptionTuring2,59.929590175475745,
21,resources/videos_generated\model(tmp)-dataset(walking)-numprim(13)_final(6).mov,resources/videos_natural\training(41).mov,True,True,left,0,20,20,20,2018-10-31 14:59:46.262978,2018-10-31 14:59:50.350212,0:00:04.087234,1,left,1,0.21703097052090925,19,f,1,19,2018_Oct_31_1456,MP_PerceptionTuring2,59.929590175475745,
22,resources/videos_generated\model(vcgpdm)-dataset(walking)-mode(ELBO)-parts(1)-dyn(22)-lvm(23)_final(2).mov,resources/videos_natural\training(18).mov,False,False,right,0,21,21,21,2018-10-31 14:59:51.684288,2018-10-31 14:59:55.587512,0:00:03.903224,1,right,1,0.2671100133690061,19,f,1,19,2018_Oct_31_1456,MP_PerceptionTuring2,59.929590175475745,
23,resources/videos_generated\model(vcgpdm)-dataset(walking)-mode(ELBO)-parts(1)-dyn(23)-lvm(22)_final(5)_fail.mov,resources/videos_natural\training(12).mov,True,True,left,0,22,22,22,2018-10-31 14:59:56.972591,2018-10-31 15:00:01.092826,0:00:04.120235,1,left,1,0.8508931736433851,19,f,1,19,2018_Oct_31_1456,MP_PerceptionTuring2,59.929590175475745,
24,resources/videos_generated\model(dmp)-dataset(walking)-npsi(90)_final(2).mov,resources/videos_natural\training(1).mov,True,True,left,0,23,23,23,2018-10-31 15:00:03.060939,2018-10-31 15:00:07.131172,0:00:04.070233,1,left,1,0.23379425849850577,19,f,1,19,2018_Oct_31_1456,MP_PerceptionTuring2,59.929590175475745,
25,resources/videos_generated\model(vcgpdm)-dataset(walking)-mode(ELBO)-parts(2)-dyn(22)-lvm(21)_final(7).mov,resources/videos_natural\training(3).mov,True,True,left,0,24,24,24,2018-10-31 15:00:08.482249,2018-10-31 15:00:12.586484,0:00:04.104235,1,right,0,0.23375360014642865,19,f,1,19,2018_Oct_31_1456,MP_PerceptionTuring2,59.929590175475745,
26,resources/videos_generated\model(vcgpdm)-dataset(walking)-mode(ELBO)-parts(1)-dyn(24)-lvm(23)_final(2).mov,resources/videos_natural\training(23).mov,True,False,right,0,25,25,25,2018-10-31 15:00:13.937561,2018-10-31 15:00:17.890787,0:00:03.953226,1,left,0,0.2004402546598385,19,f,1,19,2018_Oct_31_1456,MP_PerceptionTuring2,59.929590175475745,
27,resources/videos_generated\model(vcgpdm)-dataset(walking)-mode(ELBO)-parts(1)-dyn(22)-lvm(23)_final(6)_fail.mov,resources/videos_natural\training(22).mov,False,True,left,0,26,26,26,2018-10-31 15:00:19.207863,2018-10-31 15:00:23.295096,0:00:04.087233,1,left,1,0.6340935039700071,19,f,1,19,2018_Oct_31_1456,MP_PerceptionTuring2,59.929590175475745,
28,resources/videos_generated\model(vcgpdm)-dataset(walking)-mode(ELBO)-parts(2)-dyn(25)-lvm(20)_final(5).mov,resources/videos_natural\training(5).mov,False,False,right,0,27,27,27,2018-10-31 15:00:25.047197,2018-10-31 15:00:29.100428,0:00:04.053231,1,right,1,0.26718922186239524,19,f,1,19,2018_Oct_31_1456,MP_PerceptionTuring2,59.929590175475745,
29,resources/videos_generated\model(vcgpdm)-dataset(walking)-mode(ELBO)-parts(1)-dyn(25)-lvm(22)_final(2).mov,resources/videos_natural\training(2).mov,True,True,left,0,28,28,28,2018-10-31 15:00:30.484508,2018-10-31 15:00:34.588742,0:00:04.104234,1,left,1,0.217146620944618,19,f,1,19,2018_Oct_31_1456,MP_PerceptionTuring2,59.929590175475745,
30,resources/videos_generated\model(vcgpdm)-dataset(walking)-mode(ELBO)-parts(1)-dyn(22)-lvm(22)_final(0).mov,resources/videos_natural\training(7).mov,False,False,right,0,29,29,29,2018-10-31 15:00:35.922819,2018-10-31 15:00:39.910047,0:00:03.987228,1,right,1,0.28389920222286946,19,f,1,19,2018_Oct_31_1456,MP_PerceptionTuring2,59.929590175475745,
31,resources/videos_generated\model(vcgpdm)-dataset(walking)-mode(ELBO)-parts(2)-dyn(28)-lvm(19)_final(7).mov,resources/videos_natural\training(44).mov,False,False,right,0,30,30,30,2018-10-31 15:00:41.311127,2018-10-31 15:00:45.381360,0:00:04.070233,1,left,0,0.7508209222457936,19,f,1,19,2018_Oct_31_1456,MP_PerceptionTuring2,59.929590175475745,
32,resources/videos_generated\model(vcgpdm)-dataset(walking)-mode(ELBO)-parts(1)-dyn(28)-lvm(25)_final(9).mov,resources/videos_natural\training(48).mov,False,True,left,0,31,31,31,2018-10-31 15:00:47.249466,2018-10-31 15:00:51.169691,0:00:03.920225,1,right,0,0.3504909571306598,19,f,1,19,2018_Oct_31_1456,MP_PerceptionTuring2,59.929590175475745,
33,resources/videos_generated\model(vcgpdm)-dataset(walking)-mode(ELBO)-parts(1)-dyn(28)-lvm(27)_final(5).mov,resources/videos_natural\training(6).mov,False,False,right,0,32,32,32,2018-10-31 15:00:52.637775,2018-10-31 15:00:56.540998,0:00:03.903223,1,left,0,0.2669160579710024,19,f,1,19,2018_Oct_31_1456,MP_PerceptionTuring2,59.929590175475745,
34,resources/videos_generated\model(vcgpdm)-dataset(walking)-mode(ELBO)-parts(1)-dyn(22)-lvm(28)_final(7).mov,resources/videos_natural\training(25).mov,False,False,right,0,33,33,33,2018-10-31 15:00:57.925077,2018-10-31 15:01:01.828300,0:00:03.903223,1,left,0,0.3173251864034228,19,f,1,19,2018_Oct_31_1456,MP_PerceptionTuring2,59.929590175475745,
35,resources/videos_generated\model(vcgpdm)-dataset(walking)-mode(ELBO)-parts(1)-dyn(25)-lvm(26)_final(4)_fail.mov,resources/videos_natural\training(3).mov,False,False,right,0,34,34,34,2018-10-31 15:01:03.263382,2018-10-31 15:01:07.216609,0:00:03.953227,1,right,1,0.25045334062565416,19,f,1,19,2018_Oct_31_1456,MP_PerceptionTuring2,59.929590175475745,
36,resources/videos_generated\model(tmp)-dataset(walking)-numprim(15)_final(8).mov,resources/videos_natural\training(45).mov,False,True,left,0,35,35,35,2018-10-31 15:01:08.584687,2018-10-31 15:01:12.470909,0:00:03.886222,1,right,0,0.03350850557671947,19,f,1,19,2018_Oct_31_1456,MP_PerceptionTuring2,59.929590175475745,
37,resources/videos_generated\model(vcgpdm)-dataset(walking)-mode(ELBO)-parts(2)-dyn(22)-lvm(19)_final(9).mov,resources/videos_natural\training(2).mov,False,False,right,0,36,36,36,2018-10-31 15:01:13.621975,2018-10-31 15:01:17.525198,0:00:03.903223,1,right,1,0.38390820729489405,19,f,1,19,2018_Oct_31_1456,MP_PerceptionTuring2,59.929590175475745,
38,resources/videos_generated\model(vcgpdm)-dataset(walking)-mode(ELBO)-parts(1)-dyn(25)-lvm(24)_final(7).mov,resources/videos_natural\training(45).mov,True,False,right,0,37,37,37,2018-10-31 15:01:19.027284,2018-10-31 15:01:22.913506,0:00:03.886222,1,left,0,0.4006486061261967,19,f,1,19,2018_Oct_31_1456,MP_PerceptionTuring2,59.929590175475745,
39,resources/videos_generated\model(dmp)-dataset(walking)-npsi(80)_final(8).mov,resources/videos_natural\training(33).mov,True,True,left,0,38,38,38,2018-10-31 15:01:24.431593,2018-10-31 15:01:28.384819,0:00:03.953226,1,left,1,0.36725484745431913,19,f,1,19,2018_Oct_31_1456,MP_PerceptionTuring2,59.929590175475745,
40,resources/videos_generated\model(vcgpdm)-dataset(walking)-mode(ELBO)-parts(1)-dyn(23)-lvm(22)_final(3)_fail.mov,resources/videos_natural\training(29).mov,False,True,left,0,39,39,39,2018-10-31 15:01:29.869904,2018-10-31 15:01:33.790128,0:00:03.920224,1,left,1,0.5840560229927405,19,f,1,19,2018_Oct_31_1456,MP_PerceptionTuring2,59.929590175475745,
41,resources/videos_generated\model(vcgpdm)-dataset(walking)-mode(ELBO)-parts(1)-dyn(27)-lvm(24)_final(5).mov,resources/videos_natural\training(29).mov,True,True,left,0,40,40,40,2018-10-31 15:01:35.491226,2018-10-31 15:01:39.578460,0:00:04.087234,1,right,0,0.3006570690870376,19,f,1,19,2018_Oct_31_1456,MP_PerceptionTuring2,59.929590175475745,
42,resources/videos_generated\model(vcgpdm)-dataset(walking)-mode(ELBO)-parts(1)-dyn(22)-lvm(27)_final(2)_hip-corrected.mov,resources/videos_natural\training(12).mov,False,False,right,0,41,41,41,2018-10-31 15:01:40.995541,2018-10-31 15:01:44.898764,0:00:03.903223,1,left,0,0.2004095350159787,19,f,1,19,2018_Oct_31_1456,MP_PerceptionTuring2,59.929590175475745,
43,resources/videos_generated\model(vcgpdm)-dataset(walking)-mode(ELBO)-parts(2)-dyn(22)-lvm(17)_final(3).mov,resources/videos_natural\training(3).mov,True,False,right,0,42,42,42,2018-10-31 15:01:46.216839,2018-10-31 15:01:50.304073,0:00:04.087234,1,right,1,0.2504687004476409,19,f,1,19,2018_Oct_31_1456,MP_PerceptionTuring2,59.929590175475745,
44,resources/videos_generated\model(dmp)-dataset(walking)-npsi(50)_final(0).mov,resources/videos_natural\training(17).mov,True,False,right,0,43,43,43,2018-10-31 15:01:51.672151,2018-10-31 15:01:55.591375,0:00:03.919224,1,right,1,0.30068116292522973,19,f,1,19,2018_Oct_31_1456,MP_PerceptionTuring2,59.929590175475745,
45,resources/videos_generated\model(vcgpdm)-dataset(walking)-mode(ELBO)-parts(2)-dyn(28)-lvm(21)_final(5).mov,resources/videos_natural\training(0).mov,True,False,right,0,44,44,44,2018-10-31 15:01:57.009457,2018-10-31 15:02:00.946682,0:00:03.937225,1,right,1,0.2505054435509919,19,f,1,19,2018_Oct_31_1456,MP_PerceptionTuring2,59.929590175475745,
46,resources/videos_generated\model(vcgpdm)-dataset(walking)-mode(ELBO)-parts(1)-dyn(24)-lvm(25)_final(4).mov,resources/videos_natural\training(14).mov,True,True,left,0,45,45,45,2018-10-31 15:02:34.258587,2018-10-31 15:02:38.762845,0:00:04.504258,2,left,1,0.30079831921375444,19,f,1,19,2018_Oct_31_1456,MP_PerceptionTuring2,59.929590175475745,
47,resources/videos_generated\model(vcgpdm)-dataset(walking)-mode(ELBO)-parts(2)-dyn(25)-lvm(18)_final(1).mov,resources/videos_natural\training(47).mov,True,True,left,0,46,46,46,2018-10-31 15:02:40.180926,2018-10-31 15:02:44.100150,0:00:03.919224,2,left,1,0.4007769058150643,19,f,1,19,2018_Oct_31_1456,MP_PerceptionTuring2,59.929590175475745,
48,resources/videos_generated\model(vcgpdm)-dataset(walking)-mode(ELBO)-parts(2)-dyn(26)-lvm(19)_final(3).mov,resources/videos_natural\training(45).mov,False,True,left,0,47,47,47,2018-10-31 15:02:45.618237,2018-10-31 15:02:49.555462,0:00:03.937225,2,left,1,0.30038390519564473,19,f,1,19,2018_Oct_31_1456,MP_PerceptionTuring2,59.929590175475745,
49,resources/videos_generated\model(vcgpdm)-dataset(walking)-mode(ELBO)-parts(2)-dyn(26)-lvm(21)_final(9).mov,resources/videos_natural\training(20).mov,False,True,left,0,48,48,48,2018-10-31 15:02:50.973543,2018-10-31 15:02:54.877766,0:00:03.904223,2,right,0,0.5006949566476351,19,f,1,19,2018_Oct_31_1456,MP_PerceptionTuring2,59.929590175475745,
50,resources/videos_generated\model(vcgpdm)-dataset(walking)-mode(ELBO)-parts(1)-dyn(24)-lvm(27)_final(6).mov,resources/videos_natural\training(10).mov,True,False,right,0,49,49,49,2018-10-31 15:02:56.494859,2018-10-31 15:03:00.398082,0:00:03.903223,2,right,1,0.2671566951806881,19,f,1,19,2018_Oct_31_1456,MP_PerceptionTuring2,59.929590175475745,
51,resources/videos_generated\model(vcgpdm)-dataset(walking)-mode(ELBO)-parts(2)-dyn(24)-lvm(23)_final(1).mov,resources/videos_natural\training(19).mov,False,True,left,0,50,50,50,2018-10-31 15:03:01.782161,2018-10-31 15:03:05.669384,0:00:03.887223,2,right,0,0.25031660809361256,19,f,1,19,2018_Oct_31_1456,MP_PerceptionTuring2,59.929590175475745,
52,resources/videos_generated\model(vcgpdm)-dataset(walking)-mode(ELBO)-parts(1)-dyn(26)-lvm(23)_final(1).mov,resources/videos_natural\training(41).mov,True,False,right,0,51,51,51,2018-10-31 15:03:07.036462,2018-10-31 15:03:10.940685,0:00:03.904223,2,right,1,0.26752412621431176,19,f,1,19,2018_Oct_31_1456,MP_PerceptionTuring2,59.929590175475745,
53,resources/videos_generated\model(vcgpdm)-dataset(walking)-mode(ELBO)-parts(2)-dyn(25)-lvm(18)_final(7).mov,resources/videos_natural\training(46).mov,False,False,right,0,52,52,52,2018-10-31 15:03:12.324764,2018-10-31 15:03:16.244989,0:00:03.920225,2,right,1,0.23372137463786657,19,f,1,19,2018_Oct_31_1456,MP_PerceptionTuring2,59.929590175475745,
54,resources/videos_generated\model(vcgpdm)-dataset(walking)-mode(ELBO)-parts(2)-dyn(24)-lvm(21)_final(1).mov,resources/videos_natural\training(42).mov,True,True,left,0,53,53,53,2018-10-31 15:03:17.596066,2018-10-31 15:03:21.516290,0:00:03.920224,2,right,0,0.4339348460449628,19,f,1,19,2018_Oct_31_1456,MP_PerceptionTuring2,59.929590175475745,
55,resources/videos_generated\model(vcgpdm)-dataset(walking)-mode(ELBO)-parts(1)-dyn(22)-lvm(27)_final(6)_fail.mov,resources/videos_natural\training(31).mov,False,False,right,0,54,54,54,2018-10-31 15:03:23.067379,2018-10-31 15:03:27.137612,0:00:04.070233,2,right,1,0.3171523131139793,19,f,1,19,2018_Oct_31_1456,MP_PerceptionTuring2,59.929590175475745,
56,resources/videos_generated\model(vcgpdm)-dataset(walking)-mode(ELBO)-parts(1)-dyn(27)-lvm(28)_final(3).mov,resources/videos_natural\training(35).mov,True,True,left,0,55,55,55,2018-10-31 15:03:28.571694,2018-10-31 15:03:32.658927,0:00:04.087233,2,left,1,0.5673361039239353,19,f,1,19,2018_Oct_31_1456,MP_PerceptionTuring2,59.929590175475745,
57,resources/videos_generated\model(vcgpdm)-dataset(walking)-mode(ELBO)-parts(1)-dyn(28)-lvm(23)_final(5).mov,resources/videos_natural\training(26).mov,False,False,right,0,56,56,56,2018-10-31 15:03:34.344024,2018-10-31 15:03:38.414257,0:00:04.070233,2,right,1,0.23393490627938718,19,f,1,19,2018_Oct_31_1456,MP_PerceptionTuring2,59.929590175475745,
58,resources/videos_generated\model(vcgpdm)-dataset(walking)-mode(ELBO)-parts(1)-dyn(22)-lvm(22)_final(8).mov,resources/videos_natural\training(33).mov,False,False,right,0,57,57,57,2018-10-31 15:03:39.765334,2018-10-31 15:03:43.685558,0:00:03.920224,2,right,1,0.25033558199118033,19,f,1,19,2018_Oct_31_1456,MP_PerceptionTuring2,59.929590175475745,
59,resources/videos_generated\model(vcgpdm)-dataset(walking)-mode(ELBO)-parts(1)-dyn(25)-lvm(22)_final(0).mov,resources/videos_natural\training(16).mov,True,False,right,0,58,58,58,2018-10-31 15:03:45.053636,2018-10-31 15:03:48.989861,0:00:03.936225,2,left,0,0.25058043562262355,19,f,1,19,2018_Oct_31_1456,MP_PerceptionTuring2,59.929590175475745,
60,resources/videos_generated\model(vcgpdm)-dataset(walking)-mode(ELBO)-parts(2)-dyn(27)-lvm(20)_final(5).mov,resources/videos_natural\training(22).mov,True,False,right,0,59,59,59,2018-10-31 15:03:50.357940,2018-10-31 15:03:54.261163,0:00:03.903223,2,right,1,0.23373944501645383,19,f,1,19,2018_Oct_31_1456,MP_PerceptionTuring2,59.929590175475745,
61,resources/videos_generated\model(vcgpdm)-dataset(walking)-mode(ELBO)-parts(1)-dyn(26)-lvm(25)_final(3).mov,resources/videos_natural\training(41).mov,True,True,left,0,60,60,60,2018-10-31 15:03:55.612240,2018-10-31 15:03:59.715475,0:00:04.103235,2,left,1,0.2672377107119246,19,f,1,19,2018_Oct_31_1456,MP_PerceptionTuring2,59.929590175475745,
62,resources/videos_generated\model(vcgpdm)-dataset(walking)-mode(ELBO)-parts(1)-dyn(22)-lvm(23)_final(0).mov,resources/videos_natural\training(11).mov,False,False,right,0,61,61,61,2018-10-31 15:04:01.100554,2018-10-31 15:04:05.186788,0:00:04.086234,2,left,0,0.4839187182318483,19,f,1,19,2018_Oct_31_1456,MP_PerceptionTuring2,59.929590175475745,
63,resources/videos_generated\model(vcgpdm)-dataset(walking)-mode(ELBO)-parts(1)-dyn(28)-lvm(25)_final(1).mov,resources/videos_natural\training(8).mov,False,True,left,0,62,62,62,2018-10-31 15:04:06.788879,2018-10-31 15:04:10.892114,0:00:04.103235,2,right,0,0.4338285319835222,19,f,1,19,2018_Oct_31_1456,MP_PerceptionTuring2,59.929590175475745,
64,resources/videos_generated\model(vcgpdm)-dataset(walking)-mode(ELBO)-parts(2)-dyn(23)-lvm(20)_final(3).mov,resources/videos_natural\training(47).mov,False,False,right,0,63,63,63,2018-10-31 15:04:12.443203,2018-10-31 15:04:16.547438,0:00:04.104235,2,left,0,0.3839560937984743,19,f,1,19,2018_Oct_31_1456,MP_PerceptionTuring2,59.929590175475745,
65,resources/videos_generated\model(vcgpdm)-dataset(walking)-mode(ELBO)-parts(2)-dyn(27)-lvm(18)_final(9).mov,resources/videos_natural\training(23).mov,True,True,left,0,64,64,64,2018-10-31 15:04:18.048524,2018-10-31 15:04:22.168759,0:00:04.120235,2,left,1,0.5506059449738814,19,f,1,19,2018_Oct_31_1456,MP_PerceptionTuring2,59.929590175475745,
66,resources/videos_generated\model(vcgpdm)-dataset(walking)-mode(ELBO)-parts(2)-dyn(28)-lvm(23)_final(1).mov,resources/videos_natural\training(43).mov,False,True,left,0,65,65,65,2018-10-31 15:04:23.836855,2018-10-31 15:04:27.757079,0:00:03.920224,2,right,0,0.2837528321554146,19,f,1,19,2018_Oct_31_1456,MP_PerceptionTuring2,59.929590175475745,
67,resources/videos_generated\model(vcgpdm)-dataset(walking)-mode(ELBO)-parts(2)-dyn(28)-lvm(19)_final(9).mov,resources/videos_natural\training(26).mov,False,True,left,0,66,66,66,2018-10-31 15:04:29.158159,2018-10-31 15:04:33.228392,0:00:04.070233,2,right,0,0.25051628577818974,19,f,1,19,2018_Oct_31_1456,MP_PerceptionTuring2,59.929590175475745,
68,resources/videos_generated\model(vcgpdm)-dataset(walking)-mode(ELBO)-parts(1)-dyn(26)-lvm(23)_final(9).mov,resources/videos_natural\training(37).mov,True,False,right,0,67,67,67,2018-10-31 15:04:34.595470,2018-10-31 15:04:38.682704,0:00:04.087234,2,left,0,0.7674860278325468,19,f,1,19,2018_Oct_31_1456,MP_PerceptionTuring2,59.929590175475745,
69,resources/videos_generated\model(vcgpdm)-dataset(walking)-mode(ELBO)-parts(2)-dyn(28)-lvm(17)_final(9).mov,resources/videos_natural\training(3).mov,True,True,left,0,68,68,68,2018-10-31 15:04:40.567812,2018-10-31 15:04:44.655045,0:00:04.087233,2,left,1,0.25052712800538757,19,f,1,19,2018_Oct_31_1456,MP_PerceptionTuring2,59.929590175475745,
70,resources/videos_generated\model(vcgpdm)-dataset(walking)-mode(ELBO)-parts(2)-dyn(23)-lvm(18)_final(7).mov,resources/videos_natural\training(16).mov,True,True,left,0,69,69,69,2018-10-31 15:04:46.022124,2018-10-31 15:04:49.942348,0:00:03.920224,2,left,1,0.3339927013740862,19,f,1,19,2018_Oct_31_1456,MP_PerceptionTuring2,59.929590175475745,
71,resources/videos_generated\model(vcgpdm)-dataset(walking)-mode(ELBO)-parts(1)-dyn(22)-lvm(22)_final(6).mov,resources/videos_natural\training(36).mov,True,False,right,0,70,70,70,2018-10-31 15:04:51.393431,2018-10-31 15:04:55.313655,0:00:03.920224,2,right,1,0.28404978871219555,19,f,1,19,2018_Oct_31_1456,MP_PerceptionTuring2,59.929590175475745,
72,resources/videos_generated\model(vcgpdm)-dataset(walking)-mode(ELBO)-parts(2)-dyn(23)-lvm(18)_final(1).mov,resources/videos_natural\training(32).mov,True,False,right,0,71,71,71,2018-10-31 15:04:56.714735,2018-10-31 15:05:00.634959,0:00:03.920224,2,left,0,0.25041268227369073,19,f,1,19,2018_Oct_31_1456,MP_PerceptionTuring2,59.929590175475745,
73,resources/videos_generated\model(vcgpdm)-dataset(walking)-mode(ELBO)-parts(1)-dyn(28)-lvm(27)_final(1).mov,resources/videos_natural\training(13).mov,False,False,right,0,72,72,72,2018-10-31 15:05:02.003038,2018-10-31 15:05:05.923262,0:00:03.920224,2,left,0,0.7508519430626848,19,f,1,19,2018_Oct_31_1456,MP_PerceptionTuring2,59.929590175475745,
74,resources/videos_generated\model(tmp)-dataset(walking)-numprim(14)_final(2).mov,resources/videos_natural\training(45).mov,True,False,right,0,73,73,73,2018-10-31 15:05:07.791369,2018-10-31 15:05:11.728594,0:00:03.937225,2,right,1,0.2505180928160371,19,f,1,19,2018_Oct_31_1456,MP_PerceptionTuring2,59.929590175475745,
75,resources/videos_generated\model(vcgpdm)-dataset(walking)-mode(ELBO)-parts(2)-dyn(22)-lvm(17)_final(5).mov,resources/videos_natural\training(7).mov,False,True,left,0,74,74,74,2018-10-31 15:05:13.095672,2018-10-31 15:05:17.015896,0:00:03.920224,2,right,0,0.2504211151170921,19,f,1,19,2018_Oct_31_1456,MP_PerceptionTuring2,59.929590175475745,
76,resources/videos_generated\model(vcgpdm)-dataset(walking)-mode(ELBO)-parts(1)-dyn(25)-lvm(26)_final(6)_fail.mov,resources/videos_natural\training(21).mov,True,False,right,0,75,75,75,2018-10-31 15:05:18.383975,2018-10-31 15:05:22.320200,0:00:03.936225,2,right,1,0.30058117349642544,19,f,1,19,2018_Oct_31_1456,MP_PerceptionTuring2,59.929590175475745,
77,resources/videos_generated\model(vcgpdm)-dataset(walking)-mode(ELBO)-parts(2)-dyn(26)-lvm(17)_final(1).mov,resources/videos_natural\training(26).mov,True,False,right,0,76,76,76,2018-10-31 15:05:23.738281,2018-10-31 15:05:27.658505,0:00:03.920224,2,right,1,0.25056326876290314,19,f,1,19,2018_Oct_31_1456,MP_PerceptionTuring2,59.929590175475745,
78,resources/videos_generated\model(vcgpdm)-dataset(walking)-mode(ELBO)-parts(1)-dyn(25)-lvm(22)_final(8).mov,resources/videos_natural\training(46).mov,True,False,right,0,77,77,77,2018-10-31 15:05:29.026583,2018-10-31 15:05:32.946807,0:00:03.920224,2,right,1,0.23371444765928118,19,f,1,19,2018_Oct_31_1456,MP_PerceptionTuring2,59.929590175475745,
79,resources/videos_generated\model(vcgpdm)-dataset(walking)-mode(ELBO)-parts(2)-dyn(24)-lvm(23)_final(3).mov,resources/videos_natural\training(30).mov,False,True,left,0,78,78,78,2018-10-31 15:05:34.297885,2018-10-31 15:05:38.201108,0:00:03.903223,2,right,0,0.16707631211284024,19,f,1,19,2018_Oct_31_1456,MP_PerceptionTuring2,59.929590175475745,
80,resources/videos_generated\model(vcgpdm)-dataset(walking)-mode(ELBO)-parts(1)-dyn(25)-lvm(28)_final(4).mov,resources/videos_natural\training(20).mov,False,True,left,0,79,79,79,2018-10-31 15:05:39.485181,2018-10-31 15:05:43.389405,0:00:03.904224,2,right,0,0.25032564328284934,19,f,1,19,2018_Oct_31_1456,MP_PerceptionTuring2,59.929590175475745,
81,resources/videos_generated\model(vcgpdm)-dataset(walking)-mode(ELBO)-parts(2)-dyn(22)-lvm(23)_final(5).mov,resources/videos_natural\training(15).mov,False,True,left,0,80,80,80,2018-10-31 15:05:44.756483,2018-10-31 15:05:48.843717,0:00:04.087234,2,left,1,0.2338493731535891,19,f,1,19,2018_Oct_31_1456,MP_PerceptionTuring2,59.929590175475745,
82,resources/videos_generated\model(dmp)-dataset(walking)-npsi(70)_final(2).mov,resources/videos_natural\training(44).mov,True,False,right,0,81,81,81,2018-10-31 15:05:50.194794,2018-10-31 15:05:54.315030,0:00:04.120236,2,left,0,0.4008259970105428,19,f,1,19,2018_Oct_31_1456,MP_PerceptionTuring2,59.929590175475745,
83,resources/videos_generated\model(tmp)-dataset(walking)-numprim(11)_final(0).mov,resources/videos_natural\training(8).mov,True,True,left,0,82,82,82,2018-10-31 15:05:55.833116,2018-10-31 15:05:59.753341,0:00:03.920225,2,right,0,0.23372619340545953,19,f,1,19,2018_Oct_31_1456,MP_PerceptionTuring2,59.929590175475745,
84,resources/videos_generated\model(vcgpdm)-dataset(walking)-mode(ELBO)-parts(1)-dyn(23)-lvm(24)_final(5).mov,resources/videos_natural\training(19).mov,True,True,left,0,83,83,83,2018-10-31 15:06:01.104418,2018-10-31 15:06:05.007641,0:00:03.903223,2,left,1,0.017018983836351254,19,f,1,19,2018_Oct_31_1456,MP_PerceptionTuring2,59.929590175475745,
85,resources/videos_generated\model(tmp)-dataset(walking)-numprim(15)_final(0).mov,resources/videos_natural\training(29).mov,False,False,right,0,84,84,84,2018-10-31 15:06:06.141706,2018-10-31 15:06:10.078931,0:00:03.937225,2,right,1,0.26709917114192194,19,f,1,19,2018_Oct_31_1456,MP_PerceptionTuring2,59.929590175475745,
86,resources/videos_generated\model(vcgpdm)-dataset(walking)-mode(ELBO)-parts(1)-dyn(26)-lvm(22)_final(0).mov,resources/videos_natural\training(9).mov,False,False,right,0,85,85,85,2018-10-31 15:06:11.463010,2018-10-31 15:06:15.400236,0:00:03.937226,2,right,1,0.2496760131684823,19,f,1,19,2018_Oct_31_1456,MP_PerceptionTuring2,59.929590175475745,
87,resources/videos_generated\model(vcgpdm)-dataset(walking)-mode(ELBO)-parts(2)-dyn(22)-lvm(21)_final(1).mov,resources/videos_natural\training(13).mov,True,False,right,0,86,86,86,2018-10-31 15:06:16.767314,2018-10-31 15:06:20.837547,0:00:04.070233,2,right,1,0.26718470426772,19,f,1,19,2018_Oct_31_1456,MP_PerceptionTuring2,59.929590175475745,
88,resources/videos_generated\model(vcgpdm)-dataset(walking)-mode(ELBO)-parts(2)-dyn(25)-lvm(22)_final(3).mov,resources/videos_natural\training(26).mov,True,True,left,0,87,87,87,2018-10-31 15:06:22.222626,2018-10-31 15:06:26.309860,0:00:04.087234,2,left,1,0.25033708785611,19,f,1,19,2018_Oct_31_1456,MP_PerceptionTuring2,59.929590175475745,
89,resources/videos_generated\model(vcgpdm)-dataset(walking)-mode(ELBO)-parts(2)-dyn(22)-lvm(23)_final(1).mov,resources/videos_natural\training(40).mov,False,True,left,0,88,88,88,2018-10-31 15:06:27.676938,2018-10-31 15:06:31.764172,0:00:04.087234,2,left,1,0.20032550775499658,19,f,1,19,2018_Oct_31_1456,MP_PerceptionTuring2,59.929590175475745,
90,resources/videos_generated\model(vcgpdm)-dataset(walking)-mode(ELBO)-parts(2)-dyn(22)-lvm(21)_final(3).mov,resources/videos_natural\training(29).mov,False,False,right,0,89,89,89,2018-10-31 15:06:33.082247,2018-10-31 15:06:37.185482,0:00:04.103235,2,right,1,0.20036225085834758,19,f,1,19,2018_Oct_31_1456,MP_PerceptionTuring2,59.929590175475745,
91,resources/videos_generated\model(vcgpdm)-dataset(walking)-mode(ELBO)-parts(2)-dyn(27)-lvm(20)_final(3).mov,resources/videos_natural\training(0).mov,True,False,right,0,90,90,90,2018-10-31 15:07:10.280375,2018-10-31 15:07:14.184598,0:00:03.904223,3,right,1,0.4672960780351332,19,f,1,19,2018_Oct_31_1456,MP_PerceptionTuring2,59.929590175475745,
92,resources/videos_generated\model(vcgpdm)-dataset(walking)-mode(ELBO)-parts(2)-dyn(24)-lvm(17)_final(7).mov,resources/videos_natural\training(28).mov,True,True,left,0,91,91,91,2018-10-31 15:07:15.768689,2018-10-31 15:07:19.688913,0:00:03.920224,3,left,1,0.30056491015557185,19,f,1,19,2018_Oct_31_1456,MP_PerceptionTuring2,59.929590175475745,
93,resources/videos_generated\model(vcgpdm)-dataset(walking)-mode(ELBO)-parts(1)-dyn(26)-lvm(27)_final(7).mov,resources/videos_natural\training(46).mov,False,True,left,0,92,92,92,2018-10-31 15:07:21.106994,2018-10-31 15:07:25.027218,0:00:03.920224,3,left,1,0.25058706142817755,19,f,1,19,2018_Oct_31_1456,MP_PerceptionTuring2,59.929590175475745,
94,resources/videos_generated\model(vcgpdm)-dataset(walking)-mode(ELBO)-parts(1)-dyn(22)-lvm(25)_final(0).mov,resources/videos_natural\training(2).mov,False,False,right,0,93,93,93,2018-10-31 15:07:26.394296,2018-10-31 15:07:30.298520,0:00:03.904224,3,right,1,0.25058043562262355,19,f,1,19,2018_Oct_31_1456,MP_PerceptionTuring2,59.929590175475745,
95,resources/videos_generated\model(vcgpdm)-dataset(walking)-mode(ELBO)-parts(1)-dyn(27)-lvm(24)_final(3).mov,resources/videos_natural\training(14).mov,True,True,left,0,94,94,94,2018-10-31 15:07:31.665598,2018-10-31 15:07:35.619824,0:00:03.954226,3,left,1,0.30056912657732937,19,f,1,19,2018_Oct_31_1456,MP_PerceptionTuring2,59.929590175475745,
96,resources/videos_generated\model(vcgpdm)-dataset(walking)-mode(ELBO)-parts(2)-dyn(26)-lvm(17)_final(3).mov,resources/videos_natural\training(7).mov,False,False,right,0,95,95,95,2018-10-31 15:07:37.036905,2018-10-31 15:07:40.941128,0:00:03.904223,3,right,1,0.23383070042905274,19,f,1,19,2018_Oct_31_1456,MP_PerceptionTuring2,59.929590175475745,
97,resources/videos_generated\model(vcgpdm)-dataset(walking)-mode(ELBO)-parts(1)-dyn(24)-lvm(27)_final(4).mov,resources/videos_natural\training(45).mov,True,False,right,0,96,96,96,2018-10-31 15:07:42.292206,2018-10-31 15:07:46.228431,0:00:03.936225,3,right,1,0.4006227052500435,19,f,1,19,2018_Oct_31_1456,MP_PerceptionTuring2,59.929590175475745,
98,resources/videos_generated\model(vcgpdm)-dataset(walking)-mode(ELBO)-parts(2)-dyn(27)-lvm(20)_final(9).mov,resources/videos_natural\training(24).mov,True,False,right,0,97,97,97,2018-10-31 15:07:47.746518,2018-10-31 15:07:51.666742,0:00:03.920224,3,right,1,0.400643486185686,19,f,1,19,2018_Oct_31_1456,MP_PerceptionTuring2,59.929590175475745,
99,resources/videos_generated\model(vcgpdm)-dataset(walking)-mode(ELBO)-parts(1)-dyn(23)-lvm(22)_final(1)_fail.mov,resources/videos_natural\training(18).mov,True,False,right,0,98,98,98,2018-10-31 15:07:53.184829,2018-10-31 15:07:57.121054,0:00:03.936225,3,right,1,0.3174956503091835,19,f,1,19,2018_Oct_31_1456,MP_PerceptionTuring2,59.929590175475745,
100,resources/videos_generated\model(vcgpdm)-dataset(walking)-mode(ELBO)-parts(2)-dyn(23)-lvm(20)_final(5).mov,resources/videos_natural\training(1).mov,True,False,right,0,99,99,99,2018-10-31 15:07:58.556136,2018-10-31 15:08:02.659371,0:00:04.103235,3,right,1,0.016985854808808654,19,f,1,19,2018_Oct_31_1456,MP_PerceptionTuring2,59.929590175475745,
101,resources/videos_generated\model(vcgpdm)-dataset(walking)-mode(ELBO)-parts(1)-dyn(26)-lvm(23)_final(7).mov,resources/videos_natural\training(22).mov,False,False,right,0,100,100,100,2018-10-31 15:08:03.793435,2018-10-31 15:08:07.863668,0:00:04.070233,3,left,0,0.21703398225054116,19,f,1,19,2018_Oct_31_1456,MP_PerceptionTuring2,59.929590175475745,
102,resources/videos_generated\model(vcgpdm)-dataset(walking)-mode(ELBO)-parts(2)-dyn(26)-lvm(19)_final(9).mov,resources/videos_natural\training(18).mov,False,False,right,0,101,101,101,2018-10-31 15:08:09.198745,2018-10-31 15:08:13.284978,0:00:04.086233,3,right,1,0.30040769786091914,19,f,1,19,2018_Oct_31_1456,MP_PerceptionTuring2,59.929590175475745,
103,resources/videos_generated\model(vcgpdm)-dataset(walking)-mode(ELBO)-parts(1)-dyn(23)-lvm(24)_final(9).mov,resources/videos_natural\training(2).mov,False,True,left,0,102,102,102,2018-10-31 15:08:14.703059,2018-10-31 15:08:18.773292,0:00:04.070233,3,left,1,0.2503265468017162,19,f,1,19,2018_Oct_31_1456,MP_PerceptionTuring2,59.929590175475745,
104,resources/videos_generated\model(dmp)-dataset(walking)-npsi(70)_final(8).mov,resources/videos_natural\training(12).mov,True,False,right,0,103,103,103,2018-10-31 15:08:20.141370,2018-10-31 15:08:24.061595,0:00:03.920225,3,left,0,0.18368871242842033,19,f,1,19,2018_Oct_31_1456,MP_PerceptionTuring2,59.929590175475745,
105,resources/videos_generated\model(tmp)-dataset(walking)-numprim(13)_final(4).mov,resources/videos_natural\training(0).mov,False,True,left,0,104,104,104,2018-10-31 15:08:25.362669,2018-10-31 15:08:29.432902,0:00:04.070233,3,right,0,0.23380329368796993,19,f,1,19,2018_Oct_31_1456,MP_PerceptionTuring2,59.929590175475745,
106,resources/videos_generated\model(vcgpdm)-dataset(walking)-mode(ELBO)-parts(2)-dyn(25)-lvm(20)_final(7).mov,resources/videos_natural\training(14).mov,False,False,right,0,105,105,105,2018-10-31 15:08:30.783979,2018-10-31 15:08:34.870213,0:00:04.086234,3,right,1,0.23381353356921863,19,f,1,19,2018_Oct_31_1456,MP_PerceptionTuring2,59.929590175475745,
107,resources/videos_generated\model(vcgpdm)-dataset(walking)-mode(ELBO)-parts(1)-dyn(25)-lvm(26)_final(0).mov,resources/videos_natural\training(15).mov,True,True,left,0,106,106,106,2018-10-31 15:08:36.221290,2018-10-31 15:08:40.292523,0:00:04.071233,3,left,1,0.033685896460838194,19,f,1,19,2018_Oct_31_1456,MP_PerceptionTuring2,59.929590175475745,
108,resources/videos_generated\model(dmp)-dataset(walking)-npsi(50)_final(8).mov,resources/videos_natural\training(10).mov,False,False,right,0,107,107,107,2018-10-31 15:08:41.442589,2018-10-31 15:08:45.546824,0:00:04.104235,3,right,1,0.2512400044452079,19,f,1,19,2018_Oct_31_1456,MP_PerceptionTuring2,59.929590175475745,
109,resources/videos_generated\model(vcgpdm)-dataset(walking)-mode(ELBO)-parts(1)-dyn(25)-lvm(26)_final(2).mov,resources/videos_natural\training(34).mov,True,True,left,0,108,108,108,2018-10-31 15:08:46.913902,2018-10-31 15:08:51.001136,0:00:04.087234,3,right,0,0.25156647595372306,19,f,1,19,2018_Oct_31_1456,MP_PerceptionTuring2,59.929590175475745,
110,resources/videos_generated\model(tmp)-dataset(walking)-numprim(14)_final(6).mov,resources/videos_natural\training(8).mov,False,False,right,0,109,109,109,2018-10-31 15:08:52.369214,2018-10-31 15:08:56.322440,0:00:03.953226,3,left,0,0.2672669244907411,19,f,1,19,2018_Oct_31_1456,MP_PerceptionTuring2,59.929590175475745,
111,resources/videos_generated\model(vcgpdm)-dataset(walking)-mode(ELBO)-parts(2)-dyn(23)-lvm(20)_final(9).mov,resources/videos_natural\training(2).mov,True,False,right,0,110,110,110,2018-10-31 15:08:57.707519,2018-10-31 15:09:01.626743,0:00:03.919224,3,right,1,0.21713758575515385,19,f,1,19,2018_Oct_31_1456,MP_PerceptionTuring2,59.929590175475745,
112,resources/videos_generated\model(vcgpdm)-dataset(walking)-mode(ELBO)-parts(1)-dyn(27)-lvm(26)_final(3).mov,resources/videos_natural\training(40).mov,True,True,left,0,111,111,111,2018-10-31 15:09:02.961820,2018-10-31 15:09:06.866043,0:00:03.904223,3,left,1,0.2671000746606751,19,f,1,19,2018_Oct_31_1456,MP_PerceptionTuring2,59.929590175475745,
113,resources/videos_generated\model(vcgpdm)-dataset(walking)-mode(ELBO)-parts(1)-dyn(25)-lvm(28)_final(0).mov,resources/videos_natural\training(27).mov,False,False,right,0,112,112,112,2018-10-31 15:09:08.249122,2018-10-31 15:09:12.169346,0:00:03.920224,3,right,1,0.21718667695063232,19,f,1,19,2018_Oct_31_1456,MP_PerceptionTuring2,59.929590175475745,
114,resources/videos_generated\model(vcgpdm)-dataset(walking)-mode(ELBO)-parts(1)-dyn(27)-lvm(22)_final(7).mov,resources/videos_natural\training(1).mov,False,True,left,0,113,113,113,2018-10-31 15:09:13.504423,2018-10-31 15:09:17.440648,0:00:03.936225,3,right,0,0.3673114679743321,19,f,1,19,2018_Oct_31_1456,MP_PerceptionTuring2,59.929590175475745,
115,resources/videos_generated\model(vcgpdm)-dataset(walking)-mode(ELBO)-parts(2)-dyn(24)-lvm(17)_final(1).mov,resources/videos_natural\training(46).mov,True,False,right,0,114,114,114,2018-10-31 15:09:18.925733,2018-10-31 15:09:22.878959,0:00:03.953226,3,right,1,0.26720367816551516,19,f,1,19,2018_Oct_31_1456,MP_PerceptionTuring2,59.929590175475745,
116,resources/videos_generated\model(vcgpdm)-dataset(walking)-mode(ELBO)-parts(2)-dyn(26)-lvm(19)_final(5).mov,resources/videos_natural\training(24).mov,True,False,right,0,115,115,115,2018-10-31 15:09:24.263038,2018-10-31 15:09:28.183262,0:00:03.920224,3,left,0,0.2004504945412009,19,f,1,19,2018_Oct_31_1456,MP_PerceptionTuring2,59.929590175475745,
117,resources/videos_generated\model(dmp)-dataset(walking)-npsi(70)_final(6).mov,resources/videos_natural\training(4).mov,False,False,right,0,116,116,116,2018-10-31 15:09:29.501338,2018-10-31 15:09:33.438563,0:00:03.937225,3,right,1,0.26723951774965826,19,f,1,19,2018_Oct_31_1456,MP_PerceptionTuring2,59.929590175475745,
118,resources/videos_generated\model(vcgpdm)-dataset(walking)-mode(ELBO)-parts(2)-dyn(25)-lvm(20)_final(3).mov,resources/videos_natural\training(33).mov,True,False,right,0,117,117,117,2018-10-31 15:09:34.822642,2018-10-31 15:09:38.758867,0:00:03.936225,3,right,1,0.5343028493073234,19,f,1,19,2018_Oct_31_1456,MP_PerceptionTuring2,59.929590175475745,
119,resources/videos_generated\model(vcgpdm)-dataset(walking)-mode(ELBO)-parts(2)-dyn(26)-lvm(21)_final(7).mov,resources/videos_natural\training(7).mov,False,False,right,0,118,118,118,2018-10-31 15:09:40.410962,2018-10-31 15:09:44.347187,0:00:03.936225,3,right,1,0.2337584189140216,19,f,1,19,2018_Oct_31_1456,MP_PerceptionTuring2,59.929590175475745,
120,resources/videos_generated\model(dmp)-dataset(walking)-npsi(60)_final(0).mov,resources/videos_natural\training(8).mov,True,True,left,0,119,119,119,2018-10-31 15:09:45.698264,2018-10-31 15:09:49.618488,0:00:03.920224,3,right,0,0.26726300924224233,19,f,1,19,2018_Oct_31_1456,MP_PerceptionTuring2,59.929590175475745,
121,resources/videos_generated\model(vcgpdm)-dataset(walking)-mode(ELBO)-parts(2)-dyn(26)-lvm(21)_final(5).mov,resources/videos_natural\training(1).mov,False,True,left,0,120,120,120,2018-10-31 15:09:51.003567,2018-10-31 15:09:54.922792,0:00:03.919225,3,left,1,0.3006239400592676,19,f,1,19,2018_Oct_31_1456,MP_PerceptionTuring2,59.929590175475745,
122,resources/videos_generated\model(vcgpdm)-dataset(walking)-mode(ELBO)-parts(2)-dyn(27)-lvm(22)_final(9).mov,resources/videos_natural\training(40).mov,True,True,left,0,121,121,121,2018-10-31 15:09:56.340873,2018-10-31 15:10:00.445107,0:00:04.104234,3,left,1,0.23370721950777806,19,f,1,19,2018_Oct_31_1456,MP_PerceptionTuring2,59.929590175475745,
123,resources/videos_generated\model(tmp)-dataset(walking)-numprim(12)_final(0).mov,resources/videos_natural\training(8).mov,False,True,left,0,122,122,122,2018-10-31 15:10:01.796185,2018-10-31 15:10:05.732410,0:00:03.936225,3,right,0,0.2673413142165373,19,f,1,19,2018_Oct_31_1456,MP_PerceptionTuring2,59.929590175475745,
124,resources/videos_generated\model(vcgpdm)-dataset(walking)-mode(ELBO)-parts(1)-dyn(26)-lvm(25)_final(1).mov,resources/videos_natural\training(39).mov,False,False,right,0,123,123,123,2018-10-31 15:10:07.117489,2018-10-31 15:10:11.220724,0:00:04.103235,3,right,1,0.4005588565787548,19,f,1,19,2018_Oct_31_1456,MP_PerceptionTuring2,59.929590175475745,
125,resources/videos_generated\model(vcgpdm)-dataset(walking)-mode(ELBO)-parts(1)-dyn(28)-lvm(25)_final(5).mov,resources/videos_natural\training(42).mov,False,False,right,0,124,124,124,2018-10-31 15:10:12.738811,2018-10-31 15:10:16.825044,0:00:04.086233,3,left,0,0.2338189546828744,19,f,1,19,2018_Oct_31_1456,MP_PerceptionTuring2,59.929590175475745,
126,resources/videos_generated\model(vcgpdm)-dataset(walking)-mode(ELBO)-parts(2)-dyn(22)-lvm(19)_final(7).mov,resources/videos_natural\training(45).mov,False,True,left,0,125,125,125,2018-10-31 15:10:18.177122,2018-10-31 15:10:22.297357,0:00:04.120235,3,left,1,0.2336921608589364,19,f,1,19,2018_Oct_31_1456,MP_PerceptionTuring2,59.929590175475745,
127,resources/videos_generated\model(vcgpdm)-dataset(walking)-mode(ELBO)-parts(2)-dyn(23)-lvm(22)_final(1).mov,resources/videos_natural\training(25).mov,True,False,right,0,126,126,126,2018-10-31 15:10:23.648435,2018-10-31 15:10:27.751669,0:00:04.103234,3,right,1,0.26712537319099283,19,f,1,19,2018_Oct_31_1456,MP_PerceptionTuring2,59.929590175475745,
128,resources/videos_generated\model(vcgpdm)-dataset(walking)-mode(ELBO)-parts(1)-dyn(27)-lvm(26)_final(1).mov,resources/videos_natural\training(36).mov,True,False,right,0,127,127,127,2018-10-31 15:10:29.135748,2018-10-31 15:10:33.189980,0:00:04.054232,3,right,1,0.2836760330458219,19,f,1,19,2018_Oct_31_1456,MP_PerceptionTuring2,59.929590175475745,
129,resources/videos_generated\model(vcgpdm)-dataset(walking)-mode(ELBO)-parts(2)-dyn(26)-lvm(23)_final(7).mov,resources/videos_natural\training(9).mov,True,False,right,0,128,128,128,2018-10-31 15:10:34.591061,2018-10-31 15:10:38.527286,0:00:03.936225,3,right,1,0.21707524294879477,19,f,1,19,2018_Oct_31_1456,MP_PerceptionTuring2,59.929590175475745,
130,resources/videos_generated\model(vcgpdm)-dataset(walking)-mode(ELBO)-parts(1)-dyn(23)-lvm(24)_final(3).mov,resources/videos_natural\training(48).mov,True,True,left,0,129,129,129,2018-10-31 15:10:39.862362,2018-10-31 15:10:43.948596,0:00:04.086234,3,left,1,0.21707403825666916,19,f,1,19,2018_Oct_31_1456,MP_PerceptionTuring2,59.929590175475745,
131,resources/videos_generated\model(tmp)-dataset(walking)-numprim(15)_final(2).mov,resources/videos_natural\training(9).mov,False,True,left,0,130,130,130,2018-10-31 15:10:45.283672,2018-10-31 15:10:49.369906,0:00:04.086234,3,right,0,0.30059773801008305,19,f,1,19,2018_Oct_31_1456,MP_PerceptionTuring2,59.929590175475745,
132,resources/videos_generated\model(vcgpdm)-dataset(walking)-mode(ELBO)-parts(2)-dyn(23)-lvm(18)_final(3).mov,resources/videos_natural\training(39).mov,True,True,left,0,131,131,131,2018-10-31 15:10:50.787987,2018-10-31 15:10:54.808217,0:00:04.020230,3,left,1,0.21708518165701207,19,f,1,19,2018_Oct_31_1456,MP_PerceptionTuring2,59.929590175475745,
133,resources/videos_generated\model(dmp)-dataset(walking)-npsi(80)_final(0).mov,resources/videos_natural\training(19).mov,True,True,left,0,132,132,132,2018-10-31 15:10:56.143293,2018-10-31 15:11:00.063517,0:00:03.920224,3,right,0,0.2838305347836467,19,f,1,19,2018_Oct_31_1456,MP_PerceptionTuring2,59.929590175475745,
134,resources/videos_generated\model(tmp)-dataset(walking)-numprim(13)_final(8).mov,resources/videos_natural\training(0).mov,True,False,right,0,133,133,133,2018-10-31 15:11:01.464598,2018-10-31 15:11:05.417824,0:00:03.953226,3,left,0,0.2671582010457314,19,f,1,19,2018_Oct_31_1456,MP_PerceptionTuring2,59.929590175475745,
135,resources/videos_generated\model(vcgpdm)-dataset(walking)-mode(ELBO)-parts(2)-dyn(22)-lvm(17)_final(7).mov,resources/videos_natural\training(19).mov,True,True,left,0,134,134,134,2018-10-31 15:11:06.801903,2018-10-31 15:11:10.722127,0:00:03.920224,3,left,1,0.2171905921995858,19,f,1,19,2018_Oct_31_1456,MP_PerceptionTuring2,59.929590175475745,
136,resources/videos_generated\model(vcgpdm)-dataset(walking)-mode(ELBO)-parts(2)-dyn(24)-lvm(23)_final(7).mov,resources/videos_natural\training(31).mov,False,True,left,0,135,135,135,2018-10-31 15:11:43.099979,2018-10-31 15:11:47.020203,0:00:03.920224,4,left,1,0.3171785151630502,19,f,1,19,2018_Oct_31_1456,MP_PerceptionTuring2,59.929590175475745,
137,resources/videos_generated\model(vcgpdm)-dataset(walking)-mode(ELBO)-parts(2)-dyn(24)-lvm(21)_final(3).mov,resources/videos_natural\training(33).mov,False,True,left,0,136,136,136,2018-10-31 15:11:48.455285,2018-10-31 15:11:52.391510,0:00:03.936225,4,right,0,0.25050935879971803,19,f,1,19,2018_Oct_31_1456,MP_PerceptionTuring2,59.929590175475745,
138,resources/videos_generated\model(vcgpdm)-dataset(walking)-mode(ELBO)-parts(1)-dyn(27)-lvm(24)_final(1).mov,resources/videos_natural\training(11).mov,False,False,right,0,137,137,137,2018-10-31 15:11:53.759589,2018-10-31 15:11:57.695814,0:00:03.936225,4,left,0,0.517304947579305,19,f,1,19,2018_Oct_31_1456,MP_PerceptionTuring2,59.929590175475745,
139,resources/videos_generated\model(vcgpdm)-dataset(walking)-mode(ELBO)-parts(2)-dyn(26)-lvm(17)_final(9).mov,resources/videos_natural\training(5).mov,True,False,right,0,138,138,138,2018-10-31 15:11:59.330907,2018-10-31 15:12:03.268133,0:00:03.937226,4,right,1,0.20041194439977517,19,f,1,19,2018_Oct_31_1456,MP_PerceptionTuring2,59.929590175475745,
140,resources/videos_generated\model(tmp)-dataset(walking)-numprim(11)_final(8).mov,resources/videos_natural\training(39).mov,False,False,right,0,139,139,139,2018-10-31 15:12:04.585208,2018-10-31 15:12:08.505432,0:00:03.920224,4,right,1,0.21826999615382192,19,f,1,19,2018_Oct_31_1456,MP_PerceptionTuring2,59.929590175475745,
141,resources/videos_generated\model(vcgpdm)-dataset(walking)-mode(ELBO)-parts(1)-dyn(27)-lvm(28)_final(9).mov,resources/videos_natural\training(43).mov,False,False,right,0,140,140,140,2018-10-31 15:12:09.839508,2018-10-31 15:12:13.743732,0:00:03.904224,4,right,1,0.2503855767056393,19,f,1,19,2018_Oct_31_1456,MP_PerceptionTuring2,59.929590175475745,
142,resources/videos_generated\model(vcgpdm)-dataset(walking)-mode(ELBO)-parts(2)-dyn(27)-lvm(22)_final(1).mov,resources/videos_natural\training(27).mov,True,False,right,0,141,141,141,2018-10-31 15:12:15.110810,2018-10-31 15:12:19.248047,0:00:04.137237,4,left,0,0.2504852649612985,19,f,1,19,2018_Oct_31_1456,MP_PerceptionTuring2,59.929590175475745,
143,resources/videos_generated\model(vcgpdm)-dataset(walking)-mode(ELBO)-parts(2)-dyn(23)-lvm(18)_final(9).mov,resources/videos_natural\training(44).mov,True,False,right,0,142,142,142,2018-10-31 15:12:20.616125,2018-10-31 15:12:24.702359,0:00:04.086234,4,left,0,0.03359976098909101,19,f,1,19,2018_Oct_31_1456,MP_PerceptionTuring2,59.929590175475745,
144,resources/videos_generated\model(vcgpdm)-dataset(walking)-mode(ELBO)-parts(2)-dyn(28)-lvm(19)_final(3).mov,resources/videos_natural\training(9).mov,True,True,left,0,143,143,143,2018-10-31 15:12:25.854424,2018-10-31 15:12:29.973660,0:00:04.119236,4,left,1,0.1838350824959889,19,f,1,19,2018_Oct_31_1456,MP_PerceptionTuring2,59.929590175475745,
145,resources/videos_generated\model(tmp)-dataset(walking)-numprim(15)_final(6).mov,resources/videos_natural\training(38).mov,True,True,left,0,144,144,144,2018-10-31 15:12:31.274734,2018-10-31 15:12:35.378969,0:00:04.104235,4,right,0,0.11703491588696124,19,f,1,19,2018_Oct_31_1456,MP_PerceptionTuring2,59.929590175475745,
146,resources/videos_generated\model(vcgpdm)-dataset(walking)-mode(ELBO)-parts(2)-dyn(28)-lvm(17)_final(7).mov,resources/videos_natural\training(10).mov,False,False,right,0,145,145,145,2018-10-31 15:12:36.613040,2018-10-31 15:12:40.716274,0:00:04.103234,4,right,1,0.2670717644009528,19,f,1,19,2018_Oct_31_1456,MP_PerceptionTuring2,59.929590175475745,
147,resources/videos_generated\model(vcgpdm)-dataset(walking)-mode(ELBO)-parts(1)-dyn(28)-lvm(23)_final(7).mov,resources/videos_natural\training(7).mov,False,True,left,0,146,146,146,2018-10-31 15:12:42.101354,2018-10-31 15:12:46.204588,0:00:04.103234,4,right,0,0.23368071628578946,19,f,1,19,2018_Oct_31_1456,MP_PerceptionTuring2,59.929590175475745,
148,resources/videos_generated\model(vcgpdm)-dataset(walking)-mode(ELBO)-parts(1)-dyn(27)-lvm(22)_final(9).mov,resources/videos_natural\training(44).mov,False,False,right,0,147,147,147,2018-10-31 15:12:47.555666,2018-10-31 15:12:51.659900,0:00:04.104234,4,left,0,0.25057350864403816,19,f,1,19,2018_Oct_31_1456,MP_PerceptionTuring2,59.929590175475745,
149,resources/videos_generated\model(vcgpdm)-dataset(walking)-mode(ELBO)-parts(2)-dyn(23)-lvm(22)_final(5).mov,resources/videos_natural\training(13).mov,True,False,right,0,148,148,148,2018-10-31 15:12:53.026979,2018-10-31 15:12:56.964204,0:00:03.937225,4,right,1,0.250722890441466,19,f,1,19,2018_Oct_31_1456,MP_PerceptionTuring2,59.929590175475745,
150,resources/videos_generated\model(vcgpdm)-dataset(walking)-mode(ELBO)-parts(1)-dyn(26)-lvm(23)_final(3)_fail.mov,resources/videos_natural\training(40).mov,True,True,left,0,149,149,149,2018-10-31 15:12:58.332282,2018-10-31 15:13:02.268507,0:00:03.936225,4,left,1,0.23376233416274772,19,f,1,19,2018_Oct_31_1456,MP_PerceptionTuring2,59.929590175475745,
151,resources/videos_generated\model(vcgpdm)-dataset(walking)-mode(ELBO)-parts(1)-dyn(24)-lvm(23)_final(0).mov,resources/videos_natural\training(31).mov,True,True,left,0,150,150,150,2018-10-31 15:13:03.619584,2018-10-31 15:13:07.689817,0:00:04.070233,4,left,1,0.23383070042905274,19,f,1,19,2018_Oct_31_1456,MP_PerceptionTuring2,59.929590175475745,
152,resources/videos_generated\model(vcgpdm)-dataset(walking)-mode(ELBO)-parts(2)-dyn(26)-lvm(23)_final(5).mov,resources/videos_natural\training(30).mov,True,True,left,0,151,151,151,2018-10-31 15:13:09.040895,2018-10-31 15:13:13.128128,0:00:04.087233,4,left,1,0.26713892597490485,19,f,1,19,2018_Oct_31_1456,MP_PerceptionTuring2,59.929590175475745,
153,resources/videos_generated\model(dmp)-dataset(walking)-npsi(60)_final(4).mov,resources/videos_natural\training(47).mov,True,False,right,0,152,152,152,2018-10-31 15:13:14.512207,2018-10-31 15:13:18.616442,0:00:04.104235,4,right,1,0.26711182040685344,19,f,1,19,2018_Oct_31_1456,MP_PerceptionTuring2,59.929590175475745,
154,resources/videos_generated\model(dmp)-dataset(walking)-npsi(60)_final(8).mov,resources/videos_natural\training(33).mov,True,True,left,0,153,153,153,2018-10-31 15:13:20.000521,2018-10-31 15:13:23.920746,0:00:03.920225,4,right,0,0.23378763269306546,19,f,1,19,2018_Oct_31_1456,MP_PerceptionTuring2,59.929590175475745,
155,resources/videos_generated\model(vcgpdm)-dataset(walking)-mode(ELBO)-parts(2)-dyn(22)-lvm(21)_final(9).mov,resources/videos_natural\training(16).mov,False,False,right,0,154,154,154,2018-10-31 15:13:25.271823,2018-10-31 15:13:29.192047,0:00:03.920224,4,right,1,0.25039943066258274,19,f,1,19,2018_Oct_31_1456,MP_PerceptionTuring2,59.929590175475745,
156,resources/videos_generated\model(vcgpdm)-dataset(walking)-mode(ELBO)-parts(1)-dyn(25)-lvm(24)_final(5).mov,resources/videos_natural\training(28).mov,False,False,right,0,155,155,155,2018-10-31 15:13:30.560125,2018-10-31 15:13:34.480350,0:00:03.920225,4,right,1,0.25049942009127335,19,f,1,19,2018_Oct_31_1456,MP_PerceptionTuring2,59.929590175475745,
157,resources/videos_generated\model(tmp)-dataset(walking)-numprim(14)_final(4).mov,resources/videos_natural\training(25).mov,True,True,left,0,156,156,156,2018-10-31 15:13:35.847428,2018-10-31 15:13:39.801654,0:00:03.954226,4,right,0,0.28393624649925187,19,f,1,19,2018_Oct_31_1456,MP_PerceptionTuring2,59.929590175475745,
158,resources/videos_generated\model(dmp)-dataset(walking)-npsi(50)_final(4).mov,resources/videos_natural\training(17).mov,False,True,left,0,157,157,157,2018-10-31 15:13:41.202734,2018-10-31 15:13:45.138959,0:00:03.936225,4,right,0,0.2003462886905254,19,f,1,19,2018_Oct_31_1456,MP_PerceptionTuring2,59.929590175475745,
159,resources/videos_generated\model(vcgpdm)-dataset(walking)-mode(ELBO)-parts(1)-dyn(26)-lvm(25)_final(5).mov,resources/videos_natural\training(17).mov,True,True,left,0,158,158,158,2018-10-31 15:13:46.457035,2018-10-31 15:13:50.393260,0:00:03.936225,4,left,1,0.2503819626299446,19,f,1,19,2018_Oct_31_1456,MP_PerceptionTuring2,59.929590175475745,
160,resources/videos_generated\model(vcgpdm)-dataset(walking)-mode(ELBO)-parts(1)-dyn(25)-lvm(24)_final(3).mov,resources/videos_natural\training(41).mov,False,False,right,0,159,159,159,2018-10-31 15:13:51.761338,2018-10-31 15:13:55.698563,0:00:03.937225,4,right,1,0.20046314380624608,19,f,1,19,2018_Oct_31_1456,MP_PerceptionTuring2,59.929590175475745,
161,resources/videos_generated\model(vcgpdm)-dataset(walking)-mode(ELBO)-parts(1)-dyn(28)-lvm(27)_final(9).mov,resources/videos_natural\training(4).mov,True,True,left,0,160,160,160,2018-10-31 15:13:57.015639,2018-10-31 15:14:00.919862,0:00:03.904223,4,right,0,0.4506267560266224,19,f,1,19,2018_Oct_31_1456,MP_PerceptionTuring2,59.929590175475745,
162,resources/videos_generated\model(vcgpdm)-dataset(walking)-mode(ELBO)-parts(1)-dyn(23)-lvm(28)_final(6)_hip-corrected.mov,resources/videos_natural\training(30).mov,False,False,right,0,161,161,161,2018-10-31 15:14:02.486951,2018-10-31 15:14:06.407176,0:00:03.920225,4,left,0,0.233852083710417,19,f,1,19,2018_Oct_31_1456,MP_PerceptionTuring2,59.929590175475745,
163,resources/videos_generated\model(vcgpdm)-dataset(walking)-mode(ELBO)-parts(1)-dyn(25)-lvm(22)_final(6).mov,resources/videos_natural\training(39).mov,False,True,left,0,162,162,162,2018-10-31 15:14:07.758253,2018-10-31 15:14:11.695478,0:00:03.937225,4,left,1,0.2671455517806862,19,f,1,19,2018_Oct_31_1456,MP_PerceptionTuring2,59.929590175475745,
164,resources/videos_generated\model(vcgpdm)-dataset(walking)-mode(ELBO)-parts(1)-dyn(24)-lvm(27)_final(8).mov,resources/videos_natural\training(20).mov,False,True,left,0,163,163,163,2018-10-31 15:14:13.079557,2018-10-31 15:14:17.066785,0:00:03.987228,4,left,1,0.20040863149711186,19,f,1,19,2018_Oct_31_1456,MP_PerceptionTuring2,59.929590175475745,
165,resources/videos_generated\model(vcgpdm)-dataset(walking)-mode(ELBO)-parts(2)-dyn(22)-lvm(19)_final(5).mov,resources/videos_natural\training(35).mov,True,False,right,0,164,164,164,2018-10-31 15:14:18.384861,2018-10-31 15:14:22.321086,0:00:03.936225,4,right,1,0.2505147799131464,19,f,1,19,2018_Oct_31_1456,MP_PerceptionTuring2,59.929590175475745,
166,resources/videos_generated\model(vcgpdm)-dataset(walking)-mode(ELBO)-parts(1)-dyn(23)-lvm(28)_final(8).mov,resources/videos_natural\training(24).mov,False,True,left,0,165,165,165,2018-10-31 15:14:23.689164,2018-10-31 15:14:27.642390,0:00:03.953226,4,left,1,0.28385794152472954,19,f,1,19,2018_Oct_31_1456,MP_PerceptionTuring2,59.929590175475745,
167,resources/videos_generated\model(vcgpdm)-dataset(walking)-mode(ELBO)-parts(2)-dyn(28)-lvm(23)_final(9).mov,resources/videos_natural\training(36).mov,True,True,left,0,166,166,166,2018-10-31 15:14:29.044470,2018-10-31 15:14:32.963695,0:00:03.919225,4,left,1,0.23395869894488897,19,f,1,19,2018_Oct_31_1456,MP_PerceptionTuring2,59.929590175475745,
168,resources/videos_generated\model(vcgpdm)-dataset(walking)-mode(ELBO)-parts(2)-dyn(24)-lvm(19)_final(1).mov,resources/videos_natural\training(27).mov,False,False,right,0,167,167,167,2018-10-31 15:14:34.314772,2018-10-31 15:14:38.217995,0:00:03.903223,4,right,1,0.2838368594163967,19,f,1,19,2018_Oct_31_1456,MP_PerceptionTuring2,59.929590175475745,
169,resources/videos_generated\model(vcgpdm)-dataset(walking)-mode(ELBO)-parts(2)-dyn(28)-lvm(17)_final(1).mov,resources/videos_natural\training(23).mov,True,False,right,0,168,168,168,2018-10-31 15:14:39.619075,2018-10-31 15:14:43.706309,0:00:04.087234,4,right,1,0.28379077995055013,19,f,1,19,2018_Oct_31_1456,MP_PerceptionTuring2,59.929590175475745,
170,resources/videos_generated\model(vcgpdm)-dataset(walking)-mode(ELBO)-parts(1)-dyn(22)-lvm(22)_final(4).mov,resources/videos_natural\training(43).mov,True,False,right,0,169,169,169,2018-10-31 15:14:45.107389,2018-10-31 15:14:49.227625,0:00:04.120236,4,right,1,0.3339896896443406,19,f,1,19,2018_Oct_31_1456,MP_PerceptionTuring2,59.929590175475745,
171,resources/videos_generated\model(vcgpdm)-dataset(walking)-mode(ELBO)-parts(1)-dyn(22)-lvm(23)_final(4)_fail.mov,resources/videos_natural\training(11).mov,True,True,left,0,170,170,170,2018-10-31 15:14:50.679708,2018-10-31 15:14:54.782943,0:00:04.103235,4,left,1,0.30043420108290775,19,f,1,19,2018_Oct_31_1456,MP_PerceptionTuring2,59.929590175475745,
172,resources/videos_generated\model(vcgpdm)-dataset(walking)-mode(ELBO)-parts(2)-dyn(27)-lvm(22)_final(3).mov,resources/videos_natural\training(44).mov,False,False,right,0,171,171,171,2018-10-31 15:14:56.201024,2018-10-31 15:15:00.154250,0:00:03.953226,4,right,1,0.08389414251701055,19,f,1,19,2018_Oct_31_1456,MP_PerceptionTuring2,59.929590175475745,
173,resources/videos_generated\model(vcgpdm)-dataset(walking)-mode(ELBO)-parts(2)-dyn(24)-lvm(21)_final(9).mov,resources/videos_natural\training(5).mov,False,False,right,0,172,172,172,2018-10-31 15:15:01.355319,2018-10-31 15:15:05.275543,0:00:03.920224,4,right,1,0.2685014325293196,19,f,1,19,2018_Oct_31_1456,MP_PerceptionTuring2,59.929590175475745,
174,resources/videos_generated\model(vcgpdm)-dataset(walking)-mode(ELBO)-parts(1)-dyn(25)-lvm(28)_final(2).mov,resources/videos_natural\training(9).mov,True,False,right,0,173,173,173,2018-10-31 15:15:06.659622,2018-10-31 15:15:10.746856,0:00:04.087234,4,right,1,0.2670106262862646,19,f,1,19,2018_Oct_31_1456,MP_PerceptionTuring2,59.929590175475745,
175,resources/videos_generated\model(dmp)-dataset(walking)-npsi(90)_final(6).mov,resources/videos_natural\training(19).mov,True,False,right,0,174,174,174,2018-10-31 15:15:12.130935,2018-10-31 15:15:16.218169,0:00:04.087234,4,right,1,0.2337183629078936,19,f,1,19,2018_Oct_31_1456,MP_PerceptionTuring2,59.929590175475745,
176,resources/videos_generated\model(vcgpdm)-dataset(walking)-mode(ELBO)-parts(2)-dyn(28)-lvm(21)_final(1).mov,resources/videos_natural\training(7).mov,True,True,left,0,175,175,175,2018-10-31 15:15:17.569246,2018-10-31 15:15:21.655480,0:00:04.086234,4,left,1,0.417228780933101,19,f,1,19,2018_Oct_31_1456,MP_PerceptionTuring2,59.929590175475745,
177,resources/videos_generated\model(vcgpdm)-dataset(walking)-mode(ELBO)-parts(1)-dyn(22)-lvm(25)_final(8).mov,resources/videos_natural\training(11).mov,True,False,right,0,176,176,176,2018-10-31 15:15:23.190567,2018-10-31 15:15:27.260800,0:00:04.070233,4,right,1,0.23387105760798477,19,f,1,19,2018_Oct_31_1456,MP_PerceptionTuring2,59.929590175475745,
178,resources/videos_generated\model(dmp)-dataset(walking)-npsi(80)_final(6).mov,resources/videos_natural\training(22).mov,True,True,left,0,177,177,177,2018-10-31 15:15:28.611878,2018-10-31 15:15:32.632107,0:00:04.020229,4,right,0,0.25045394297171697,19,f,1,19,2018_Oct_31_1456,MP_PerceptionTuring2,59.929590175475745,
179,resources/videos_generated\model(vcgpdm)-dataset(walking)-mode(ELBO)-parts(1)-dyn(24)-lvm(23)_final(4)_fail.mov,resources/videos_natural\training(6).mov,False,True,left,0,178,178,178,2018-10-31 15:15:34.000186,2018-10-31 15:15:37.920410,0:00:03.920224,4,left,1,0.3004965438894942,19,f,1,19,2018_Oct_31_1456,MP_PerceptionTuring2,59.929590175475745,
180,resources/videos_generated\model(vcgpdm)-dataset(walking)-mode(ELBO)-parts(2)-dyn(23)-lvm(22)_final(7).mov,resources/videos_natural\training(5).mov,True,False,right,0,179,179,179,2018-10-31 15:15:39.337491,2018-10-31 15:15:43.291717,0:00:03.954226,4,right,1,1.0178071535208346,19,f,1,19,2018_Oct_31_1456,MP_PerceptionTuring2,59.929590175475745,
181,resources/videos_generated\model(vcgpdm)-dataset(walking)-mode(ELBO)-parts(1)-dyn(25)-lvm(24)_final(9).mov,resources/videos_natural\training(41).mov,True,True,left,0,180,180,180,2018-10-31 15:16:16.603623,2018-10-31 15:16:20.523847,0:00:03.920224,5,left,1,0.25057350864426553,19,f,1,19,2018_Oct_31_1456,MP_PerceptionTuring2,59.929590175475745,
182,resources/videos_generated\model(vcgpdm)-dataset(walking)-mode(ELBO)-parts(2)-dyn(25)-lvm(22)_final(5).mov,resources/videos_natural\training(4).mov,True,False,right,0,181,181,181,2018-10-31 15:16:21.890925,2018-10-31 15:16:25.828150,0:00:03.937225,5,right,1,0.2339300875119079,19,f,1,19,2018_Oct_31_1456,MP_PerceptionTuring2,59.929590175475745,
183,resources/videos_generated\model(tmp)-dataset(walking)-numprim(13)_final(2).mov,resources/videos_natural\training(10).mov,True,False,right,0,182,182,182,2018-10-31 15:16:27.179227,2018-10-31 15:16:31.116453,0:00:03.937226,5,left,0,0.08361736454980928,19,f,1,19,2018_Oct_31_1456,MP_PerceptionTuring2,59.929590175475745,
184,resources/videos_generated\model(vcgpdm)-dataset(walking)-mode(ELBO)-parts(1)-dyn(24)-lvm(25)_final(8).mov,resources/videos_natural\training(42).mov,True,False,right,0,183,183,183,2018-10-31 15:16:32.316521,2018-10-31 15:16:36.270747,0:00:03.954226,5,left,0,0.333914998745513,19,f,1,19,2018_Oct_31_1456,MP_PerceptionTuring2,59.929590175475745,
185,resources/videos_generated\model(vcgpdm)-dataset(walking)-mode(ELBO)-parts(2)-dyn(23)-lvm(22)_final(3).mov,resources/videos_natural\training(45).mov,True,True,left,0,184,184,184,2018-10-31 15:16:37.721830,2018-10-31 15:16:41.625054,0:00:03.903224,5,left,1,0.2337322168650644,19,f,1,19,2018_Oct_31_1456,MP_PerceptionTuring2,59.929590175475745,
186,resources/videos_generated\model(vcgpdm)-dataset(walking)-mode(ELBO)-parts(2)-dyn(28)-lvm(21)_final(9).mov,resources/videos_natural\training(4).mov,False,False,right,0,185,185,185,2018-10-31 15:16:42.976131,2018-10-31 15:16:46.913356,0:00:03.937225,5,right,1,0.25044671482010017,19,f,1,19,2018_Oct_31_1456,MP_PerceptionTuring2,59.929590175475745,
187,resources/videos_generated\model(vcgpdm)-dataset(walking)-mode(ELBO)-parts(1)-dyn(25)-lvm(22)_final(4).mov,resources/videos_natural\training(35).mov,True,True,left,0,186,186,186,2018-10-31 15:16:48.280434,2018-10-31 15:16:52.384669,0:00:04.104235,5,left,1,0.18385857398811822,19,f,1,19,2018_Oct_31_1456,MP_PerceptionTuring2,59.929590175475745,
188,resources/videos_generated\model(tmp)-dataset(walking)-numprim(12)_final(8).mov,resources/videos_natural\training(43).mov,False,True,left,0,187,187,187,2018-10-31 15:16:53.685743,2018-10-31 15:16:57.788978,0:00:04.103235,5,left,1,0.3171465908274058,19,f,1,19,2018_Oct_31_1456,MP_PerceptionTuring2,59.929590175475745,
189,resources/videos_generated\model(vcgpdm)-dataset(walking)-mode(ELBO)-parts(1)-dyn(28)-lvm(24)_final(7).mov,resources/videos_natural\training(12).mov,True,True,left,0,188,188,188,2018-10-31 15:16:59.224060,2018-10-31 15:17:03.310294,0:00:04.086234,5,right,0,0.2002830423650721,19,f,1,19,2018_Oct_31_1456,MP_PerceptionTuring2,59.929590175475745,
190,resources/videos_generated\model(vcgpdm)-dataset(walking)-mode(ELBO)-parts(2)-dyn(24)-lvm(21)_final(5).mov,resources/videos_natural\training(37).mov,True,True,left,0,189,189,189,2018-10-31 15:17:04.628369,2018-10-31 15:17:08.765606,0:00:04.137237,5,right,0,0.550809236734267,19,f,1,19,2018_Oct_31_1456,MP_PerceptionTuring2,59.929590175475745,
191,resources/videos_generated\model(vcgpdm)-dataset(walking)-mode(ELBO)-parts(1)-dyn(26)-lvm(27)_final(1).mov,resources/videos_natural\training(5).mov,False,False,right,0,190,190,190,2018-10-31 15:17:10.433701,2018-10-31 15:17:14.519935,0:00:04.086234,5,right,1,0.0667242710183018,19,f,1,19,2018_Oct_31_1456,MP_PerceptionTuring2,59.929590175475745,
192,resources/videos_generated\model(vcgpdm)-dataset(walking)-mode(ELBO)-parts(1)-dyn(28)-lvm(23)_final(1).mov,resources/videos_natural\training(42).mov,True,False,right,0,191,191,191,2018-10-31 15:17:15.705003,2018-10-31 15:17:19.825239,0:00:04.120236,5,right,1,0.26682420021256803,19,f,1,19,2018_Oct_31_1456,MP_PerceptionTuring2,59.929590175475745,
193,resources/videos_generated\model(vcgpdm)-dataset(walking)-mode(ELBO)-parts(2)-dyn(22)-lvm(19)_final(3).mov,resources/videos_natural\training(12).mov,False,False,right,0,192,192,192,2018-10-31 15:17:21.209318,2018-10-31 15:17:25.346554,0:00:04.137236,5,right,1,0.6677504878250602,19,f,1,19,2018_Oct_31_1456,MP_PerceptionTuring2,59.929590175475745,
194,resources/videos_generated\model(vcgpdm)-dataset(walking)-mode(ELBO)-parts(2)-dyn(23)-lvm(20)_final(7).mov,resources/videos_natural\training(12).mov,False,True,left,0,193,193,193,2018-10-31 15:17:27.130656,2018-10-31 15:17:31.034880,0:00:03.904224,5,left,1,0.1837576810403334,19,f,1,19,2018_Oct_31_1456,MP_PerceptionTuring2,59.929590175475745,
195,resources/videos_generated\model(vcgpdm)-dataset(walking)-mode(ELBO)-parts(1)-dyn(28)-lvm(23)_final(9).mov,resources/videos_natural\training(9).mov,False,True,left,0,194,194,194,2018-10-31 15:17:32.335954,2018-10-31 15:17:36.322182,0:00:03.986228,5,left,1,0.3505873324838831,19,f,1,19,2018_Oct_31_1456,MP_PerceptionTuring2,59.929590175475745,
196,resources/videos_generated\model(vcgpdm)-dataset(walking)-mode(ELBO)-parts(1)-dyn(22)-lvm(28)_final(0).mov,resources/videos_natural\training(38).mov,False,False,right,0,195,195,195,2018-10-31 15:17:37.790266,2018-10-31 15:17:41.693489,0:00:03.903223,5,left,0,0.1837546693107015,19,f,1,19,2018_Oct_31_1456,MP_PerceptionTuring2,59.929590175475745,
197,resources/videos_generated\model(vcgpdm)-dataset(walking)-mode(ELBO)-parts(1)-dyn(27)-lvm(22)_final(1).mov,resources/videos_natural\training(20).mov,False,True,left,0,196,196,196,2018-10-31 15:17:42.978563,2018-10-31 15:17:46.881786,0:00:03.903223,5,right,0,0.01690483927745845,19,f,1,19,2018_Oct_31_1456,MP_PerceptionTuring2,59.929590175475745,
198,resources/videos_generated\model(vcgpdm)-dataset(walking)-mode(ELBO)-parts(2)-dyn(24)-lvm(19)_final(3).mov,resources/videos_natural\training(5).mov,True,True,left,0,197,197,197,2018-10-31 15:17:48.015851,2018-10-31 15:17:51.953076,0:00:03.937225,5,left,1,0.35050962985542355,19,f,1,19,2018_Oct_31_1456,MP_PerceptionTuring2,59.929590175475745,
199,resources/videos_generated\model(dmp)-dataset(walking)-npsi(100)_final(6).mov,resources/videos_natural\training(14).mov,False,True,left,0,198,198,198,2018-10-31 15:17:53.420160,2018-10-31 15:17:57.374386,0:00:03.954226,5,right,0,0.1838911006698254,19,f,1,19,2018_Oct_31_1456,MP_PerceptionTuring2,59.929590175475745,
200,resources/videos_generated\model(vcgpdm)-dataset(walking)-mode(ELBO)-parts(2)-dyn(27)-lvm(20)_final(7).mov,resources/videos_natural\training(9).mov,False,False,right,0,199,199,199,2018-10-31 15:17:58.675461,2018-10-31 15:18:02.561683,0:00:03.886222,5,right,1,0.1338331399301751,19,f,1,19,2018_Oct_31_1456,MP_PerceptionTuring2,59.929590175475745,
201,resources/videos_generated\model(dmp)-dataset(walking)-npsi(90)_final(8).mov,resources/videos_natural\training(47).mov,False,True,left,0,200,200,200,2018-10-31 15:18:03.812755,2018-10-31 15:18:07.749980,0:00:03.937225,5,left,1,0.6175937423481628,19,f,1,19,2018_Oct_31_1456,MP_PerceptionTuring2,59.929590175475745,
202,resources/videos_generated\model(vcgpdm)-dataset(walking)-mode(ELBO)-parts(1)-dyn(23)-lvm(22)_final(9)_fail.mov,resources/videos_natural\training(23).mov,True,True,left,0,201,201,201,2018-10-31 15:18:09.484079,2018-10-31 15:18:13.604315,0:00:04.120236,5,left,1,0.20041555847546988,19,f,1,19,2018_Oct_31_1456,MP_PerceptionTuring2,59.929590175475745,
203,resources/videos_generated\model(vcgpdm)-dataset(walking)-mode(ELBO)-parts(2)-dyn(26)-lvm(21)_final(1).mov,resources/videos_natural\training(40).mov,True,True,left,0,202,202,202,2018-10-31 15:18:14.922390,2018-10-31 15:18:19.009624,0:00:04.087234,5,left,1,0.25054007844346415,19,f,1,19,2018_Oct_31_1456,MP_PerceptionTuring2,59.929590175475745,
204,resources/videos_generated\model(tmp)-dataset(walking)-numprim(11)_final(4).mov,resources/videos_natural\training(34).mov,False,False,right,0,203,203,203,2018-10-31 15:18:20.376702,2018-10-31 15:18:24.313927,0:00:03.937225,5,right,1,0.23375028724376534,19,f,1,19,2018_Oct_31_1456,MP_PerceptionTuring2,59.929590175475745,
205,resources/videos_generated\model(vcgpdm)-dataset(walking)-mode(ELBO)-parts(1)-dyn(27)-lvm(22)_final(5).mov,resources/videos_natural\training(25).mov,False,False,right,0,204,204,204,2018-10-31 15:18:25.665004,2018-10-31 15:18:29.769239,0:00:04.104235,5,right,1,0.3670509533480981,19,f,1,19,2018_Oct_31_1456,MP_PerceptionTuring2,59.929590175475745,
206,resources/videos_generated\model(vcgpdm)-dataset(walking)-mode(ELBO)-parts(1)-dyn(26)-lvm(27)_final(3).mov,resources/videos_natural\training(34).mov,True,False,right,0,205,205,205,2018-10-31 15:18:31.253324,2018-10-31 15:18:35.340558,0:00:04.087234,5,right,1,0.2505229115838574,19,f,1,19,2018_Oct_31_1456,MP_PerceptionTuring2,59.929590175475745,
207,resources/videos_generated\model(vcgpdm)-dataset(walking)-mode(ELBO)-parts(1)-dyn(26)-lvm(23)_final(5).mov,resources/videos_natural\training(5).mov,False,False,right,0,206,206,206,2018-10-31 15:18:36.707636,2018-10-31 15:18:40.794870,0:00:04.087234,5,right,1,0.3172920573758802,19,f,1,19,2018_Oct_31_1456,MP_PerceptionTuring2,59.929590175475745,
208,resources/videos_generated\model(vcgpdm)-dataset(walking)-mode(ELBO)-parts(1)-dyn(25)-lvm(23)_final(7).mov,resources/videos_natural\training(30).mov,True,True,left,0,207,207,207,2018-10-31 15:18:42.228952,2018-10-31 15:18:46.300185,0:00:04.071233,5,left,1,0.46717831940054566,19,f,1,19,2018_Oct_31_1456,MP_PerceptionTuring2,59.929590175475745,
209,resources/videos_generated\model(vcgpdm)-dataset(walking)-mode(ELBO)-parts(2)-dyn(22)-lvm(23)_final(3).mov,resources/videos_natural\training(5).mov,False,False,right,0,208,208,208,2018-10-31 15:18:47.884275,2018-10-31 15:18:51.971509,0:00:04.087234,5,right,1,0.23389033267881132,19,f,1,19,2018_Oct_31_1456,MP_PerceptionTuring2,59.929590175475745,
210,resources/videos_generated\model(vcgpdm)-dataset(walking)-mode(ELBO)-parts(2)-dyn(25)-lvm(22)_final(7).mov,resources/videos_natural\training(40).mov,False,False,right,0,209,209,209,2018-10-31 15:18:53.322586,2018-10-31 15:18:57.258811,0:00:03.936225,5,right,1,0.3005161201331248,19,f,1,19,2018_Oct_31_1456,MP_PerceptionTuring2,59.929590175475745,
211,resources/videos_generated\model(tmp)-dataset(walking)-numprim(12)_final(2).mov,resources/videos_natural\training(38).mov,True,False,right,0,210,210,210,2018-10-31 15:18:58.676893,2018-10-31 15:19:02.597117,0:00:03.920224,5,left,0,0.033724446602263924,19,f,1,19,2018_Oct_31_1456,MP_PerceptionTuring2,59.929590175475745,
212,resources/videos_generated\model(vcgpdm)-dataset(walking)-mode(ELBO)-parts(1)-dyn(23)-lvm(24)_final(1).mov,resources/videos_natural\training(32).mov,True,True,left,0,211,211,211,2018-10-31 15:19:03.748183,2018-10-31 15:19:07.835416,0:00:04.087233,5,left,1,0.26717837963497004,19,f,1,19,2018_Oct_31_1456,MP_PerceptionTuring2,59.929590175475745,
213,resources/videos_generated\model(vcgpdm)-dataset(walking)-mode(ELBO)-parts(1)-dyn(28)-lvm(27)_final(3).mov,resources/videos_natural\training(33).mov,True,True,left,0,212,212,212,2018-10-31 15:19:09.219496,2018-10-31 15:19:13.189723,0:00:03.970227,5,left,1,0.20063812530656833,19,f,1,19,2018_Oct_31_1456,MP_PerceptionTuring2,59.929590175475745,
214,resources/videos_generated\model(vcgpdm)-dataset(walking)-mode(ELBO)-parts(1)-dyn(24)-lvm(27)_final(0).mov,resources/videos_natural\training(10).mov,True,True,left,0,213,213,213,2018-10-31 15:19:14.507798,2018-10-31 15:19:18.411021,0:00:03.903223,5,left,1,0.20052608895866797,19,f,1,19,2018_Oct_31_1456,MP_PerceptionTuring2,59.929590175475745,
215,resources/videos_generated\model(vcgpdm)-dataset(walking)-mode(ELBO)-parts(2)-dyn(24)-lvm(19)_final(9).mov,resources/videos_natural\training(11).mov,False,True,left,0,214,214,214,2018-10-31 15:19:19.728097,2018-10-31 15:19:23.632320,0:00:03.904223,5,right,0,0.40059710554692174,19,f,1,19,2018_Oct_31_1456,MP_PerceptionTuring2,59.929590175475745,
216,resources/videos_generated\model(tmp)-dataset(walking)-numprim(11)_final(6).mov,resources/videos_natural\training(17).mov,False,False,right,0,215,215,215,2018-10-31 15:19:25.149407,2018-10-31 15:19:29.053630,0:00:03.904223,5,left,0,0.20038815173461444,19,f,1,19,2018_Oct_31_1456,MP_PerceptionTuring2,59.929590175475745,
217,resources/videos_generated\model(vcgpdm)-dataset(walking)-mode(ELBO)-parts(1)-dyn(23)-lvm(22)_final(7).mov,resources/videos_natural\training(26).mov,True,True,left,0,216,216,216,2018-10-31 15:19:30.370705,2018-10-31 15:19:34.424937,0:00:04.054232,5,left,1,0.23368673974528065,19,f,1,19,2018_Oct_31_1456,MP_PerceptionTuring2,59.929590175475745,
218,resources/videos_generated\model(vcgpdm)-dataset(walking)-mode(ELBO)-parts(2)-dyn(27)-lvm(22)_final(7).mov,resources/videos_natural\training(24).mov,True,True,left,0,217,217,217,2018-10-31 15:19:35.776015,2018-10-31 15:19:39.846247,0:00:04.070232,5,left,1,0.2171731241667203,19,f,1,19,2018_Oct_31_1456,MP_PerceptionTuring2,59.929590175475745,
219,resources/videos_generated\model(vcgpdm)-dataset(walking)-mode(ELBO)-parts(2)-dyn(27)-lvm(22)_final(5).mov,resources/videos_natural\training(33).mov,True,True,left,0,218,218,218,2018-10-31 15:19:41.180324,2018-10-31 15:19:45.283558,0:00:04.103234,5,left,1,0.27204834669578304,19,f,1,19,2018_Oct_31_1456,MP_PerceptionTuring2,59.929590175475745,
220,resources/videos_generated\model(dmp)-dataset(walking)-npsi(50)_final(6).mov,resources/videos_natural\training(32).mov,True,False,right,0,219,219,219,2018-10-31 15:19:46.668638,2018-10-31 15:19:50.771872,0:00:04.103234,5,right,1,0.4505761589662143,19,f,1,19,2018_Oct_31_1456,MP_PerceptionTuring2,59.929590175475745,
221,resources/videos_generated\model(dmp)-dataset(walking)-npsi(70)_final(4).mov,resources/videos_natural\training(28).mov,False,True,left,0,220,220,220,2018-10-31 15:19:52.339962,2018-10-31 15:19:56.293188,0:00:03.953226,5,left,1,0.08373662904909907,19,f,1,19,2018_Oct_31_1456,MP_PerceptionTuring2,59.929590175475745,
222,resources/videos_generated\model(vcgpdm)-dataset(walking)-mode(ELBO)-parts(2)-dyn(28)-lvm(21)_final(3).mov,resources/videos_natural\training(32).mov,False,False,right,0,221,221,221,2018-10-31 15:19:57.494257,2018-10-31 15:20:01.431482,0:00:03.937225,5,right,1,0.18378478660838482,19,f,1,19,2018_Oct_31_1456,MP_PerceptionTuring2,59.929590175475745,
223,resources/videos_generated\model(vcgpdm)-dataset(walking)-mode(ELBO)-parts(2)-dyn(24)-lvm(17)_final(3).mov,resources/videos_natural\training(30).mov,True,False,right,0,222,222,222,2018-10-31 15:20:02.732556,2018-10-31 15:20:06.819790,0:00:04.087234,5,right,1,0.3838771864782302,19,f,1,19,2018_Oct_31_1456,MP_PerceptionTuring2,59.929590175475745,
224,resources/videos_generated\model(vcgpdm)-dataset(walking)-mode(ELBO)-parts(1)-dyn(27)-lvm(28)_final(1).mov,resources/videos_natural\training(25).mov,True,False,right,0,223,223,223,2018-10-31 15:20:08.320876,2018-10-31 15:20:12.407110,0:00:04.086234,5,right,1,0.4167204009454508,19,f,1,19,2018_Oct_31_1456,MP_PerceptionTuring2,59.929590175475745,
225,resources/videos_generated\model(dmp)-dataset(walking)-npsi(100)_final(2).mov,resources/videos_natural\training(25).mov,False,False,right,0,224,224,224,2018-10-31 15:20:13.942198,2018-10-31 15:20:18.045432,0:00:04.103234,5,left,0,0.3173568095662631,19,f,1,19,2018_Oct_31_1456,MP_PerceptionTuring2,59.929590175475745,
226,resources/videos_generated\model(vcgpdm)-dataset(walking)-mode(ELBO)-parts(2)-dyn(27)-lvm(18)_final(5).mov,resources/videos_natural\training(18).mov,True,False,right,0,225,225,225,2018-10-31 15:20:50.407283,2018-10-31 15:20:54.493517,0:00:04.086234,6,right,1,0.26711212157988484,19,f,1,19,2018_Oct_31_1456,MP_PerceptionTuring2,59.929590175475745,
227,resources/videos_generated\model(vcgpdm)-dataset(walking)-mode(ELBO)-parts(2)-dyn(24)-lvm(17)_final(9).mov,resources/videos_natural\training(13).mov,True,False,right,0,226,226,226,2018-10-31 15:20:55.878596,2018-10-31 15:20:59.964830,0:00:04.086234,6,right,1,0.08352550679137494,19,f,1,19,2018_Oct_31_1456,MP_PerceptionTuring2,59.929590175475745,
228,resources/videos_generated\model(vcgpdm)-dataset(walking)-mode(ELBO)-parts(2)-dyn(26)-lvm(19)_final(1).mov,resources/videos_natural\training(32).mov,True,False,right,0,227,227,227,2018-10-31 15:21:01.165899,2018-10-31 15:21:05.103124,0:00:03.937225,6,left,0,0.267284994869442,19,f,1,19,2018_Oct_31_1456,MP_PerceptionTuring2,59.929590175475745,
229,resources/videos_generated\model(vcgpdm)-dataset(walking)-mode(ELBO)-parts(2)-dyn(25)-lvm(20)_final(9).mov,resources/videos_natural\training(28).mov,False,False,right,0,228,228,228,2018-10-31 15:21:06.487203,2018-10-31 15:21:10.441429,0:00:03.954226,6,right,1,0.467350289171236,19,f,1,19,2018_Oct_31_1456,MP_PerceptionTuring2,59.929590175475745,
230,resources/videos_generated\model(vcgpdm)-dataset(walking)-mode(ELBO)-parts(2)-dyn(22)-lvm(19)_final(1).mov,resources/videos_natural\training(21).mov,False,False,right,0,229,229,229,2018-10-31 15:21:12.025520,2018-10-31 15:21:16.112753,0:00:04.087233,6,right,1,0.25050213064810123,19,f,1,19,2018_Oct_31_1456,MP_PerceptionTuring2,59.929590175475745,
231,resources/videos_generated\model(vcgpdm)-dataset(walking)-mode(ELBO)-parts(1)-dyn(28)-lvm(23)_final(3)_fail.mov,resources/videos_natural\training(1).mov,True,False,right,0,230,230,230,2018-10-31 15:21:17.480832,2018-10-31 15:21:21.567065,0:00:04.086233,6,right,1,0.21707614646743423,19,f,1,19,2018_Oct_31_1456,MP_PerceptionTuring2,59.929590175475745,
232,resources/videos_generated\model(dmp)-dataset(walking)-npsi(80)_final(2).mov,resources/videos_natural\training(15).mov,False,True,left,0,231,231,231,2018-10-31 15:21:22.902142,2018-10-31 15:21:27.005376,0:00:04.103234,6,right,0,0.26704556235176824,19,f,1,19,2018_Oct_31_1456,MP_PerceptionTuring2,59.929590175475745,
233,resources/videos_generated\model(vcgpdm)-dataset(walking)-mode(ELBO)-parts(1)-dyn(22)-lvm(25)_final(2).mov,resources/videos_natural\training(31).mov,True,False,right,0,232,232,232,2018-10-31 15:21:28.389456,2018-10-31 15:21:32.493690,0:00:04.104234,6,right,1,0.3172562177912823,19,f,1,19,2018_Oct_31_1456,MP_PerceptionTuring2,59.929590175475745,
234,resources/videos_generated\model(vcgpdm)-dataset(walking)-mode(ELBO)-parts(1)-dyn(27)-lvm(26)_final(7).mov,resources/videos_natural\training(32).mov,True,True,left,0,233,233,233,2018-10-31 15:21:33.927772,2018-10-31 15:21:37.864998,0:00:03.937226,6,left,1,0.08371976336229636,19,f,1,19,2018_Oct_31_1456,MP_PerceptionTuring2,59.929590175475745,
235,resources/videos_generated\model(vcgpdm)-dataset(walking)-mode(ELBO)-parts(1)-dyn(26)-lvm(27)_final(5).mov,resources/videos_natural\training(23).mov,False,True,left,0,234,234,234,2018-10-31 15:21:39.066066,2018-10-31 15:21:43.169301,0:00:04.103235,6,right,0,0.35058642896478887,19,f,1,19,2018_Oct_31_1456,MP_PerceptionTuring2,59.929590175475745,
236,resources/videos_generated\model(dmp)-dataset(walking)-npsi(50)_final(2).mov,resources/videos_natural\training(16).mov,False,False,right,0,235,235,235,2018-10-31 15:21:44.637385,2018-10-31 15:21:48.707618,0:00:04.070233,6,right,1,0.3005465386038395,19,f,1,19,2018_Oct_31_1456,MP_PerceptionTuring2,59.929590175475745,
237,resources/videos_generated\model(vcgpdm)-dataset(walking)-mode(ELBO)-parts(1)-dyn(28)-lvm(25)_final(7).mov,resources/videos_natural\training(19).mov,True,True,left,0,236,236,236,2018-10-31 15:21:50.125699,2018-10-31 15:21:54.028922,0:00:03.903223,6,left,1,0.20046193911412047,19,f,1,19,2018_Oct_31_1456,MP_PerceptionTuring2,59.929590175475745,
238,resources/videos_generated\model(vcgpdm)-dataset(walking)-mode(ELBO)-parts(1)-dyn(24)-lvm(25)_final(6).mov,resources/videos_natural\training(31).mov,False,True,left,0,237,237,237,2018-10-31 15:21:55.345997,2018-10-31 15:21:59.300224,0:00:03.954227,6,left,1,0.00022768677149542782,19,f,1,19,2018_Oct_31_1456,MP_PerceptionTuring2,59.929590175475745,
239,resources/videos_generated\model(vcgpdm)-dataset(walking)-mode(ELBO)-parts(1)-dyn(26)-lvm(27)_final(9).mov,resources/videos_natural\training(20).mov,True,False,right,0,238,238,238,2018-10-31 15:22:00.417288,2018-10-31 15:22:04.504521,0:00:04.087233,6,right,1,0.43393966481266943,19,f,1,19,2018_Oct_31_1456,MP_PerceptionTuring2,59.929590175475745,
240,resources/videos_generated\model(vcgpdm)-dataset(walking)-mode(ELBO)-parts(2)-dyn(25)-lvm(20)_final(1).mov,resources/videos_natural\training(4).mov,False,True,left,0,239,239,239,2018-10-31 15:22:06.055610,2018-10-31 15:22:09.975834,0:00:03.920224,6,left,1,0.21702434471535526,19,f,1,19,2018_Oct_31_1456,MP_PerceptionTuring2,59.929590175475745,
241,resources/videos_generated\model(vcgpdm)-dataset(walking)-mode(ELBO)-parts(1)-dyn(23)-lvm(27)_final(2).mov,resources/videos_natural\training(6).mov,True,False,right,0,240,240,240,2018-10-31 15:22:11.309911,2018-10-31 15:22:15.397144,0:00:04.087233,6,right,1,0.23382407462327137,19,f,1,19,2018_Oct_31_1456,MP_PerceptionTuring2,59.929590175475745,
242,resources/videos_generated\model(vcgpdm)-dataset(walking)-mode(ELBO)-parts(1)-dyn(25)-lvm(23)_final(0).mov,resources/videos_natural\training(42).mov,False,False,right,0,241,241,241,2018-10-31 15:22:16.748222,2018-10-31 15:22:20.801453,0:00:04.053231,6,right,1,0.36716118265803743,19,f,1,19,2018_Oct_31_1456,MP_PerceptionTuring2,59.929590175475745,
243,resources/videos_generated\model(vcgpdm)-dataset(walking)-mode(ELBO)-parts(2)-dyn(27)-lvm(20)_final(1).mov,resources/videos_natural\training(10).mov,False,True,left,0,242,242,242,2018-10-31 15:22:22.286538,2018-10-31 15:22:26.373772,0:00:04.087234,6,left,1,0.2505921813688019,19,f,1,19,2018_Oct_31_1456,MP_PerceptionTuring2,59.929590175475745,
244,resources/videos_generated\model(vcgpdm)-dataset(walking)-mode(ELBO)-parts(2)-dyn(26)-lvm(17)_final(7).mov,resources/videos_natural\training(27).mov,True,False,right,0,243,243,243,2018-10-31 15:22:27.740850,2018-10-31 15:22:31.828084,0:00:04.087234,6,right,1,0.30057424651772635,19,f,1,19,2018_Oct_31_1456,MP_PerceptionTuring2,59.929590175475745,
245,resources/videos_generated\model(vcgpdm)-dataset(walking)-mode(ELBO)-parts(1)-dyn(27)-lvm(28)_final(5).mov,resources/videos_natural\training(27).mov,True,True,left,0,244,244,244,2018-10-31 15:22:33.246165,2018-10-31 15:22:37.282396,0:00:04.036231,6,left,1,0.20047820245508774,19,f,1,19,2018_Oct_31_1456,MP_PerceptionTuring2,59.929590175475745,
246,resources/videos_generated\model(vcgpdm)-dataset(walking)-mode(ELBO)-parts(1)-dyn(26)-lvm(25)_final(7).mov,resources/videos_natural\training(27).mov,True,False,right,0,245,245,245,2018-10-31 15:22:38.600471,2018-10-31 15:22:42.537697,0:00:03.937226,6,right,1,0.4505975422478059,19,f,1,19,2018_Oct_31_1456,MP_PerceptionTuring2,59.929590175475745,
247,resources/videos_generated\model(dmp)-dataset(walking)-npsi(60)_final(6).mov,resources/videos_natural\training(47).mov,True,True,left,0,246,246,246,2018-10-31 15:22:44.105786,2018-10-31 15:22:48.192020,0:00:04.086234,6,right,0,0.200392669329176,19,f,1,19,2018_Oct_31_1456,MP_PerceptionTuring2,59.929590175475745,
248,resources/videos_generated\model(vcgpdm)-dataset(walking)-mode(ELBO)-parts(2)-dyn(25)-lvm(18)_final(3).mov,resources/videos_natural\training(37).mov,False,False,right,0,247,247,247,2018-10-31 15:22:49.510095,2018-10-31 15:22:53.613330,0:00:04.103235,6,right,1,0.3172456767372296,19,f,1,19,2018_Oct_31_1456,MP_PerceptionTuring2,59.929590175475745,
249,resources/videos_generated\model(tmp)-dataset(walking)-numprim(14)_final(0).mov,resources/videos_natural\training(44).mov,True,True,left,0,248,248,248,2018-10-31 15:22:55.048412,2018-10-31 15:22:59.134646,0:00:04.086234,6,left,1,0.20046464967117572,19,f,1,19,2018_Oct_31_1456,MP_PerceptionTuring2,59.929590175475745,
250,resources/videos_generated\model(vcgpdm)-dataset(walking)-mode(ELBO)-parts(1)-dyn(22)-lvm(25)_final(4).mov,resources/videos_natural\training(13).mov,False,True,left,0,249,249,249,2018-10-31 15:23:00.452721,2018-10-31 15:23:04.556956,0:00:04.104235,6,left,1,0.26710850750419013,19,f,1,19,2018_Oct_31_1456,MP_PerceptionTuring2,59.929590175475745,
251,resources/videos_generated\model(vcgpdm)-dataset(walking)-mode(ELBO)-parts(2)-dyn(24)-lvm(21)_final(7).mov,resources/videos_natural\training(18).mov,False,True,left,0,250,250,250,2018-10-31 15:23:05.941035,2018-10-31 15:23:10.011268,0:00:04.070233,6,right,0,0.20074865578976642,19,f,1,19,2018_Oct_31_1456,MP_PerceptionTuring2,59.929590175475745,
252,resources/videos_generated\model(dmp)-dataset(walking)-npsi(60)_final(2).mov,resources/videos_natural\training(21).mov,True,True,left,0,251,251,251,2018-10-31 15:23:11.328343,2018-10-31 15:23:15.248568,0:00:03.920225,6,left,1,0.3174766764116157,19,f,1,19,2018_Oct_31_1456,MP_PerceptionTuring2,59.929590175475745,
253,resources/videos_generated\model(vcgpdm)-dataset(walking)-mode(ELBO)-parts(1)-dyn(28)-lvm(27)_final(7).mov,resources/videos_natural\training(34).mov,True,True,left,0,252,252,252,2018-10-31 15:23:16.683650,2018-10-31 15:23:20.786884,0:00:04.103234,6,left,1,0.18374924819681837,19,f,1,19,2018_Oct_31_1456,MP_PerceptionTuring2,59.929590175475745,
254,resources/videos_generated\model(vcgpdm)-dataset(walking)-mode(ELBO)-parts(2)-dyn(26)-lvm(23)_final(9).mov,resources/videos_natural\training(41).mov,True,True,left,0,253,253,253,2018-10-31 15:23:22.087959,2018-10-31 15:23:26.192194,0:00:04.104235,6,left,1,0.23383702506134796,19,f,1,19,2018_Oct_31_1456,MP_PerceptionTuring2,59.929590175475745,
255,resources/videos_generated\model(vcgpdm)-dataset(walking)-mode(ELBO)-parts(2)-dyn(28)-lvm(19)_final(1).mov,resources/videos_natural\training(26).mov,True,False,right,0,254,254,254,2018-10-31 15:23:27.543271,2018-10-31 15:23:31.646506,0:00:04.103235,6,right,1,0.23426228130711024,19,f,1,19,2018_Oct_31_1456,MP_PerceptionTuring2,59.929590175475745,
256,resources/videos_generated\model(vcgpdm)-dataset(walking)-mode(ELBO)-parts(1)-dyn(23)-lvm(26)_final(1)_hip-corrected.mov,resources/videos_natural\training(48).mov,True,False,right,0,255,255,255,2018-10-31 15:23:32.997583,2018-10-31 15:23:36.950809,0:00:03.953226,6,right,1,0.38395820200935304,19,f,1,19,2018_Oct_31_1456,MP_PerceptionTuring2,59.929590175475745,
257,resources/videos_generated\model(vcgpdm)-dataset(walking)-mode(ELBO)-parts(1)-dyn(22)-lvm(22)_final(2).mov,resources/videos_natural\training(35).mov,False,False,right,0,256,256,256,2018-10-31 15:23:38.451895,2018-10-31 15:23:42.539129,0:00:04.087234,6,right,1,0.5675270475921934,19,f,1,19,2018_Oct_31_1456,MP_PerceptionTuring2,59.929590175475745,
258,resources/videos_generated\model(tmp)-dataset(walking)-numprim(12)_final(4).mov,resources/videos_natural\training(43).mov,False,False,right,0,257,257,257,2018-10-31 15:23:44.224225,2018-10-31 15:23:48.127448,0:00:03.903223,6,left,0,0.033560006155994415,19,f,1,19,2018_Oct_31_1456,MP_PerceptionTuring2,59.929590175475745,
259,resources/videos_generated\model(vcgpdm)-dataset(walking)-mode(ELBO)-parts(2)-dyn(26)-lvm(17)_final(5).mov,resources/videos_natural\training(24).mov,False,True,left,0,258,258,258,2018-10-31 15:23:49.278514,2018-10-31 15:23:53.364748,0:00:04.086234,6,right,0,0.2838034292155953,19,f,1,19,2018_Oct_31_1456,MP_PerceptionTuring2,59.929590175475745,
260,resources/videos_generated\model(vcgpdm)-dataset(walking)-mode(ELBO)-parts(1)-dyn(22)-lvm(27)_final(4)_fail.mov,resources/videos_natural\training(35).mov,True,True,left,0,259,259,259,2018-10-31 15:23:54.766828,2018-10-31 15:23:58.837061,0:00:04.070233,6,left,1,0.23386774470532146,19,f,1,19,2018_Oct_31_1456,MP_PerceptionTuring2,59.929590175475745,
261,resources/videos_generated\model(vcgpdm)-dataset(walking)-mode(ELBO)-parts(2)-dyn(25)-lvm(22)_final(9).mov,resources/videos_natural\training(36).mov,False,True,left,0,260,260,260,2018-10-31 15:24:00.188138,2018-10-31 15:24:04.308374,0:00:04.120236,6,left,1,0.43396677038049347,19,f,1,19,2018_Oct_31_1456,MP_PerceptionTuring2,59.929590175475745,
262,resources/videos_generated\model(vcgpdm)-dataset(walking)-mode(ELBO)-parts(2)-dyn(22)-lvm(17)_final(1).mov,resources/videos_natural\training(3).mov,False,True,left,0,261,261,261,2018-10-31 15:24:05.859462,2018-10-31 15:24:09.946696,0:00:04.087234,6,right,0,0.2170589796078275,19,f,1,19,2018_Oct_31_1456,MP_PerceptionTuring2,59.929590175475745,
263,resources/videos_generated\model(dmp)-dataset(walking)-npsi(100)_final(4).mov,resources/videos_natural\training(48).mov,True,False,right,0,262,262,262,2018-10-31 15:24:11.280772,2018-10-31 15:24:15.384007,0:00:04.103235,6,left,0,0.16696276989978287,19,f,1,19,2018_Oct_31_1456,MP_PerceptionTuring2,59.929590175475745,
264,resources/videos_generated\model(vcgpdm)-dataset(walking)-mode(ELBO)-parts(2)-dyn(26)-lvm(19)_final(7).mov,resources/videos_natural\training(46).mov,False,True,left,0,263,263,263,2018-10-31 15:24:16.669081,2018-10-31 15:24:20.772315,0:00:04.103234,6,left,1,0.3339722216117025,19,f,1,19,2018_Oct_31_1456,MP_PerceptionTuring2,59.929590175475745,
265,resources/videos_generated\model(dmp)-dataset(walking)-npsi(80)_final(4).mov,resources/videos_natural\training(1).mov,False,True,left,0,264,264,264,2018-10-31 15:24:22.223398,2018-10-31 15:24:26.327633,0:00:04.104235,6,right,0,0.23404573793550298,19,f,1,19,2018_Oct_31_1456,MP_PerceptionTuring2,59.929590175475745,
266,resources/videos_generated\model(vcgpdm)-dataset(walking)-mode(ELBO)-parts(2)-dyn(28)-lvm(23)_final(5).mov,resources/videos_natural\training(35).mov,True,True,left,0,265,265,265,2018-10-31 15:24:27.677710,2018-10-31 15:24:31.764944,0:00:04.087234,6,left,1,0.18378237722458834,19,f,1,19,2018_Oct_31_1456,MP_PerceptionTuring2,59.929590175475745,
267,resources/videos_generated\model(vcgpdm)-dataset(walking)-mode(ELBO)-parts(1)-dyn(27)-lvm(26)_final(9).mov,resources/videos_natural\training(31).mov,False,True,left,0,266,266,266,2018-10-31 15:24:33.066019,2018-10-31 15:24:37.003244,0:00:03.937225,6,left,1,0.26713591424527294,19,f,1,19,2018_Oct_31_1456,MP_PerceptionTuring2,59.929590175475745,
268,resources/videos_generated\model(dmp)-dataset(walking)-npsi(100)_final(0).mov,resources/videos_natural\training(39).mov,True,False,right,0,267,267,267,2018-10-31 15:24:38.387323,2018-10-31 15:24:42.307547,0:00:03.920224,6,right,1,0.08368362260512185,19,f,1,19,2018_Oct_31_1456,MP_PerceptionTuring2,59.929590175475745,
269,resources/videos_generated\model(vcgpdm)-dataset(walking)-mode(ELBO)-parts(1)-dyn(22)-lvm(25)_final(6).mov,resources/videos_natural\training(38).mov,True,True,left,0,268,268,268,2018-10-31 15:24:43.508616,2018-10-31 15:24:47.428840,0:00:03.920224,6,left,1,0.05030371789007404,19,f,1,19,2018_Oct_31_1456,MP_PerceptionTuring2,59.929590175475745,
270,resources/videos_generated\model(vcgpdm)-dataset(walking)-mode(ELBO)-parts(1)-dyn(27)-lvm(28)_final(7).mov,resources/videos_natural\training(48).mov,True,True,left,0,269,269,269,2018-10-31 15:24:48.595907,2018-10-31 15:24:52.516131,0:00:03.920224,6,left,1,0.21705747374289786,19,f,1,19,2018_Oct_31_1456,MP_PerceptionTuring2,59.929590175475745,
271,resources/videos_generated\model(vcgpdm)-dataset(walking)-mode(ELBO)-parts(1)-dyn(22)-lvm(23)_final(8).mov,resources/videos_natural\training(47).mov,True,True,left,0,270,270,270,2018-10-31 15:25:24.677971,2018-10-31 15:25:28.581194,0:00:03.903223,7,left,1,0.3838603207914275,19,f,1,19,2018_Oct_31_1456,MP_PerceptionTuring2,59.929590175475745,
272,resources/videos_generated\model(vcgpdm)-dataset(walking)-mode(ELBO)-parts(2)-dyn(27)-lvm(18)_final(1).mov,resources/videos_natural\training(34).mov,True,False,right,0,271,271,271,2018-10-31 15:25:30.082280,2018-10-31 15:25:34.002504,0:00:03.920224,7,right,1,0.8011945122671023,19,f,1,19,2018_Oct_31_1456,MP_PerceptionTuring2,59.929590175475745,
273,resources/videos_generated\model(vcgpdm)-dataset(walking)-mode(ELBO)-parts(2)-dyn(27)-lvm(18)_final(7).mov,resources/videos_natural\training(16).mov,True,True,left,0,272,272,272,2018-10-31 15:25:35.920614,2018-10-31 15:25:39.840838,0:00:03.920224,7,left,1,0.26705519988672677,19,f,1,19,2018_Oct_31_1456,MP_PerceptionTuring2,59.929590175475745,
274,resources/videos_generated\model(vcgpdm)-dataset(walking)-mode(ELBO)-parts(2)-dyn(26)-lvm(21)_final(3).mov,resources/videos_natural\training(16).mov,False,True,left,0,273,273,273,2018-10-31 15:25:41.224917,2018-10-31 15:25:45.162142,0:00:03.937225,7,left,1,0.23371715821622274,19,f,1,19,2018_Oct_31_1456,MP_PerceptionTuring2,59.929590175475745,
275,resources/videos_generated\model(vcgpdm)-dataset(walking)-mode(ELBO)-parts(2)-dyn(22)-lvm(17)_final(9).mov,resources/videos_natural\training(46).mov,True,True,left,0,274,274,274,2018-10-31 15:25:46.513219,2018-10-31 15:25:50.433444,0:00:03.920225,7,right,0,0.2004938634499922,19,f,1,19,2018_Oct_31_1456,MP_PerceptionTuring2,59.929590175475745,
276,resources/videos_generated\model(vcgpdm)-dataset(walking)-mode(ELBO)-parts(1)-dyn(27)-lvm(24)_final(9).mov,resources/videos_natural\training(6).mov,True,True,left,0,275,275,275,2018-10-31 15:25:51.750519,2018-10-31 15:25:55.654742,0:00:03.904223,7,left,1,0.11706202145478528,19,f,1,19,2018_Oct_31_1456,MP_PerceptionTuring2,59.929590175475745,
277,resources/videos_generated\model(vcgpdm)-dataset(walking)-mode(ELBO)-parts(2)-dyn(24)-lvm(23)_final(5).mov,resources/videos_natural\training(21).mov,True,False,right,0,276,276,276,2018-10-31 15:25:56.888813,2018-10-31 15:26:00.809037,0:00:03.920224,7,right,1,0.26715217758601284,19,f,1,19,2018_Oct_31_1456,MP_PerceptionTuring2,59.929590175475745,
278,resources/videos_generated\model(vcgpdm)-dataset(walking)-mode(ELBO)-parts(2)-dyn(24)-lvm(19)_final(7).mov,resources/videos_natural\training(15).mov,True,True,left,0,277,277,277,2018-10-31 15:26:02.193116,2018-10-31 15:26:06.096340,0:00:03.903224,7,left,1,0.2517402527628292,19,f,1,19,2018_Oct_31_1456,MP_PerceptionTuring2,59.929590175475745,
279,resources/videos_generated\model(vcgpdm)-dataset(walking)-mode(ELBO)-parts(2)-dyn(28)-lvm(21)_final(7).mov,resources/videos_natural\training(33).mov,True,True,left,0,278,278,278,2018-10-31 15:26:07.465418,2018-10-31 15:26:11.367641,0:00:03.902223,7,left,1,0.10030837101248835,19,f,1,19,2018_Oct_31_1456,MP_PerceptionTuring2,59.929590175475745,
280,resources/videos_generated\model(tmp)-dataset(walking)-numprim(12)_final(6).mov,resources/videos_natural\training(38).mov,False,False,right,0,279,279,279,2018-10-31 15:26:12.585711,2018-10-31 15:26:16.472933,0:00:03.887222,7,left,0,0.3839976556696456,19,f,1,19,2018_Oct_31_1456,MP_PerceptionTuring2,59.929590175475745,
281,resources/videos_generated\model(vcgpdm)-dataset(walking)-mode(ELBO)-parts(1)-dyn(22)-lvm(27)_final(8)_fail.mov,resources/videos_natural\training(39).mov,False,False,right,0,280,280,280,2018-10-31 15:26:17.974019,2018-10-31 15:26:21.877242,0:00:03.903223,7,right,1,0.18377394438130068,19,f,1,19,2018_Oct_31_1456,MP_PerceptionTuring2,59.929590175475745,
282,resources/videos_generated\model(vcgpdm)-dataset(walking)-mode(ELBO)-parts(1)-dyn(24)-lvm(23)_final(6)_fail.mov,resources/videos_natural\training(18).mov,False,False,right,0,281,281,281,2018-10-31 15:26:23.178317,2018-10-31 15:26:27.281551,0:00:04.103234,7,right,1,0.1838600798528205,19,f,1,19,2018_Oct_31_1456,MP_PerceptionTuring2,59.929590175475745,
283,resources/videos_generated\model(vcgpdm)-dataset(walking)-mode(ELBO)-parts(1)-dyn(25)-lvm(24)_final(1).mov,resources/videos_natural\training(2).mov,False,True,left,0,282,282,282,2018-10-31 15:26:28.582626,2018-10-31 15:26:32.702861,0:00:04.120235,7,right,0,1.1845325991139362,19,f,1,19,2018_Oct_31_1456,MP_PerceptionTuring2,59.929590175475745,
284,resources/videos_generated\model(vcgpdm)-dataset(walking)-mode(ELBO)-parts(1)-dyn(22)-lvm(27)_final(0)_hip-correted.mov,resources/videos_natural\training(36).mov,False,False,right,0,283,283,283,2018-10-31 15:26:35.004993,2018-10-31 15:26:38.925217,0:00:03.920224,7,right,1,0.21703006700181504,19,f,1,19,2018_Oct_31_1456,MP_PerceptionTuring2,59.929590175475745,
285,resources/videos_generated\model(vcgpdm)-dataset(walking)-mode(ELBO)-parts(2)-dyn(25)-lvm(18)_final(9).mov,resources/videos_natural\training(28).mov,True,True,left,0,284,284,284,2018-10-31 15:26:40.259294,2018-10-31 15:26:44.363528,0:00:04.104234,7,right,0,0.43399477946786646,19,f,1,19,2018_Oct_31_1456,MP_PerceptionTuring2,59.929590175475745,
286,resources/videos_generated\model(vcgpdm)-dataset(walking)-mode(ELBO)-parts(2)-dyn(23)-lvm(18)_final(5).mov,resources/videos_natural\training(0).mov,True,True,left,0,285,285,285,2018-10-31 15:26:45.914617,2018-10-31 15:26:49.984850,0:00:04.070233,7,right,0,0.21708006171638772,19,f,1,19,2018_Oct_31_1456,MP_PerceptionTuring2,59.929590175475745,
287,resources/videos_generated\model(vcgpdm)-dataset(walking)-mode(ELBO)-parts(2)-dyn(28)-lvm(23)_final(7).mov,resources/videos_natural\training(36).mov,False,False,right,0,286,286,286,2018-10-31 15:26:51.318926,2018-10-31 15:26:55.239150,0:00:03.920224,7,right,1,0.2671771749432992,19,f,1,19,2018_Oct_31_1456,MP_PerceptionTuring2,59.929590175475745,
288,resources/videos_generated\model(vcgpdm)-dataset(walking)-mode(ELBO)-parts(1)-dyn(28)-lvm(25)_final(3).mov,resources/videos_natural\training(29).mov,False,True,left,0,287,287,287,2018-10-31 15:26:56.624230,2018-10-31 15:27:00.694462,0:00:04.070232,7,left,1,0.26707447495800807,19,f,1,19,2018_Oct_31_1456,MP_PerceptionTuring2,59.929590175475745,
289,resources/videos_generated\model(vcgpdm)-dataset(walking)-mode(ELBO)-parts(1)-dyn(24)-lvm(27)_final(2).mov,resources/videos_natural\training(36).mov,False,True,left,0,288,288,288,2018-10-31 15:27:02.078542,2018-10-31 15:27:06.014767,0:00:03.936225,7,left,1,0.1671181751567019,19,f,1,19,2018_Oct_31_1456,MP_PerceptionTuring2,59.929590175475745,
290,resources/videos_generated\model(tmp)-dataset(walking)-numprim(11)_final(2).mov,resources/videos_natural\training(5).mov,False,True,left,0,289,289,289,2018-10-31 15:27:07.299840,2018-10-31 15:27:11.220064,0:00:03.920224,7,right,0,0.2170872898682319,19,f,1,19,2018_Oct_31_1456,MP_PerceptionTuring2,59.929590175475745,
