n_trial,mov_file_generated,mov_file_natural,mirrored,switch_stim_pos,correct_answer,trials.thisRepN,trials.thisTrialN,trials.thisN,trials.thisIndex,stimulus_onset,stimulus_off,stimulus_length,block,response.keys,response.corr,response.rt,age,gender,condition,participant,date,expName,frameRate
1,resources/videos_generated\model(vcgpdm)-dataset(walking)-mode(ELBO)-parts(2)-dyn(23)-lvm(22)_final(7).mov,resources/videos_natural\training(39).mov,True,True,left,0,0,0,0,2018-09-10 16:59:12.827546,2018-09-10 16:59:16.980783,0:00:04.153237,1,left,1,2.869174311373172,26,f,1,1,2018_Sep_10_1658,MP_PerceptionTuring2,59.96312328796935
2,resources/videos_generated\model(vcgpdm)-dataset(walking)-mode(ELBO)-parts(1)-dyn(23)-lvm(22)_final(5)_fail.mov,resources/videos_natural\training(23).mov,True,True,left,0,1,1,1,2018-09-10 16:59:20.967011,2018-09-10 16:59:25.087247,0:00:04.120236,1,left,1,0.7174937808322284,26,f,1,1,2018_Sep_10_1658,MP_PerceptionTuring2,59.96312328796935
3,resources/videos_generated\model(vcgpdm)-dataset(walking)-mode(ELBO)-parts(1)-dyn(22)-lvm(23)_final(2).mov,resources/videos_natural\training(43).mov,True,False,right,0,2,2,2,2018-09-10 16:59:26.922352,2018-09-10 16:59:30.909580,0:00:03.987228,1,right,1,0.48390997415936,26,f,1,1,2018_Sep_10_1658,MP_PerceptionTuring2,59.96312328796935
4,resources/videos_generated\model(vcgpdm)-dataset(walking)-mode(ELBO)-parts(2)-dyn(22)-lvm(19)_final(9).mov,resources/videos_natural\training(18).mov,False,True,left,0,3,3,3,2018-09-10 16:59:32.510672,2018-09-10 16:59:36.597905,0:00:04.087233,1,left,1,0.8509339292486402,26,f,1,1,2018_Sep_10_1658,MP_PerceptionTuring2,59.96312328796935
5,resources/videos_generated\model(dmp)-dataset(walking)-npsi(80)_final(4).mov,resources/videos_natural\training(5).mov,True,False,right,0,4,4,4,2018-09-10 16:59:38.566018,2018-09-10 16:59:42.653252,0:00:04.087234,1,left,0,0.5173980086619849,26,f,1,1,2018_Sep_10_1658,MP_PerceptionTuring2,59.96312328796935
6,resources/videos_generated\model(vcgpdm)-dataset(walking)-mode(ELBO)-parts(1)-dyn(23)-lvm(24)_final(3).mov,resources/videos_natural\training(1).mov,True,True,left,0,5,5,5,2018-09-10 16:59:44.287345,2018-09-10 16:59:48.190568,0:00:03.903223,1,left,1,2.3524048452281936,26,f,1,1,2018_Sep_10_1658,MP_PerceptionTuring2,59.96312328796935
7,resources/videos_generated\model(vcgpdm)-dataset(walking)-mode(ELBO)-parts(2)-dyn(27)-lvm(18)_final(3).mov,resources/videos_natural\training(27).mov,False,True,left,0,6,6,6,2018-09-10 16:59:51.660767,2018-09-10 16:59:55.597992,0:00:03.937225,1,left,1,0.7841337437275797,26,f,1,1,2018_Sep_10_1658,MP_PerceptionTuring2,59.96312328796935
8,resources/videos_generated\model(vcgpdm)-dataset(walking)-mode(ELBO)-parts(1)-dyn(28)-lvm(23)_final(3)_fail.mov,resources/videos_natural\training(13).mov,True,False,right,0,7,7,7,2018-09-10 16:59:57.499101,2018-09-10 17:00:01.452327,0:00:03.953226,1,right,1,0.7176627373974043,26,f,1,1,2018_Sep_10_1658,MP_PerceptionTuring2,59.96312328796935
9,resources/videos_generated\model(vcgpdm)-dataset(walking)-mode(ELBO)-parts(2)-dyn(28)-lvm(23)_final(1).mov,resources/videos_natural\training(10).mov,True,False,right,0,8,8,8,2018-09-10 17:00:03.287432,2018-09-10 17:00:07.407668,0:00:04.120236,1,left,0,0.984512013685162,26,f,1,1,2018_Sep_10_1658,MP_PerceptionTuring2,59.96312328796935
10,resources/videos_generated\model(vcgpdm)-dataset(walking)-mode(ELBO)-parts(1)-dyn(27)-lvm(22)_final(9).mov,resources/videos_natural\training(25).mov,False,True,left,0,9,9,9,2018-09-10 17:00:09.509788,2018-09-10 17:00:13.596021,0:00:04.086233,1,left,1,0.6508203880284782,26,f,1,1,2018_Sep_10_1658,MP_PerceptionTuring2,59.96312328796935
11,resources/videos_generated\model(tmp)-dataset(walking)-numprim(13)_final(8).mov,resources/videos_natural\training(41).mov,True,True,left,0,10,10,10,2018-09-10 17:00:15.364123,2018-09-10 17:00:19.284347,0:00:03.920224,1,right,0,0.567402526216938,26,f,1,1,2018_Sep_10_1658,MP_PerceptionTuring2,59.96312328796935
12,resources/videos_generated\model(vcgpdm)-dataset(walking)-mode(ELBO)-parts(2)-dyn(25)-lvm(18)_final(1).mov,resources/videos_natural\training(13).mov,True,False,right,0,11,11,11,2018-09-10 17:00:20.969443,2018-09-10 17:00:24.922669,0:00:03.953226,1,right,1,0.5006791391351726,26,f,1,1,2018_Sep_10_1658,MP_PerceptionTuring2,59.96312328796935
13,resources/videos_generated\model(vcgpdm)-dataset(walking)-mode(ELBO)-parts(2)-dyn(23)-lvm(20)_final(1).mov,resources/videos_natural\training(11).mov,False,True,left,0,12,12,12,2018-09-10 17:00:26.540762,2018-09-10 17:00:30.443985,0:00:03.903223,1,left,1,0.6173904794031841,26,f,1,1,2018_Sep_10_1658,MP_PerceptionTuring2,59.96312328796935
14,resources/videos_generated\model(vcgpdm)-dataset(walking)-mode(ELBO)-parts(2)-dyn(25)-lvm(22)_final(1).mov,resources/videos_natural\training(22).mov,False,False,right,0,13,13,13,2018-09-10 17:00:32.179084,2018-09-10 17:00:36.366324,0:00:04.187240,1,right,1,0.4506336624117466,26,f,1,1,2018_Sep_10_1658,MP_PerceptionTuring2,59.96312328796935
15,resources/videos_generated\model(vcgpdm)-dataset(walking)-mode(ELBO)-parts(1)-dyn(26)-lvm(25)_final(7).mov,resources/videos_natural\training(9).mov,False,False,right,0,14,14,14,2018-09-10 17:00:37.933414,2018-09-10 17:00:42.054649,0:00:04.121235,1,right,1,0.6007613586398293,26,f,1,1,2018_Sep_10_1658,MP_PerceptionTuring2,59.96312328796935
16,resources/videos_generated\model(vcgpdm)-dataset(walking)-mode(ELBO)-parts(2)-dyn(26)-lvm(19)_final(7).mov,resources/videos_natural\training(33).mov,False,True,left,0,15,15,15,2018-09-10 17:00:43.771747,2018-09-10 17:00:47.825979,0:00:04.054232,1,right,0,0.4839879772789573,26,f,1,1,2018_Sep_10_1658,MP_PerceptionTuring2,59.96312328796935
17,resources/videos_generated\model(vcgpdm)-dataset(walking)-mode(ELBO)-parts(2)-dyn(26)-lvm(23)_final(9).mov,resources/videos_natural\training(32).mov,False,False,right,0,16,16,16,2018-09-10 17:00:49.427071,2018-09-10 17:00:53.347295,0:00:03.920224,1,right,1,0.5842246971733402,26,f,1,1,2018_Sep_10_1658,MP_PerceptionTuring2,59.96312328796935
18,resources/videos_generated\model(vcgpdm)-dataset(walking)-mode(ELBO)-parts(1)-dyn(25)-lvm(22)_final(6).mov,resources/videos_natural\training(33).mov,True,False,right,0,17,17,17,2018-09-10 17:00:55.048392,2018-09-10 17:00:58.952616,0:00:03.904224,1,right,1,0.4505993289922117,26,f,1,1,2018_Sep_10_1658,MP_PerceptionTuring2,59.96312328796935
19,resources/videos_generated\model(vcgpdm)-dataset(walking)-mode(ELBO)-parts(1)-dyn(26)-lvm(25)_final(3).mov,resources/videos_natural\training(34).mov,True,True,left,0,18,18,18,2018-09-10 17:01:00.519705,2018-09-10 17:01:04.589938,0:00:04.070233,1,left,1,0.5674522193248777,26,f,1,1,2018_Sep_10_1658,MP_PerceptionTuring2,59.96312328796935
20,resources/videos_generated\model(vcgpdm)-dataset(walking)-mode(ELBO)-parts(1)-dyn(22)-lvm(25)_final(8).mov,resources/videos_natural\training(5).mov,False,False,right,0,19,19,19,2018-09-10 17:01:06.275035,2018-09-10 17:01:10.145256,0:00:03.870221,1,right,1,0.4338654009488892,26,f,1,1,2018_Sep_10_1658,MP_PerceptionTuring2,59.96312328796935
21,resources/videos_generated\model(dmp)-dataset(walking)-npsi(70)_final(4).mov,resources/videos_natural\training(30).mov,True,True,left,0,20,20,20,2018-09-10 17:01:11.696345,2018-09-10 17:01:15.599568,0:00:03.903223,1,right,0,0.5673326546957469,26,f,1,1,2018_Sep_10_1658,MP_PerceptionTuring2,59.96312328796935
22,resources/videos_generated\model(vcgpdm)-dataset(walking)-mode(ELBO)-parts(2)-dyn(28)-lvm(21)_final(1).mov,resources/videos_natural\training(10).mov,False,True,left,0,21,21,21,2018-09-10 17:01:17.284664,2018-09-10 17:01:21.220889,0:00:03.936225,1,right,0,0.31723959305872995,26,f,1,1,2018_Sep_10_1658,MP_PerceptionTuring2,59.96312328796935
23,resources/videos_generated\model(vcgpdm)-dataset(walking)-mode(ELBO)-parts(2)-dyn(26)-lvm(21)_final(5).mov,resources/videos_natural\training(31).mov,True,False,right,0,22,22,22,2018-09-10 17:01:22.655971,2018-09-10 17:01:26.709203,0:00:04.053232,1,right,1,0.4840732084876436,26,f,1,1,2018_Sep_10_1658,MP_PerceptionTuring2,59.96312328796935
24,resources/videos_generated\model(dmp)-dataset(walking)-npsi(70)_final(6).mov,resources/videos_natural\training(29).mov,False,True,left,0,23,23,23,2018-09-10 17:01:28.310295,2018-09-10 17:01:32.230519,0:00:03.920224,1,right,0,0.38371722513693385,26,f,1,1,2018_Sep_10_1658,MP_PerceptionTuring2,59.96312328796935
25,resources/videos_generated\model(vcgpdm)-dataset(walking)-mode(ELBO)-parts(2)-dyn(28)-lvm(23)_final(9).mov,resources/videos_natural\training(1).mov,False,False,right,0,24,24,24,2018-09-10 17:01:33.731605,2018-09-10 17:01:37.685831,0:00:03.954226,1,right,1,1.5182268294593086,26,f,1,1,2018_Sep_10_1658,MP_PerceptionTuring2,59.96312328796935
26,resources/videos_generated\model(dmp)-dataset(walking)-npsi(100)_final(0).mov,resources/videos_natural\training(2).mov,False,True,left,0,25,25,25,2018-09-10 17:01:40.320982,2018-09-10 17:01:44.424217,0:00:04.103235,1,right,0,1.4348508303273777,26,f,1,1,2018_Sep_10_1658,MP_PerceptionTuring2,59.96312328796935
27,resources/videos_generated\model(vcgpdm)-dataset(walking)-mode(ELBO)-parts(1)-dyn(27)-lvm(22)_final(7).mov,resources/videos_natural\training(14).mov,True,True,left,0,26,26,26,2018-09-10 17:01:46.977363,2018-09-10 17:01:50.963591,0:00:03.986228,1,left,1,1.0344773790957331,26,f,1,1,2018_Sep_10_1658,MP_PerceptionTuring2,59.96312328796935
28,resources/videos_generated\model(vcgpdm)-dataset(walking)-mode(ELBO)-parts(2)-dyn(24)-lvm(19)_final(9).mov,resources/videos_natural\training(7).mov,True,False,right,0,27,27,27,2018-09-10 17:01:53.115714,2018-09-10 17:01:57.185946,0:00:04.070232,1,left,0,0.5340012287751961,26,f,1,1,2018_Sep_10_1658,MP_PerceptionTuring2,59.96312328796935
29,resources/videos_generated\model(vcgpdm)-dataset(walking)-mode(ELBO)-parts(1)-dyn(28)-lvm(24)_final(2).mov,resources/videos_natural\training(23).mov,False,False,right,0,28,28,28,2018-09-10 17:01:58.837041,2018-09-10 17:02:02.724263,0:00:03.887222,1,right,1,0.4171974292094092,26,f,1,1,2018_Sep_10_1658,MP_PerceptionTuring2,59.96312328796935
30,resources/videos_generated\model(tmp)-dataset(walking)-numprim(15)_final(6).mov,resources/videos_natural\training(20).mov,True,True,left,0,29,29,29,2018-09-10 17:02:04.258351,2018-09-10 17:02:08.211577,0:00:03.953226,1,right,0,0.317146230250728,26,f,1,1,2018_Sep_10_1658,MP_PerceptionTuring2,59.96312328796935
31,resources/videos_generated\model(vcgpdm)-dataset(walking)-mode(ELBO)-parts(2)-dyn(26)-lvm(21)_final(9).mov,resources/videos_natural\training(37).mov,False,True,left,0,30,30,30,2018-09-10 17:02:09.646659,2018-09-10 17:02:13.582884,0:00:03.936225,1,left,1,0.5007517211888626,26,f,1,1,2018_Sep_10_1658,MP_PerceptionTuring2,59.96312328796935
32,resources/videos_generated\model(vcgpdm)-dataset(walking)-mode(ELBO)-parts(2)-dyn(28)-lvm(19)_final(5).mov,resources/videos_natural\training(34).mov,False,False,right,0,31,31,31,2018-09-10 17:02:15.200977,2018-09-10 17:02:19.121201,0:00:03.920224,1,right,1,0.41732331841467385,26,f,1,1,2018_Sep_10_1658,MP_PerceptionTuring2,59.96312328796935
33,resources/videos_generated\model(vcgpdm)-dataset(walking)-mode(ELBO)-parts(1)-dyn(23)-lvm(24)_final(5).mov,resources/videos_natural\training(38).mov,True,True,left,0,32,32,32,2018-09-10 17:02:20.656289,2018-09-10 17:02:24.726522,0:00:04.070233,1,left,1,0.5841138664854952,26,f,1,1,2018_Sep_10_1658,MP_PerceptionTuring2,59.96312328796935
34,resources/videos_generated\model(vcgpdm)-dataset(walking)-mode(ELBO)-parts(2)-dyn(26)-lvm(23)_final(5).mov,resources/videos_natural\training(30).mov,True,True,left,0,33,33,33,2018-09-10 17:02:26.427619,2018-09-10 17:02:30.330842,0:00:03.903223,1,left,1,0.3838548599860587,26,f,1,1,2018_Sep_10_1658,MP_PerceptionTuring2,59.96312328796935
35,resources/videos_generated\model(vcgpdm)-dataset(walking)-mode(ELBO)-parts(2)-dyn(24)-lvm(21)_final(1).mov,resources/videos_natural\training(36).mov,True,True,left,0,34,34,34,2018-09-10 17:02:31.831928,2018-09-10 17:02:35.919162,0:00:04.087234,1,left,1,1.1178777730256115,26,f,1,1,2018_Sep_10_1658,MP_PerceptionTuring2,59.96312328796935
36,resources/videos_generated\model(vcgpdm)-dataset(walking)-mode(ELBO)-parts(2)-dyn(23)-lvm(18)_final(1).mov,resources/videos_natural\training(38).mov,True,True,left,0,35,35,35,2018-09-10 17:02:38.154290,2018-09-10 17:02:42.107516,0:00:03.953226,1,right,0,0.28395816141528485,26,f,1,1,2018_Sep_10_1658,MP_PerceptionTuring2,59.96312328796935
37,resources/videos_generated\model(vcgpdm)-dataset(walking)-mode(ELBO)-parts(2)-dyn(24)-lvm(19)_final(5).mov,resources/videos_natural\training(27).mov,False,False,right,0,36,36,36,2018-09-10 17:02:43.509596,2018-09-10 17:02:47.428820,0:00:03.919224,1,left,0,0.3505412031154265,26,f,1,1,2018_Sep_10_1658,MP_PerceptionTuring2,59.96312328796935
38,resources/videos_generated\model(vcgpdm)-dataset(walking)-mode(ELBO)-parts(2)-dyn(27)-lvm(22)_final(9).mov,resources/videos_natural\training(14).mov,True,False,right,0,37,37,37,2018-09-10 17:02:48.896904,2018-09-10 17:02:52.834129,0:00:03.937225,1,right,1,0.4671778531374002,26,f,1,1,2018_Sep_10_1658,MP_PerceptionTuring2,59.96312328796935
39,resources/videos_generated\model(vcgpdm)-dataset(walking)-mode(ELBO)-parts(2)-dyn(27)-lvm(22)_final(5).mov,resources/videos_natural\training(17).mov,True,False,right,0,38,38,38,2018-09-10 17:02:54.418220,2018-09-10 17:02:58.505454,0:00:04.087234,1,right,1,0.3837648100516162,26,f,1,1,2018_Sep_10_1658,MP_PerceptionTuring2,59.96312328796935
40,resources/videos_generated\model(vcgpdm)-dataset(walking)-mode(ELBO)-parts(2)-dyn(27)-lvm(22)_final(7).mov,resources/videos_natural\training(21).mov,True,False,right,0,39,39,39,2018-09-10 17:03:00.006540,2018-09-10 17:03:03.926764,0:00:03.920224,1,right,1,0.4839699070589632,26,f,1,1,2018_Sep_10_1658,MP_PerceptionTuring2,59.96312328796935
41,resources/videos_generated\model(vcgpdm)-dataset(walking)-mode(ELBO)-parts(1)-dyn(26)-lvm(23)_final(1).mov,resources/videos_natural\training(43).mov,False,True,left,0,40,40,40,2018-09-10 17:03:05.527855,2018-09-10 17:03:09.448080,0:00:03.920225,1,left,1,0.483978942169415,26,f,1,1,2018_Sep_10_1658,MP_PerceptionTuring2,59.96312328796935
42,resources/videos_generated\model(vcgpdm)-dataset(walking)-mode(ELBO)-parts(2)-dyn(23)-lvm(18)_final(7).mov,resources/videos_natural\training(8).mov,True,True,left,0,41,41,41,2018-09-10 17:03:11.049171,2018-09-10 17:03:15.119404,0:00:04.070233,1,right,0,0.6841030243531351,26,f,1,1,2018_Sep_10_1658,MP_PerceptionTuring2,59.96312328796935
43,resources/videos_generated\model(vcgpdm)-dataset(walking)-mode(ELBO)-parts(1)-dyn(26)-lvm(25)_final(9).mov,resources/videos_natural\training(10).mov,True,False,right,0,42,42,42,2018-09-10 17:03:16.921507,2018-09-10 17:03:20.841731,0:00:03.920224,1,right,1,0.5343400454166839,26,f,1,1,2018_Sep_10_1658,MP_PerceptionTuring2,59.96312328796935
44,resources/videos_generated\model(vcgpdm)-dataset(walking)-mode(ELBO)-parts(2)-dyn(22)-lvm(19)_final(5).mov,resources/videos_natural\training(39).mov,False,True,left,0,43,43,43,2018-09-10 17:03:22.492826,2018-09-10 17:03:26.430051,0:00:03.937225,1,left,1,0.4673823478033228,26,f,1,1,2018_Sep_10_1658,MP_PerceptionTuring2,59.96312328796935
45,resources/videos_generated\model(vcgpdm)-dataset(walking)-mode(ELBO)-parts(2)-dyn(22)-lvm(23)_final(9).mov,resources/videos_natural\training(16).mov,False,False,right,0,44,44,44,2018-09-10 17:03:28.014142,2018-09-10 17:03:31.934366,0:00:03.920224,1,right,1,0.33386871382208483,26,f,1,1,2018_Sep_10_1658,MP_PerceptionTuring2,59.96312328796935
46,resources/videos_generated\model(vcgpdm)-dataset(walking)-mode(ELBO)-parts(2)-dyn(24)-lvm(23)_final(5).mov,resources/videos_natural\training(3).mov,False,False,right,0,45,45,45,2018-09-10 17:03:33.385449,2018-09-10 17:03:37.488683,0:00:04.103234,2,right,1,0.7842749926212491,26,f,1,1,2018_Sep_10_1658,MP_PerceptionTuring2,59.96312328796935
47,resources/videos_generated\model(dmp)-dataset(walking)-npsi(90)_final(2).mov,resources/videos_natural\training(13).mov,True,True,left,0,46,46,46,2018-09-10 17:03:39.390792,2018-09-10 17:03:43.311017,0:00:03.920225,2,right,0,0.4004951240513037,26,f,1,1,2018_Sep_10_1658,MP_PerceptionTuring2,59.96312328796935
48,resources/videos_generated\model(tmp)-dataset(walking)-numprim(15)_final(2).mov,resources/videos_natural\training(10).mov,False,True,left,0,47,47,47,2018-09-10 17:03:44.829103,2018-09-10 17:03:48.765328,0:00:03.936225,2,right,0,0.3837949270864556,26,f,1,1,2018_Sep_10_1658,MP_PerceptionTuring2,59.96312328796935
49,resources/videos_generated\model(vcgpdm)-dataset(walking)-mode(ELBO)-parts(1)-dyn(27)-lvm(28)_final(7).mov,resources/videos_natural\training(0).mov,False,False,right,0,48,48,48,2018-09-10 17:03:50.266414,2018-09-10 17:03:54.219640,0:00:03.953226,2,right,1,0.8677187550829331,26,f,1,1,2018_Sep_10_1658,MP_PerceptionTuring2,59.96312328796935
50,resources/videos_generated\model(dmp)-dataset(walking)-npsi(90)_final(0).mov,resources/videos_natural\training(27).mov,True,False,right,0,49,49,49,2018-09-10 17:03:56.204754,2018-09-10 17:04:00.141979,0:00:03.937225,2,left,0,0.3673389792729722,26,f,1,1,2018_Sep_10_1658,MP_PerceptionTuring2,59.96312328796935
51,resources/videos_generated\model(vcgpdm)-dataset(walking)-mode(ELBO)-parts(2)-dyn(24)-lvm(19)_final(3).mov,resources/videos_natural\training(29).mov,True,False,right,0,50,50,50,2018-09-10 17:05:04.398654,2018-09-10 17:05:08.350881,0:00:03.952227,2,right,1,0.5340418867717744,26,f,1,1,2018_Sep_10_1658,MP_PerceptionTuring2,59.96312328796935
52,resources/videos_generated\model(vcgpdm)-dataset(walking)-mode(ELBO)-parts(2)-dyn(24)-lvm(23)_final(3).mov,resources/videos_natural\training(4).mov,True,True,left,0,51,51,51,2018-09-10 17:05:10.001975,2018-09-10 17:05:14.039206,0:00:04.037231,2,left,1,0.38389792734597,26,f,1,1,2018_Sep_10_1658,MP_PerceptionTuring2,59.96312328796935
53,resources/videos_generated\model(vcgpdm)-dataset(walking)-mode(ELBO)-parts(1)-dyn(22)-lvm(28)_final(7).mov,resources/videos_natural\training(7).mov,True,False,right,0,52,52,52,2018-09-10 17:05:15.540292,2018-09-10 17:05:19.460516,0:00:03.920224,2,left,0,0.650795089719395,26,f,1,1,2018_Sep_10_1658,MP_PerceptionTuring2,59.96312328796935
54,resources/videos_generated\model(dmp)-dataset(walking)-npsi(70)_final(2).mov,resources/videos_natural\training(1).mov,True,False,right,0,53,53,53,2018-09-10 17:05:21.228617,2018-09-10 17:05:25.131840,0:00:03.903223,2,left,0,0.30048217372768704,26,f,1,1,2018_Sep_10_1658,MP_PerceptionTuring2,59.96312328796935
55,resources/videos_generated\model(vcgpdm)-dataset(walking)-mode(ELBO)-parts(2)-dyn(27)-lvm(18)_final(1).mov,resources/videos_natural\training(29).mov,False,True,left,0,54,54,54,2018-09-10 17:05:26.549921,2018-09-10 17:05:30.487147,0:00:03.937226,2,left,1,0.41743625729577616,26,f,1,1,2018_Sep_10_1658,MP_PerceptionTuring2,59.96312328796935
56,resources/videos_generated\model(vcgpdm)-dataset(walking)-mode(ELBO)-parts(2)-dyn(25)-lvm(22)_final(9).mov,resources/videos_natural\training(21).mov,False,True,left,0,55,55,55,2018-09-10 17:05:32.021234,2018-09-10 17:05:35.958460,0:00:03.937226,2,right,0,0.3839301525731571,26,f,1,1,2018_Sep_10_1658,MP_PerceptionTuring2,59.96312328796935
57,resources/videos_generated\model(vcgpdm)-dataset(walking)-mode(ELBO)-parts(2)-dyn(28)-lvm(19)_final(9).mov,resources/videos_natural\training(45).mov,False,False,right,0,56,56,56,2018-09-10 17:05:37.459545,2018-09-10 17:05:41.545779,0:00:04.086234,2,left,0,0.3171001511873328,26,f,1,1,2018_Sep_10_1658,MP_PerceptionTuring2,59.96312328796935
58,resources/videos_generated\model(vcgpdm)-dataset(walking)-mode(ELBO)-parts(1)-dyn(23)-lvm(28)_final(2).mov,resources/videos_natural\training(7).mov,False,False,right,0,57,57,57,2018-09-10 17:05:42.980861,2018-09-10 17:05:46.884084,0:00:03.903223,2,right,1,0.3840036381379832,26,f,1,1,2018_Sep_10_1658,MP_PerceptionTuring2,59.96312328796935
59,resources/videos_generated\model(vcgpdm)-dataset(walking)-mode(ELBO)-parts(2)-dyn(22)-lvm(17)_final(7).mov,resources/videos_natural\training(7).mov,False,False,right,0,58,58,58,2018-09-10 17:05:48.385170,2018-09-10 17:05:52.288394,0:00:03.903224,2,right,1,0.3839394888536845,26,f,1,1,2018_Sep_10_1658,MP_PerceptionTuring2,59.96312328796935
60,resources/videos_generated\model(vcgpdm)-dataset(walking)-mode(ELBO)-parts(1)-dyn(24)-lvm(25)_final(8).mov,resources/videos_natural\training(15).mov,False,True,left,0,59,59,59,2018-09-10 17:05:53.790480,2018-09-10 17:05:57.910715,0:00:04.120235,2,right,0,0.4839702082290387,26,f,1,1,2018_Sep_10_1658,MP_PerceptionTuring2,59.96312328796935
61,resources/videos_generated\model(vcgpdm)-dataset(walking)-mode(ELBO)-parts(1)-dyn(22)-lvm(22)_final(2).mov,resources/videos_natural\training(40).mov,False,False,right,0,60,60,60,2018-09-10 17:05:59.511807,2018-09-10 17:06:03.565039,0:00:04.053232,2,right,1,0.4172992247868024,26,f,1,1,2018_Sep_10_1658,MP_PerceptionTuring2,59.96312328796935
62,resources/videos_generated\model(vcgpdm)-dataset(walking)-mode(ELBO)-parts(1)-dyn(26)-lvm(23)_final(3)_fail.mov,resources/videos_natural\training(46).mov,True,False,right,0,61,61,61,2018-09-10 17:06:05.100126,2018-09-10 17:06:09.020351,0:00:03.920225,2,right,1,0.4839075647969366,26,f,1,1,2018_Sep_10_1658,MP_PerceptionTuring2,59.96312328796935
63,resources/videos_generated\model(vcgpdm)-dataset(walking)-mode(ELBO)-parts(2)-dyn(22)-lvm(23)_final(5).mov,resources/videos_natural\training(21).mov,True,False,right,0,62,62,62,2018-09-10 17:06:10.621442,2018-09-10 17:06:14.524665,0:00:03.903223,2,right,1,0.3839873749384424,26,f,1,1,2018_Sep_10_1658,MP_PerceptionTuring2,59.96312328796935
64,resources/videos_generated\model(dmp)-dataset(walking)-npsi(100)_final(8).mov,resources/videos_natural\training(0).mov,False,True,left,0,63,63,63,2018-09-10 17:06:16.025751,2018-09-10 17:06:19.962976,0:00:03.937225,2,right,0,0.41737331269359856,26,f,1,1,2018_Sep_10_1658,MP_PerceptionTuring2,59.96312328796935
65,resources/videos_generated\model(vcgpdm)-dataset(walking)-mode(ELBO)-parts(1)-dyn(28)-lvm(25)_final(1).mov,resources/videos_natural\training(4).mov,False,False,right,0,64,64,64,2018-09-10 17:06:21.497064,2018-09-10 17:06:25.401288,0:00:03.904224,2,right,1,0.4506237237910682,26,f,1,1,2018_Sep_10_1658,MP_PerceptionTuring2,59.96312328796935
66,resources/videos_generated\model(vcgpdm)-dataset(walking)-mode(ELBO)-parts(2)-dyn(26)-lvm(17)_final(1).mov,resources/videos_natural\training(20).mov,True,False,right,0,65,65,65,2018-09-10 17:06:26.968377,2018-09-10 17:06:30.888601,0:00:03.920224,2,right,1,0.2838247429508556,26,f,1,1,2018_Sep_10_1658,MP_PerceptionTuring2,59.96312328796935
67,resources/videos_generated\model(vcgpdm)-dataset(walking)-mode(ELBO)-parts(1)-dyn(22)-lvm(27)_final(4)_fail.mov,resources/videos_natural\training(33).mov,False,True,left,0,66,66,66,2018-09-10 17:06:32.289682,2018-09-10 17:06:36.243908,0:00:03.954226,2,left,1,0.3505806564307932,26,f,1,1,2018_Sep_10_1658,MP_PerceptionTuring2,59.96312328796935
68,resources/videos_generated\model(tmp)-dataset(walking)-numprim(14)_final(0).mov,resources/videos_natural\training(40).mov,True,True,left,0,67,67,67,2018-09-10 17:06:37.710992,2018-09-10 17:06:41.615215,0:00:03.904223,2,right,0,0.9178807847292774,26,f,1,1,2018_Sep_10_1658,MP_PerceptionTuring2,59.96312328796935
69,resources/videos_generated\model(vcgpdm)-dataset(walking)-mode(ELBO)-parts(1)-dyn(25)-lvm(28)_final(8).mov,resources/videos_natural\training(42).mov,False,True,left,0,68,68,68,2018-09-10 17:06:43.650331,2018-09-10 17:06:47.769567,0:00:04.119236,2,left,1,0.4672046572986801,26,f,1,1,2018_Sep_10_1658,MP_PerceptionTuring2,59.96312328796935
70,resources/videos_generated\model(vcgpdm)-dataset(walking)-mode(ELBO)-parts(2)-dyn(22)-lvm(19)_final(7).mov,resources/videos_natural\training(47).mov,False,True,left,0,69,69,69,2018-09-10 17:06:49.354658,2018-09-10 17:06:53.457892,0:00:04.103234,2,left,1,0.5008110517474051,26,f,1,1,2018_Sep_10_1658,MP_PerceptionTuring2,59.96312328796935
71,resources/videos_generated\model(vcgpdm)-dataset(walking)-mode(ELBO)-parts(1)-dyn(22)-lvm(25)_final(6).mov,resources/videos_natural\training(36).mov,False,True,left,0,70,70,70,2018-09-10 17:06:55.075985,2018-09-10 17:06:58.980208,0:00:03.904223,2,left,1,0.4173582541752694,26,f,1,1,2018_Sep_10_1658,MP_PerceptionTuring2,59.96312328796935
72,resources/videos_generated\model(vcgpdm)-dataset(walking)-mode(ELBO)-parts(1)-dyn(23)-lvm(22)_final(9)_fail.mov,resources/videos_natural\training(20).mov,True,True,left,0,71,71,71,2018-09-10 17:07:00.514296,2018-09-10 17:07:04.417519,0:00:03.903223,2,left,1,0.2837964329382885,26,f,1,1,2018_Sep_10_1658,MP_PerceptionTuring2,59.96312328796935
73,resources/videos_generated\model(tmp)-dataset(walking)-numprim(12)_final(8).mov,resources/videos_natural\training(34).mov,True,True,left,0,72,72,72,2018-09-10 17:07:05.818599,2018-09-10 17:07:09.738824,0:00:03.920225,2,right,0,0.3171874905883669,26,f,1,1,2018_Sep_10_1658,MP_PerceptionTuring2,59.96312328796935
74,resources/videos_generated\model(vcgpdm)-dataset(walking)-mode(ELBO)-parts(1)-dyn(27)-lvm(28)_final(9).mov,resources/videos_natural\training(39).mov,True,False,right,0,73,73,73,2018-09-10 17:07:11.173906,2018-09-10 17:07:15.077129,0:00:03.903223,2,left,0,0.4839096729892845,26,f,1,1,2018_Sep_10_1658,MP_PerceptionTuring2,59.96312328796935
75,resources/videos_generated\model(vcgpdm)-dataset(walking)-mode(ELBO)-parts(2)-dyn(23)-lvm(22)_final(9).mov,resources/videos_natural\training(17).mov,True,False,right,0,74,74,74,2018-09-10 17:07:16.678220,2018-09-10 17:07:20.615446,0:00:03.937226,2,right,1,0.5842231913211435,26,f,1,1,2018_Sep_10_1658,MP_PerceptionTuring2,59.96312328796935
76,resources/videos_generated\model(dmp)-dataset(walking)-npsi(80)_final(2).mov,resources/videos_natural\training(12).mov,True,False,right,0,75,75,75,2018-09-10 17:07:22.316543,2018-09-10 17:07:26.336773,0:00:04.020230,2,right,1,0.4505415042858658,26,f,1,1,2018_Sep_10_1658,MP_PerceptionTuring2,59.96312328796935
77,resources/videos_generated\model(vcgpdm)-dataset(walking)-mode(ELBO)-parts(1)-dyn(26)-lvm(22)_final(0).mov,resources/videos_natural\training(45).mov,False,False,right,0,76,76,76,2018-09-10 17:07:27.904863,2018-09-10 17:07:31.858089,0:00:03.953226,2,right,1,0.3672308591185356,26,f,1,1,2018_Sep_10_1658,MP_PerceptionTuring2,59.96312328796935
78,resources/videos_generated\model(vcgpdm)-dataset(walking)-mode(ELBO)-parts(1)-dyn(27)-lvm(26)_final(5).mov,resources/videos_natural\training(9).mov,True,False,right,0,77,77,77,2018-09-10 17:07:33.343174,2018-09-10 17:07:37.279399,0:00:03.936225,2,right,1,0.5007896686520326,26,f,1,1,2018_Sep_10_1658,MP_PerceptionTuring2,59.96312328796935
79,resources/videos_generated\model(vcgpdm)-dataset(walking)-mode(ELBO)-parts(1)-dyn(25)-lvm(22)_final(2).mov,resources/videos_natural\training(26).mov,False,True,left,0,78,78,78,2018-09-10 17:07:38.897491,2018-09-10 17:07:42.784714,0:00:03.887223,2,right,0,0.4339653895031006,26,f,1,1,2018_Sep_10_1658,MP_PerceptionTuring2,59.96312328796935
80,resources/videos_generated\model(vcgpdm)-dataset(walking)-mode(ELBO)-parts(1)-dyn(23)-lvm(26)_final(1)_hip-corrected.mov,resources/videos_natural\training(24).mov,True,True,left,0,79,79,79,2018-09-10 17:07:44.335802,2018-09-10 17:07:48.439037,0:00:04.103235,2,right,0,0.40060414771869546,26,f,1,1,2018_Sep_10_1658,MP_PerceptionTuring2,59.96312328796935
81,resources/videos_generated\model(vcgpdm)-dataset(walking)-mode(ELBO)-parts(1)-dyn(22)-lvm(23)_final(8).mov,resources/videos_natural\training(19).mov,True,False,right,0,80,80,80,2018-09-10 17:07:49.957124,2018-09-10 17:07:53.877348,0:00:03.920224,2,right,1,0.4337599913269514,26,f,1,1,2018_Sep_10_1658,MP_PerceptionTuring2,59.96312328796935
82,resources/videos_generated\model(vcgpdm)-dataset(walking)-mode(ELBO)-parts(1)-dyn(25)-lvm(22)_final(0).mov,resources/videos_natural\training(15).mov,False,False,right,0,81,81,81,2018-09-10 17:07:55.428437,2018-09-10 17:07:59.331660,0:00:03.903223,2,right,1,0.4339449099206831,26,f,1,1,2018_Sep_10_1658,MP_PerceptionTuring2,59.96312328796935
83,resources/videos_generated\model(dmp)-dataset(walking)-npsi(60)_final(4).mov,resources/videos_natural\training(39).mov,True,False,right,0,82,82,82,2018-09-10 17:08:00.882749,2018-09-10 17:08:04.786972,0:00:03.904223,2,right,1,0.8675802167226719,26,f,1,1,2018_Sep_10_1658,MP_PerceptionTuring2,59.96312328796935
84,resources/videos_generated\model(vcgpdm)-dataset(walking)-mode(ELBO)-parts(1)-dyn(24)-lvm(27)_final(4).mov,resources/videos_natural\training(43).mov,False,True,left,0,83,83,83,2018-09-10 17:08:06.772086,2018-09-10 17:08:10.675309,0:00:03.903223,2,left,1,0.4005412031146989,26,f,1,1,2018_Sep_10_1658,MP_PerceptionTuring2,59.96312328796935
85,resources/videos_generated\model(vcgpdm)-dataset(walking)-mode(ELBO)-parts(2)-dyn(25)-lvm(20)_final(7).mov,resources/videos_natural\training(8).mov,False,False,right,0,84,84,84,2018-09-10 17:08:12.193396,2018-09-10 17:08:16.129621,0:00:03.936225,2,left,0,0.5005981243111819,26,f,1,1,2018_Sep_10_1658,MP_PerceptionTuring2,59.96312328796935
86,resources/videos_generated\model(dmp)-dataset(walking)-npsi(90)_final(4).mov,resources/videos_natural\training(36).mov,False,False,right,0,85,85,85,2018-09-10 17:08:17.747713,2018-09-10 17:08:21.650937,0:00:03.903224,2,left,0,0.4838178160325697,26,f,1,1,2018_Sep_10_1658,MP_PerceptionTuring2,59.96312328796935
87,resources/videos_generated\model(vcgpdm)-dataset(walking)-mode(ELBO)-parts(2)-dyn(24)-lvm(17)_final(5).mov,resources/videos_natural\training(41).mov,False,True,left,0,86,86,86,2018-09-10 17:08:23.252028,2018-09-10 17:08:27.156252,0:00:03.904224,2,right,0,0.3672025491059685,26,f,1,1,2018_Sep_10_1658,MP_PerceptionTuring2,59.96312328796935
88,resources/videos_generated\model(vcgpdm)-dataset(walking)-mode(ELBO)-parts(1)-dyn(23)-lvm(22)_final(7).mov,resources/videos_natural\training(24).mov,True,False,right,0,87,87,87,2018-09-10 17:08:28.640336,2018-09-10 17:08:32.560561,0:00:03.920225,2,right,1,0.38390846830770897,26,f,1,1,2018_Sep_10_1658,MP_PerceptionTuring2,59.96312328796935
89,resources/videos_generated\model(vcgpdm)-dataset(walking)-mode(ELBO)-parts(1)-dyn(28)-lvm(25)_final(7).mov,resources/videos_natural\training(9).mov,True,True,left,0,88,88,88,2018-09-10 17:08:34.061646,2018-09-10 17:08:37.998872,0:00:03.937226,2,left,1,0.4840039393084226,26,f,1,1,2018_Sep_10_1658,MP_PerceptionTuring2,59.96312328796935
90,resources/videos_generated\model(vcgpdm)-dataset(walking)-mode(ELBO)-parts(2)-dyn(25)-lvm(18)_final(7).mov,resources/videos_natural\training(2).mov,False,True,left,0,89,89,89,2018-09-10 17:08:39.599963,2018-09-10 17:08:43.537188,0:00:03.937225,2,left,1,0.3846418181055924,26,f,1,1,2018_Sep_10_1658,MP_PerceptionTuring2,59.96312328796935
91,resources/videos_generated\model(vcgpdm)-dataset(walking)-mode(ELBO)-parts(2)-dyn(28)-lvm(23)_final(3).mov,resources/videos_natural\training(24).mov,False,False,right,0,90,90,90,2018-09-10 17:08:45.038274,2018-09-10 17:08:48.958499,0:00:03.920225,3,left,0,0.4170868996916397,26,f,1,1,2018_Sep_10_1658,MP_PerceptionTuring2,59.96312328796935
92,resources/videos_generated\model(tmp)-dataset(walking)-numprim(13)_final(6).mov,resources/videos_natural\training(6).mov,False,True,left,0,91,91,91,2018-09-10 17:08:50.492586,2018-09-10 17:08:54.412811,0:00:03.920225,3,left,1,0.5173100669207997,26,f,1,1,2018_Sep_10_1658,MP_PerceptionTuring2,59.96312328796935
93,resources/videos_generated\model(vcgpdm)-dataset(walking)-mode(ELBO)-parts(2)-dyn(24)-lvm(17)_final(9).mov,resources/videos_natural\training(47).mov,True,False,right,0,92,92,92,2018-09-10 17:08:56.047904,2018-09-10 17:08:59.984129,0:00:03.936225,3,right,1,0.450677633282794,26,f,1,1,2018_Sep_10_1658,MP_PerceptionTuring2,59.96312328796935
94,resources/videos_generated\model(tmp)-dataset(walking)-numprim(15)_final(0).mov,resources/videos_natural\training(42).mov,True,True,left,0,93,93,93,2018-09-10 17:09:01.552219,2018-09-10 17:09:05.455442,0:00:03.903223,3,left,1,0.4505369867301852,26,f,1,1,2018_Sep_10_1658,MP_PerceptionTuring2,59.96312328796935
95,resources/videos_generated\model(vcgpdm)-dataset(walking)-mode(ELBO)-parts(2)-dyn(26)-lvm(19)_final(5).mov,resources/videos_natural\training(45).mov,True,True,left,0,94,94,94,2018-09-10 17:09:07.023532,2018-09-10 17:09:10.960757,0:00:03.937225,3,left,1,0.4340250212326282,26,f,1,1,2018_Sep_10_1658,MP_PerceptionTuring2,59.96312328796935
96,resources/videos_generated\model(vcgpdm)-dataset(walking)-mode(ELBO)-parts(1)-dyn(25)-lvm(23)_final(7).mov,resources/videos_natural\training(24).mov,True,False,right,0,95,95,95,2018-09-10 17:09:12.511846,2018-09-10 17:09:16.465072,0:00:03.953226,3,right,1,0.3338298628468692,26,f,1,1,2018_Sep_10_1658,MP_PerceptionTuring2,59.96312328796935
97,resources/videos_generated\model(vcgpdm)-dataset(walking)-mode(ELBO)-parts(2)-dyn(28)-lvm(19)_final(7).mov,resources/videos_natural\training(47).mov,True,False,right,0,96,96,96,2018-09-10 17:09:17.916155,2018-09-10 17:09:21.819378,0:00:03.903223,3,right,1,0.3172540492359985,26,f,1,1,2018_Sep_10_1658,MP_PerceptionTuring2,59.96312328796935
98,resources/videos_generated\model(vcgpdm)-dataset(walking)-mode(ELBO)-parts(1)-dyn(22)-lvm(23)_final(4)_fail.mov,resources/videos_natural\training(6).mov,False,False,right,0,97,97,97,2018-09-10 17:09:23.254460,2018-09-10 17:09:27.190685,0:00:03.936225,3,right,1,0.30063245773089875,26,f,1,1,2018_Sep_10_1658,MP_PerceptionTuring2,59.96312328796935
99,resources/videos_generated\model(vcgpdm)-dataset(walking)-mode(ELBO)-parts(1)-dyn(28)-lvm(27)_final(9).mov,resources/videos_natural\training(5).mov,False,False,right,0,98,98,98,2018-09-10 17:09:28.608766,2018-09-10 17:09:32.545992,0:00:03.937226,3,right,1,0.33389310862003185,26,f,1,1,2018_Sep_10_1658,MP_PerceptionTuring2,59.96312328796935
100,resources/videos_generated\model(vcgpdm)-dataset(walking)-mode(ELBO)-parts(1)-dyn(25)-lvm(28)_final(6).mov,resources/videos_natural\training(46).mov,False,False,right,0,99,99,99,2018-09-10 17:09:33.997075,2018-09-10 17:09:37.934300,0:00:03.937225,3,right,1,0.3172064643194972,26,f,1,1,2018_Sep_10_1658,MP_PerceptionTuring2,59.96312328796935
101,resources/videos_generated\model(tmp)-dataset(walking)-numprim(14)_final(8).mov,resources/videos_natural\training(26).mov,False,True,left,0,100,100,100,2018-09-10 17:10:44.057082,2018-09-10 17:10:47.961305,0:00:03.904223,3,left,1,0.36725555508655816,26,f,1,1,2018_Sep_10_1658,MP_PerceptionTuring2,59.96312328796935
102,resources/videos_generated\model(vcgpdm)-dataset(walking)-mode(ELBO)-parts(1)-dyn(25)-lvm(24)_final(7).mov,resources/videos_natural\training(15).mov,False,True,left,0,101,101,101,2018-09-10 17:10:49.445390,2018-09-10 17:10:53.382615,0:00:03.937225,3,left,1,0.4839702082290387,26,f,1,1,2018_Sep_10_1658,MP_PerceptionTuring2,59.96312328796935
103,resources/videos_generated\model(dmp)-dataset(walking)-npsi(100)_final(4).mov,resources/videos_natural\training(12).mov,True,True,left,0,102,102,102,2018-09-10 17:10:54.983707,2018-09-10 17:10:58.869929,0:00:03.886222,3,left,1,0.8008797185866571,26,f,1,1,2018_Sep_10_1658,MP_PerceptionTuring2,59.96312328796935
104,resources/videos_generated\model(vcgpdm)-dataset(walking)-mode(ELBO)-parts(1)-dyn(23)-lvm(24)_final(9).mov,resources/videos_natural\training(44).mov,False,False,right,0,103,103,103,2018-09-10 17:11:00.789039,2018-09-10 17:11:04.692262,0:00:03.903223,3,right,1,0.41726037381249625,26,f,1,1,2018_Sep_10_1658,MP_PerceptionTuring2,59.96312328796935
105,resources/videos_generated\model(vcgpdm)-dataset(walking)-mode(ELBO)-parts(2)-dyn(22)-lvm(17)_final(5).mov,resources/videos_natural\training(15).mov,False,False,right,0,104,104,104,2018-09-10 17:11:06.226350,2018-09-10 17:11:10.130573,0:00:03.904223,3,right,1,0.517315487986707,26,f,1,1,2018_Sep_10_1658,MP_PerceptionTuring2,59.96312328796935
106,resources/videos_generated\model(vcgpdm)-dataset(walking)-mode(ELBO)-parts(2)-dyn(23)-lvm(20)_final(9).mov,resources/videos_natural\training(36).mov,True,False,right,0,105,105,105,2018-09-10 17:11:11.764667,2018-09-10 17:11:15.667890,0:00:03.903223,3,right,1,0.4506201097465237,26,f,1,1,2018_Sep_10_1658,MP_PerceptionTuring2,59.96312328796935
107,resources/videos_generated\model(vcgpdm)-dataset(walking)-mode(ELBO)-parts(2)-dyn(28)-lvm(19)_final(1).mov,resources/videos_natural\training(47).mov,False,False,right,0,106,106,106,2018-09-10 17:11:17.235980,2018-09-10 17:11:21.173205,0:00:03.937225,3,left,0,0.7007393732046694,26,f,1,1,2018_Sep_10_1658,MP_PerceptionTuring2,59.96312328796935
108,resources/videos_generated\model(vcgpdm)-dataset(walking)-mode(ELBO)-parts(1)-dyn(23)-lvm(24)_final(1).mov,resources/videos_natural\training(12).mov,True,False,right,0,107,107,107,2018-09-10 17:11:22.991309,2018-09-10 17:11:26.911533,0:00:03.920224,3,right,1,0.9343418524385924,26,f,1,1,2018_Sep_10_1658,MP_PerceptionTuring2,59.96312328796935
109,resources/videos_generated\model(vcgpdm)-dataset(walking)-mode(ELBO)-parts(1)-dyn(24)-lvm(27)_final(6).mov,resources/videos_natural\training(11).mov,True,False,right,0,108,108,108,2018-09-10 17:11:28.962650,2018-09-10 17:11:32.916876,0:00:03.954226,3,right,1,0.4505210247016294,26,f,1,1,2018_Sep_10_1658,MP_PerceptionTuring2,59.96312328796935
110,resources/videos_generated\model(vcgpdm)-dataset(walking)-mode(ELBO)-parts(2)-dyn(23)-lvm(22)_final(5).mov,resources/videos_natural\training(44).mov,True,True,left,0,109,109,109,2018-09-10 17:11:34.483966,2018-09-10 17:11:38.421191,0:00:03.937225,3,left,1,0.35054722652239434,26,f,1,1,2018_Sep_10_1658,MP_PerceptionTuring2,59.96312328796935
111,resources/videos_generated\model(vcgpdm)-dataset(walking)-mode(ELBO)-parts(2)-dyn(25)-lvm(22)_final(7).mov,resources/videos_natural\training(14).mov,True,True,left,0,110,110,110,2018-09-10 17:11:39.889275,2018-09-10 17:11:43.825500,0:00:03.936225,3,right,0,1.117919936875296,26,f,1,1,2018_Sep_10_1658,MP_PerceptionTuring2,59.96312328796935
112,resources/videos_generated\model(vcgpdm)-dataset(walking)-mode(ELBO)-parts(1)-dyn(25)-lvm(28)_final(0).mov,resources/videos_natural\training(19).mov,True,True,left,0,111,111,111,2018-09-10 17:11:46.060628,2018-09-10 17:11:49.964852,0:00:03.904224,3,left,1,0.3838783512728696,26,f,1,1,2018_Sep_10_1658,MP_PerceptionTuring2,59.96312328796935
113,resources/videos_generated\model(vcgpdm)-dataset(walking)-mode(ELBO)-parts(2)-dyn(26)-lvm(23)_final(3).mov,resources/videos_natural\training(28).mov,True,True,left,0,112,112,112,2018-09-10 17:11:51.465937,2018-09-10 17:11:55.369161,0:00:03.903224,3,left,1,0.3338858805309428,26,f,1,1,2018_Sep_10_1658,MP_PerceptionTuring2,59.96312328796935
114,resources/videos_generated\model(vcgpdm)-dataset(walking)-mode(ELBO)-parts(1)-dyn(25)-lvm(24)_final(9).mov,resources/videos_natural\training(40).mov,True,True,left,0,113,113,113,2018-09-10 17:11:56.820244,2018-09-10 17:12:00.723467,0:00:03.903223,3,left,1,0.36751034520148096,26,f,1,1,2018_Sep_10_1658,MP_PerceptionTuring2,59.96312328796935
115,resources/videos_generated\model(vcgpdm)-dataset(walking)-mode(ELBO)-parts(2)-dyn(22)-lvm(17)_final(9).mov,resources/videos_natural\training(24).mov,False,False,right,0,114,114,114,2018-09-10 17:12:02.208552,2018-09-10 17:12:06.144777,0:00:03.936225,3,left,0,0.383880760635293,26,f,1,1,2018_Sep_10_1658,MP_PerceptionTuring2,59.96312328796935
116,resources/videos_generated\model(tmp)-dataset(walking)-numprim(11)_final(6).mov,resources/videos_natural\training(2).mov,False,False,right,0,115,115,115,2018-09-10 17:12:07.646863,2018-09-10 17:12:11.550086,0:00:03.903223,3,right,1,0.6841060360566189,26,f,1,1,2018_Sep_10_1658,MP_PerceptionTuring2,59.96312328796935
117,resources/videos_generated\model(vcgpdm)-dataset(walking)-mode(ELBO)-parts(2)-dyn(27)-lvm(20)_final(7).mov,resources/videos_natural\training(23).mov,False,True,left,0,116,116,116,2018-09-10 17:12:13.351189,2018-09-10 17:12:17.238411,0:00:03.887222,3,right,0,1.6182542359611034,26,f,1,1,2018_Sep_10_1658,MP_PerceptionTuring2,59.96312328796935
118,resources/videos_generated\model(vcgpdm)-dataset(walking)-mode(ELBO)-parts(2)-dyn(23)-lvm(22)_final(1).mov,resources/videos_natural\training(48).mov,False,False,right,0,117,117,117,2018-09-10 17:12:19.973568,2018-09-10 17:12:24.093804,0:00:04.120236,3,right,1,0.33406537805967673,26,f,1,1,2018_Sep_10_1658,MP_PerceptionTuring2,59.96312328796935
119,resources/videos_generated\model(tmp)-dataset(walking)-numprim(12)_final(2).mov,resources/videos_natural\training(30).mov,False,False,right,0,118,118,118,2018-09-10 17:12:25.544887,2018-09-10 17:12:29.482112,0:00:03.937225,3,right,1,0.45056710376593395,26,f,1,1,2018_Sep_10_1658,MP_PerceptionTuring2,59.96312328796935
120,resources/videos_generated\model(vcgpdm)-dataset(walking)-mode(ELBO)-parts(2)-dyn(24)-lvm(19)_final(1).mov,resources/videos_natural\training(26).mov,True,True,left,0,119,119,119,2018-09-10 17:12:31.050201,2018-09-10 17:12:35.003428,0:00:03.953227,3,left,1,0.3672591691320122,26,f,1,1,2018_Sep_10_1658,MP_PerceptionTuring2,59.96312328796935
121,resources/videos_generated\model(vcgpdm)-dataset(walking)-mode(ELBO)-parts(2)-dyn(22)-lvm(23)_final(7).mov,resources/videos_natural\training(36).mov,False,True,left,0,120,120,120,2018-09-10 17:12:36.488513,2018-09-10 17:12:40.407737,0:00:03.919224,3,left,1,0.3670817797965356,26,f,1,1,2018_Sep_10_1658,MP_PerceptionTuring2,59.96312328796935
122,resources/videos_generated\model(vcgpdm)-dataset(walking)-mode(ELBO)-parts(1)-dyn(24)-lvm(25)_final(0).mov,resources/videos_natural\training(41).mov,False,False,right,0,121,121,121,2018-09-10 17:12:41.892822,2018-09-10 17:12:45.796045,0:00:03.903223,3,right,1,0.3671748414335525,26,f,1,1,2018_Sep_10_1658,MP_PerceptionTuring2,59.96312328796935
123,resources/videos_generated\model(dmp)-dataset(walking)-npsi(70)_final(8).mov,resources/videos_natural\training(21).mov,False,True,left,0,122,122,122,2018-09-10 17:12:47.280130,2018-09-10 17:12:51.200354,0:00:03.920224,3,right,0,0.3168652383164954,26,f,1,1,2018_Sep_10_1658,MP_PerceptionTuring2,59.96312328796935
124,resources/videos_generated\model(vcgpdm)-dataset(walking)-mode(ELBO)-parts(2)-dyn(28)-lvm(17)_final(3).mov,resources/videos_natural\training(45).mov,False,True,left,0,123,123,123,2018-09-10 17:12:52.636436,2018-09-10 17:12:56.571661,0:00:03.935225,3,right,0,1.1179027701646191,26,f,1,1,2018_Sep_10_1658,MP_PerceptionTuring2,59.96312328796935
125,resources/videos_generated\model(vcgpdm)-dataset(walking)-mode(ELBO)-parts(1)-dyn(22)-lvm(27)_final(6)_fail.mov,resources/videos_natural\training(13).mov,True,False,right,0,124,124,124,2018-09-10 17:12:58.806789,2018-09-10 17:13:02.727013,0:00:03.920224,3,right,1,0.4172766370111276,26,f,1,1,2018_Sep_10_1658,MP_PerceptionTuring2,59.96312328796935
126,resources/videos_generated\model(vcgpdm)-dataset(walking)-mode(ELBO)-parts(1)-dyn(28)-lvm(23)_final(5).mov,resources/videos_natural\training(16).mov,False,False,right,0,125,125,125,2018-09-10 17:13:04.262101,2018-09-10 17:13:08.148323,0:00:03.886222,3,right,1,0.4173049470246042,26,f,1,1,2018_Sep_10_1658,MP_PerceptionTuring2,59.96312328796935
127,resources/videos_generated\model(vcgpdm)-dataset(walking)-mode(ELBO)-parts(2)-dyn(28)-lvm(23)_final(7).mov,resources/videos_natural\training(25).mov,False,False,right,0,126,126,126,2018-09-10 17:13:09.683411,2018-09-10 17:13:13.586634,0:00:03.903223,3,right,1,0.450684560200898,26,f,1,1,2018_Sep_10_1658,MP_PerceptionTuring2,59.96312328796935
128,resources/videos_generated\model(dmp)-dataset(walking)-npsi(80)_final(0).mov,resources/videos_natural\training(38).mov,True,False,right,0,127,127,127,2018-09-10 17:13:15.154724,2018-09-10 17:13:19.074948,0:00:03.920224,3,right,1,0.6008417711227594,26,f,1,1,2018_Sep_10_1658,MP_PerceptionTuring2,59.96312328796935
129,resources/videos_generated\model(vcgpdm)-dataset(walking)-mode(ELBO)-parts(1)-dyn(24)-lvm(27)_final(8).mov,resources/videos_natural\training(40).mov,False,False,right,0,128,128,128,2018-09-10 17:13:20.793047,2018-09-10 17:13:24.729272,0:00:03.936225,3,right,1,0.3171061745952102,26,f,1,1,2018_Sep_10_1658,MP_PerceptionTuring2,59.96312328796935
130,resources/videos_generated\model(vcgpdm)-dataset(walking)-mode(ELBO)-parts(1)-dyn(25)-lvm(26)_final(4)_fail.mov,resources/videos_natural\training(7).mov,False,True,left,0,129,129,129,2018-09-10 17:13:26.164354,2018-09-10 17:13:30.100579,0:00:03.936225,3,left,1,0.3672124877275565,26,f,1,1,2018_Sep_10_1658,MP_PerceptionTuring2,59.96312328796935
131,resources/videos_generated\model(dmp)-dataset(walking)-npsi(70)_final(0).mov,resources/videos_natural\training(10).mov,True,False,right,0,130,130,130,2018-09-10 17:13:31.585664,2018-09-10 17:13:35.488887,0:00:03.903223,3,right,1,0.4341611502295564,26,f,1,1,2018_Sep_10_1658,MP_PerceptionTuring2,59.96312328796935
132,resources/videos_generated\model(vcgpdm)-dataset(walking)-mode(ELBO)-parts(1)-dyn(28)-lvm(27)_final(7).mov,resources/videos_natural\training(38).mov,False,False,right,0,131,131,131,2018-09-10 17:13:37.039976,2018-09-10 17:13:40.960200,0:00:03.920224,3,right,1,0.4672483269987424,26,f,1,1,2018_Sep_10_1658,MP_PerceptionTuring2,59.96312328796935
133,resources/videos_generated\model(vcgpdm)-dataset(walking)-mode(ELBO)-parts(2)-dyn(23)-lvm(20)_final(3).mov,resources/videos_natural\training(43).mov,True,True,left,0,132,132,132,2018-09-10 17:13:42.545291,2018-09-10 17:13:46.465515,0:00:03.920224,3,left,1,0.3671152097049344,26,f,1,1,2018_Sep_10_1658,MP_PerceptionTuring2,59.96312328796935
134,resources/videos_generated\model(vcgpdm)-dataset(walking)-mode(ELBO)-parts(1)-dyn(25)-lvm(24)_final(1).mov,resources/videos_natural\training(3).mov,True,False,right,0,133,133,133,2018-09-10 17:13:47.949600,2018-09-10 17:13:51.886825,0:00:03.937225,3,right,1,0.3671326775856869,26,f,1,1,2018_Sep_10_1658,MP_PerceptionTuring2,59.96312328796935
135,resources/videos_generated\model(dmp)-dataset(walking)-npsi(50)_final(6).mov,resources/videos_natural\training(9).mov,True,True,left,0,134,134,134,2018-09-10 17:13:53.370910,2018-09-10 17:13:57.291134,0:00:03.920224,3,left,1,1.6350327372174434,26,f,1,1,2018_Sep_10_1658,MP_PerceptionTuring2,59.96312328796935
136,resources/videos_generated\model(vcgpdm)-dataset(walking)-mode(ELBO)-parts(1)-dyn(23)-lvm(27)_final(2).mov,resources/videos_natural\training(31).mov,True,True,left,0,135,135,135,2018-09-10 17:14:00.043292,2018-09-10 17:14:03.946515,0:00:03.903223,4,left,1,0.7339738222735832,26,f,1,1,2018_Sep_10_1658,MP_PerceptionTuring2,59.96312328796935
137,resources/videos_generated\model(vcgpdm)-dataset(walking)-mode(ELBO)-parts(1)-dyn(23)-lvm(24)_final(7).mov,resources/videos_natural\training(28).mov,True,True,left,0,136,136,136,2018-09-10 17:14:05.798621,2018-09-10 17:14:09.701844,0:00:03.903223,4,left,1,0.31717514260435564,26,f,1,1,2018_Sep_10_1658,MP_PerceptionTuring2,59.96312328796935
138,resources/videos_generated\model(vcgpdm)-dataset(walking)-mode(ELBO)-parts(1)-dyn(27)-lvm(24)_final(1).mov,resources/videos_natural\training(27).mov,False,False,right,0,137,137,137,2018-09-10 17:14:11.135926,2018-09-10 17:14:15.056150,0:00:03.920224,4,right,1,0.36751034520148096,26,f,1,1,2018_Sep_10_1658,MP_PerceptionTuring2,59.96312328796935
139,resources/videos_generated\model(vcgpdm)-dataset(walking)-mode(ELBO)-parts(1)-dyn(27)-lvm(26)_final(1).mov,resources/videos_natural\training(37).mov,True,False,right,0,138,138,138,2018-09-10 17:14:16.541235,2018-09-10 17:14:20.444458,0:00:03.903223,4,right,1,0.3505198200200539,26,f,1,1,2018_Sep_10_1658,MP_PerceptionTuring2,59.96312328796935
140,resources/videos_generated\model(vcgpdm)-dataset(walking)-mode(ELBO)-parts(1)-dyn(24)-lvm(23)_final(8).mov,resources/videos_natural\training(16).mov,False,False,right,0,139,139,139,2018-09-10 17:14:21.912542,2018-09-10 17:14:25.848768,0:00:03.936226,4,right,1,0.5006978116962273,26,f,1,1,2018_Sep_10_1658,MP_PerceptionTuring2,59.96312328796935
141,resources/videos_generated\model(vcgpdm)-dataset(walking)-mode(ELBO)-parts(2)-dyn(22)-lvm(19)_final(1).mov,resources/videos_natural\training(45).mov,False,True,left,0,140,140,140,2018-09-10 17:14:27.466860,2018-09-10 17:14:31.387084,0:00:03.920224,4,right,0,0.5340717026365382,26,f,1,1,2018_Sep_10_1658,MP_PerceptionTuring2,59.96312328796935
142,resources/videos_generated\model(vcgpdm)-dataset(walking)-mode(ELBO)-parts(1)-dyn(26)-lvm(27)_final(1).mov,resources/videos_natural\training(31).mov,False,True,left,0,141,141,141,2018-09-10 17:14:33.038179,2018-09-10 17:14:36.942402,0:00:03.904223,4,right,0,0.6009637451134039,26,f,1,1,2018_Sep_10_1658,MP_PerceptionTuring2,59.96312328796935
143,resources/videos_generated\model(dmp)-dataset(walking)-npsi(60)_final(0).mov,resources/videos_natural\training(1).mov,True,True,left,0,142,142,142,2018-09-10 17:14:38.660500,2018-09-10 17:14:42.579725,0:00:03.919225,4,right,0,0.4338699185027508,26,f,1,1,2018_Sep_10_1658,MP_PerceptionTuring2,59.96312328796935
144,resources/videos_generated\model(vcgpdm)-dataset(walking)-mode(ELBO)-parts(1)-dyn(28)-lvm(25)_final(5).mov,resources/videos_natural\training(44).mov,True,False,right,0,143,143,143,2018-09-10 17:14:44.131813,2018-09-10 17:14:48.068038,0:00:03.936225,4,right,1,0.2838780501033398,26,f,1,1,2018_Sep_10_1658,MP_PerceptionTuring2,59.96312328796935
145,resources/videos_generated\model(tmp)-dataset(walking)-numprim(11)_final(8).mov,resources/videos_natural\training(41).mov,False,True,left,0,144,144,144,2018-09-10 17:14:49.469119,2018-09-10 17:14:53.389343,0:00:03.920224,4,right,0,0.4340180943145242,26,f,1,1,2018_Sep_10_1658,MP_PerceptionTuring2,59.96312328796935
146,resources/videos_generated\model(vcgpdm)-dataset(walking)-mode(ELBO)-parts(2)-dyn(25)-lvm(20)_final(5).mov,resources/videos_natural\training(8).mov,True,True,left,0,145,145,145,2018-09-10 17:14:54.941432,2018-09-10 17:14:58.844655,0:00:03.903223,4,left,1,0.2670579873383758,26,f,1,1,2018_Sep_10_1658,MP_PerceptionTuring2,59.96312328796935
147,resources/videos_generated\model(vcgpdm)-dataset(walking)-mode(ELBO)-parts(1)-dyn(27)-lvm(24)_final(9).mov,resources/videos_natural\training(28).mov,True,True,left,0,146,146,146,2018-09-10 17:15:00.228734,2018-09-10 17:15:04.148958,0:00:03.920224,4,left,1,1.2680512471461045,26,f,1,1,2018_Sep_10_1658,MP_PerceptionTuring2,59.96312328796935
148,resources/videos_generated\model(vcgpdm)-dataset(walking)-mode(ELBO)-parts(1)-dyn(26)-lvm(23)_final(9).mov,resources/videos_natural\training(34).mov,False,True,left,0,147,147,147,2018-09-10 17:15:06.534095,2018-09-10 17:15:10.454319,0:00:03.920224,4,left,1,0.5507053409555738,26,f,1,1,2018_Sep_10_1658,MP_PerceptionTuring2,59.96312328796935
149,resources/videos_generated\model(vcgpdm)-dataset(walking)-mode(ELBO)-parts(2)-dyn(24)-lvm(17)_final(1).mov,resources/videos_natural\training(19).mov,True,True,left,0,148,148,148,2018-09-10 17:15:12.122414,2018-09-10 17:15:16.042638,0:00:03.920224,4,left,1,0.30051831416949426,26,f,1,1,2018_Sep_10_1658,MP_PerceptionTuring2,59.96312328796935
150,resources/videos_generated\model(vcgpdm)-dataset(walking)-mode(ELBO)-parts(1)-dyn(28)-lvm(25)_final(9).mov,resources/videos_natural\training(3).mov,True,False,right,0,149,149,149,2018-09-10 17:15:17.460720,2018-09-10 17:15:21.379944,0:00:03.919224,4,left,0,0.4507213029837658,26,f,1,1,2018_Sep_10_1658,MP_PerceptionTuring2,59.96312328796935
151,resources/videos_generated\model(vcgpdm)-dataset(walking)-mode(ELBO)-parts(2)-dyn(22)-lvm(23)_final(1).mov,resources/videos_natural\training(48).mov,False,True,left,0,150,150,150,2018-09-10 17:16:24.651563,2018-09-10 17:16:28.571787,0:00:03.920224,4,left,1,0.5506731157274771,26,f,1,1,2018_Sep_10_1658,MP_PerceptionTuring2,59.96312328796935
152,resources/videos_generated\model(vcgpdm)-dataset(walking)-mode(ELBO)-parts(2)-dyn(24)-lvm(17)_final(3).mov,resources/videos_natural\training(29).mov,False,False,right,0,151,151,151,2018-09-10 17:16:30.239882,2018-09-10 17:16:34.143106,0:00:03.903224,4,left,0,0.4339015413897869,26,f,1,1,2018_Sep_10_1658,MP_PerceptionTuring2,59.96312328796935
153,resources/videos_generated\model(tmp)-dataset(walking)-numprim(12)_final(0).mov,resources/videos_natural\training(22).mov,True,True,left,0,152,152,152,2018-09-10 17:16:35.694194,2018-09-10 17:16:39.598418,0:00:03.904224,4,right,0,0.3839578602446636,26,f,1,1,2018_Sep_10_1658,MP_PerceptionTuring2,59.96312328796935
154,resources/videos_generated\model(vcgpdm)-dataset(walking)-mode(ELBO)-parts(2)-dyn(26)-lvm(17)_final(3).mov,resources/videos_natural\training(2).mov,True,True,left,0,153,153,153,2018-09-10 17:16:41.099503,2018-09-10 17:16:45.002727,0:00:03.903224,4,right,0,0.3338822664873078,26,f,1,1,2018_Sep_10_1658,MP_PerceptionTuring2,59.96312328796935
155,resources/videos_generated\model(vcgpdm)-dataset(walking)-mode(ELBO)-parts(1)-dyn(28)-lvm(25)_final(3).mov,resources/videos_natural\training(33).mov,True,True,left,0,154,154,154,2018-09-10 17:16:46.453810,2018-09-10 17:16:50.374034,0:00:03.920224,4,right,0,0.2837398129131543,26,f,1,1,2018_Sep_10_1658,MP_PerceptionTuring2,59.96312328796935
156,resources/videos_generated\model(vcgpdm)-dataset(walking)-mode(ELBO)-parts(1)-dyn(24)-lvm(23)_final(2).mov,resources/videos_natural\training(33).mov,False,False,right,0,155,155,155,2018-09-10 17:16:51.775114,2018-09-10 17:16:55.695338,0:00:03.920224,4,right,1,0.3172016455946505,26,f,1,1,2018_Sep_10_1658,MP_PerceptionTuring2,59.96312328796935
157,resources/videos_generated\model(tmp)-dataset(walking)-numprim(15)_final(4).mov,resources/videos_natural\training(35).mov,True,True,left,0,156,156,156,2018-09-10 17:16:57.129420,2018-09-10 17:17:01.016643,0:00:03.887223,4,right,0,0.4172492305106061,26,f,1,1,2018_Sep_10_1658,MP_PerceptionTuring2,59.96312328796935
158,resources/videos_generated\model(vcgpdm)-dataset(walking)-mode(ELBO)-parts(2)-dyn(27)-lvm(20)_final(3).mov,resources/videos_natural\training(30).mov,True,True,left,0,157,157,157,2018-09-10 17:17:02.550730,2018-09-10 17:17:06.487956,0:00:03.937226,4,left,1,0.3171576747245126,26,f,1,1,2018_Sep_10_1658,MP_PerceptionTuring2,59.96312328796935
159,resources/videos_generated\model(vcgpdm)-dataset(walking)-mode(ELBO)-parts(1)-dyn(22)-lvm(23)_final(0).mov,resources/videos_natural\training(44).mov,True,False,right,0,158,158,158,2018-09-10 17:17:07.922038,2018-09-10 17:17:11.876264,0:00:03.954226,4,left,0,0.3171203296005842,26,f,1,1,2018_Sep_10_1658,MP_PerceptionTuring2,59.96312328796935
160,resources/videos_generated\model(tmp)-dataset(walking)-numprim(13)_final(4).mov,resources/videos_natural\training(40).mov,False,True,left,0,159,159,159,2018-09-10 17:17:13.310346,2018-09-10 17:17:17.230570,0:00:03.920224,4,left,1,0.450657153699467,26,f,1,1,2018_Sep_10_1658,MP_PerceptionTuring2,59.96312328796935
161,resources/videos_generated\model(vcgpdm)-dataset(walking)-mode(ELBO)-parts(1)-dyn(26)-lvm(27)_final(7).mov,resources/videos_natural\training(16).mov,True,True,left,0,160,160,160,2018-09-10 17:17:18.798660,2018-09-10 17:17:22.718884,0:00:03.920224,4,left,1,0.4004192291240543,26,f,1,1,2018_Sep_10_1658,MP_PerceptionTuring2,59.96312328796935
162,resources/videos_generated\model(vcgpdm)-dataset(walking)-mode(ELBO)-parts(1)-dyn(23)-lvm(28)_final(0).mov,resources/videos_natural\training(4).mov,False,True,left,0,161,161,161,2018-09-10 17:17:24.236971,2018-09-10 17:17:28.173196,0:00:03.936225,4,right,0,0.3841084454188604,26,f,1,1,2018_Sep_10_1658,MP_PerceptionTuring2,59.96312328796935
163,resources/videos_generated\model(vcgpdm)-dataset(walking)-mode(ELBO)-parts(2)-dyn(24)-lvm(23)_final(7).mov,resources/videos_natural\training(13).mov,False,False,right,0,162,162,162,2018-09-10 17:17:29.674282,2018-09-10 17:17:33.577505,0:00:03.903223,4,right,1,0.6172814557367019,26,f,1,1,2018_Sep_10_1658,MP_PerceptionTuring2,59.96312328796935
164,resources/videos_generated\model(vcgpdm)-dataset(walking)-mode(ELBO)-parts(1)-dyn(27)-lvm(26)_final(7).mov,resources/videos_natural\training(42).mov,False,True,left,0,163,163,163,2018-09-10 17:17:35.312604,2018-09-10 17:17:39.232828,0:00:03.920224,4,left,1,0.5505984254814393,26,f,1,1,2018_Sep_10_1658,MP_PerceptionTuring2,59.96312328796935
165,resources/videos_generated\model(vcgpdm)-dataset(walking)-mode(ELBO)-parts(2)-dyn(23)-lvm(20)_final(5).mov,resources/videos_natural\training(20).mov,True,True,left,0,164,164,164,2018-09-10 17:17:40.900924,2018-09-10 17:17:44.838149,0:00:03.937225,4,left,1,0.3838485354081058,26,f,1,1,2018_Sep_10_1658,MP_PerceptionTuring2,59.96312328796935
166,resources/videos_generated\model(vcgpdm)-dataset(walking)-mode(ELBO)-parts(2)-dyn(27)-lvm(18)_final(5).mov,resources/videos_natural\training(42).mov,False,True,left,0,165,165,165,2018-09-10 17:17:46.339235,2018-09-10 17:17:50.259459,0:00:03.920224,4,left,1,0.2837741463326893,26,f,1,1,2018_Sep_10_1658,MP_PerceptionTuring2,59.96312328796935
167,resources/videos_generated\model(vcgpdm)-dataset(walking)-mode(ELBO)-parts(2)-dyn(23)-lvm(18)_final(9).mov,resources/videos_natural\training(21).mov,True,True,left,0,166,166,166,2018-09-10 17:17:51.660539,2018-09-10 17:17:55.596764,0:00:03.936225,4,left,1,0.7675497985164839,26,f,1,1,2018_Sep_10_1658,MP_PerceptionTuring2,59.96312328796935
168,resources/videos_generated\model(vcgpdm)-dataset(walking)-mode(ELBO)-parts(2)-dyn(27)-lvm(22)_final(3).mov,resources/videos_natural\training(41).mov,False,True,left,0,167,167,167,2018-09-10 17:17:57.481872,2018-09-10 17:18:01.435098,0:00:03.953226,4,left,1,0.36732211373418977,26,f,1,1,2018_Sep_10_1658,MP_PerceptionTuring2,59.96312328796935
169,resources/videos_generated\model(vcgpdm)-dataset(walking)-mode(ELBO)-parts(1)-dyn(25)-lvm(22)_final(4).mov,resources/videos_natural\training(35).mov,False,False,right,0,168,168,168,2018-09-10 17:18:02.920183,2018-09-10 17:18:06.840408,0:00:03.920225,4,right,1,0.4506812473273385,26,f,1,1,2018_Sep_10_1658,MP_PerceptionTuring2,59.96312328796935
170,resources/videos_generated\model(vcgpdm)-dataset(walking)-mode(ELBO)-parts(2)-dyn(28)-lvm(21)_final(7).mov,resources/videos_natural\training(39).mov,True,True,left,0,169,169,169,2018-09-10 17:18:08.407497,2018-09-10 17:18:12.327721,0:00:03.920224,4,right,0,0.3005957149480309,26,f,1,1,2018_Sep_10_1658,MP_PerceptionTuring2,59.96312328796935
171,resources/videos_generated\model(dmp)-dataset(walking)-npsi(50)_final(2).mov,resources/videos_natural\training(26).mov,True,True,left,0,170,170,170,2018-09-10 17:18:13.745803,2018-09-10 17:18:17.666027,0:00:03.920224,4,right,0,0.31728868382560904,26,f,1,1,2018_Sep_10_1658,MP_PerceptionTuring2,59.96312328796935
172,resources/videos_generated\model(vcgpdm)-dataset(walking)-mode(ELBO)-parts(2)-dyn(27)-lvm(20)_final(9).mov,resources/videos_natural\training(26).mov,False,False,right,0,171,171,171,2018-09-10 17:18:19.100109,2018-09-10 17:18:23.037334,0:00:03.937225,4,left,0,0.3673154879861613,26,f,1,1,2018_Sep_10_1658,MP_PerceptionTuring2,59.96312328796935
173,resources/videos_generated\model(vcgpdm)-dataset(walking)-mode(ELBO)-parts(1)-dyn(24)-lvm(27)_final(2).mov,resources/videos_natural\training(16).mov,False,False,right,0,172,172,172,2018-09-10 17:18:24.521419,2018-09-10 17:18:28.458644,0:00:03.937225,4,right,1,0.3171986338911665,26,f,1,1,2018_Sep_10_1658,MP_PerceptionTuring2,59.96312328796935
174,resources/videos_generated\model(vcgpdm)-dataset(walking)-mode(ELBO)-parts(2)-dyn(24)-lvm(17)_final(7).mov,resources/videos_natural\training(29).mov,True,True,left,0,173,173,173,2018-09-10 17:18:29.892726,2018-09-10 17:18:33.812950,0:00:03.920224,4,left,1,1.201249856943832,26,f,1,1,2018_Sep_10_1658,MP_PerceptionTuring2,59.96312328796935
175,resources/videos_generated\model(vcgpdm)-dataset(walking)-mode(ELBO)-parts(2)-dyn(24)-lvm(21)_final(7).mov,resources/videos_natural\training(3).mov,False,True,left,0,174,174,174,2018-09-10 17:18:36.132083,2018-09-10 17:18:40.102310,0:00:03.970227,4,left,1,0.3005038579922257,26,f,1,1,2018_Sep_10_1658,MP_PerceptionTuring2,59.96312328796935
176,resources/videos_generated\model(dmp)-dataset(walking)-npsi(100)_final(6).mov,resources/videos_natural\training(9).mov,False,True,left,0,175,175,175,2018-09-10 17:18:41.520391,2018-09-10 17:18:45.423614,0:00:03.903223,4,right,0,0.3338316698691415,26,f,1,1,2018_Sep_10_1658,MP_PerceptionTuring2,59.96312328796935
177,resources/videos_generated\model(dmp)-dataset(walking)-npsi(50)_final(0).mov,resources/videos_natural\training(30).mov,True,False,right,0,176,176,176,2018-09-10 17:18:46.874697,2018-09-10 17:18:50.810923,0:00:03.936226,4,right,1,0.3172302567782026,26,f,1,1,2018_Sep_10_1658,MP_PerceptionTuring2,59.96312328796935
178,resources/videos_generated\model(vcgpdm)-dataset(walking)-mode(ELBO)-parts(1)-dyn(24)-lvm(25)_final(6).mov,resources/videos_natural\training(46).mov,False,True,left,0,177,177,177,2018-09-10 17:18:52.246005,2018-09-10 17:18:56.216232,0:00:03.970227,4,right,0,0.33384582487542497,26,f,1,1,2018_Sep_10_1658,MP_PerceptionTuring2,59.96312328796935
179,resources/videos_generated\model(vcgpdm)-dataset(walking)-mode(ELBO)-parts(2)-dyn(26)-lvm(17)_final(5).mov,resources/videos_natural\training(47).mov,False,True,left,0,178,178,178,2018-09-10 17:18:57.667315,2018-09-10 17:19:01.603540,0:00:03.936225,4,left,1,0.4673329558663682,26,f,1,1,2018_Sep_10_1658,MP_PerceptionTuring2,59.96312328796935
180,resources/videos_generated\model(vcgpdm)-dataset(walking)-mode(ELBO)-parts(1)-dyn(27)-lvm(24)_final(3).mov,resources/videos_natural\training(6).mov,False,False,right,0,179,179,179,2018-09-10 17:19:03.188630,2018-09-10 17:19:07.091854,0:00:03.903224,4,right,1,0.4339759304657491,26,f,1,1,2018_Sep_10_1658,MP_PerceptionTuring2,59.96312328796935
181,resources/videos_generated\model(vcgpdm)-dataset(walking)-mode(ELBO)-parts(2)-dyn(26)-lvm(23)_final(7).mov,resources/videos_natural\training(18).mov,False,False,right,0,180,180,180,2018-09-10 17:19:08.642942,2018-09-10 17:19:12.547166,0:00:03.904224,5,right,1,0.4172916955285473,26,f,1,1,2018_Sep_10_1658,MP_PerceptionTuring2,59.96312328796935
182,resources/videos_generated\model(vcgpdm)-dataset(walking)-mode(ELBO)-parts(1)-dyn(26)-lvm(27)_final(5).mov,resources/videos_natural\training(24).mov,True,False,right,0,181,181,181,2018-09-10 17:19:14.081254,2018-09-10 17:19:18.001478,0:00:03.920224,5,right,1,0.38396930471844826,26,f,1,1,2018_Sep_10_1658,MP_PerceptionTuring2,59.96312328796935
183,resources/videos_generated\model(vcgpdm)-dataset(walking)-mode(ELBO)-parts(1)-dyn(24)-lvm(23)_final(4)_fail.mov,resources/videos_natural\training(48).mov,False,False,right,0,182,182,182,2018-09-10 17:19:19.502564,2018-09-10 17:19:23.422788,0:00:03.920224,5,right,1,0.4838765442509612,26,f,1,1,2018_Sep_10_1658,MP_PerceptionTuring2,59.96312328796935
184,resources/videos_generated\model(tmp)-dataset(walking)-numprim(12)_final(4).mov,resources/videos_natural\training(10).mov,False,False,right,0,183,183,183,2018-09-10 17:19:25.023879,2018-09-10 17:19:28.944104,0:00:03.920225,5,right,1,0.3171850812259436,26,f,1,1,2018_Sep_10_1658,MP_PerceptionTuring2,59.96312328796935
185,resources/videos_generated\model(vcgpdm)-dataset(walking)-mode(ELBO)-parts(2)-dyn(24)-lvm(23)_final(1).mov,resources/videos_natural\training(40).mov,False,True,left,0,184,184,184,2018-09-10 17:19:30.379186,2018-09-10 17:19:34.282409,0:00:03.903223,5,left,1,0.4506556478472703,26,f,1,1,2018_Sep_10_1658,MP_PerceptionTuring2,59.96312328796935
186,resources/videos_generated\model(vcgpdm)-dataset(walking)-mode(ELBO)-parts(2)-dyn(22)-lvm(21)_final(3).mov,resources/videos_natural\training(17).mov,True,True,left,0,185,185,185,2018-09-10 17:19:35.850499,2018-09-10 17:19:39.753722,0:00:03.903223,5,left,1,0.3171546630210287,26,f,1,1,2018_Sep_10_1658,MP_PerceptionTuring2,59.96312328796935
187,resources/videos_generated\model(vcgpdm)-dataset(walking)-mode(ELBO)-parts(2)-dyn(26)-lvm(19)_final(1).mov,resources/videos_natural\training(0).mov,True,False,right,0,186,186,186,2018-09-10 17:19:41.187804,2018-09-10 17:19:45.108028,0:00:03.920224,5,left,0,1.0343680542591756,26,f,1,1,2018_Sep_10_1658,MP_PerceptionTuring2,59.96312328796935
188,resources/videos_generated\model(vcgpdm)-dataset(walking)-mode(ELBO)-parts(1)-dyn(26)-lvm(25)_final(1).mov,resources/videos_natural\training(48).mov,False,True,left,0,187,187,187,2018-09-10 17:19:47.260151,2018-09-10 17:19:51.180375,0:00:03.920224,5,left,1,0.517412464838344,26,f,1,1,2018_Sep_10_1658,MP_PerceptionTuring2,59.96312328796935
189,resources/videos_generated\model(vcgpdm)-dataset(walking)-mode(ELBO)-parts(2)-dyn(25)-lvm(22)_final(5).mov,resources/videos_natural\training(3).mov,True,True,left,0,188,188,188,2018-09-10 17:19:52.814469,2018-09-10 17:19:56.734693,0:00:03.920224,5,left,1,0.3171886952695786,26,f,1,1,2018_Sep_10_1658,MP_PerceptionTuring2,59.96312328796935
190,resources/videos_generated\model(vcgpdm)-dataset(walking)-mode(ELBO)-parts(1)-dyn(28)-lvm(23)_final(9).mov,resources/videos_natural\training(43).mov,True,False,right,0,189,189,189,2018-09-10 17:19:58.169775,2018-09-10 17:20:02.072998,0:00:03.903223,5,right,1,0.4339292490622029,26,f,1,1,2018_Sep_10_1658,MP_PerceptionTuring2,59.96312328796935
191,resources/videos_generated\model(vcgpdm)-dataset(walking)-mode(ELBO)-parts(1)-dyn(23)-lvm(26)_final(9).mov,resources/videos_natural\training(17).mov,False,False,right,0,190,190,190,2018-09-10 17:20:03.624087,2018-09-10 17:20:07.594314,0:00:03.970227,5,right,1,0.5007342533081101,26,f,1,1,2018_Sep_10_1658,MP_PerceptionTuring2,59.96312328796935
192,resources/videos_generated\model(vcgpdm)-dataset(walking)-mode(ELBO)-parts(2)-dyn(22)-lvm(17)_final(1).mov,resources/videos_natural\training(37).mov,True,False,right,0,191,191,191,2018-09-10 17:20:09.212407,2018-09-10 17:20:13.149632,0:00:03.937225,5,right,1,0.31708659852210985,26,f,1,1,2018_Sep_10_1658,MP_PerceptionTuring2,59.96312328796935
193,resources/videos_generated\model(vcgpdm)-dataset(walking)-mode(ELBO)-parts(2)-dyn(23)-lvm(20)_final(7).mov,resources/videos_natural\training(31).mov,False,True,left,0,192,192,192,2018-09-10 17:20:14.583714,2018-09-10 17:20:18.536940,0:00:03.953226,5,left,1,0.33381058794475393,26,f,1,1,2018_Sep_10_1658,MP_PerceptionTuring2,59.96312328796935
194,resources/videos_generated\model(vcgpdm)-dataset(walking)-mode(ELBO)-parts(2)-dyn(25)-lvm(18)_final(3).mov,resources/videos_natural\training(46).mov,False,True,left,0,193,193,193,2018-09-10 17:20:19.988023,2018-09-10 17:20:23.908247,0:00:03.920224,5,left,1,0.31809521801733354,26,f,1,1,2018_Sep_10_1658,MP_PerceptionTuring2,59.96312328796935
195,resources/videos_generated\model(vcgpdm)-dataset(walking)-mode(ELBO)-parts(1)-dyn(22)-lvm(23)_final(6)_fail.mov,resources/videos_natural\training(48).mov,True,False,right,0,194,194,194,2018-09-10 17:20:25.343329,2018-09-10 17:20:29.246553,0:00:03.903224,5,right,1,0.5007999084446055,26,f,1,1,2018_Sep_10_1658,MP_PerceptionTuring2,59.96312328796935
196,resources/videos_generated\model(vcgpdm)-dataset(walking)-mode(ELBO)-parts(1)-dyn(25)-lvm(28)_final(4).mov,resources/videos_natural\training(8).mov,True,True,left,0,195,195,195,2018-09-10 17:20:30.864645,2018-09-10 17:20:34.800870,0:00:03.936225,5,left,1,0.3172787452040211,26,f,1,1,2018_Sep_10_1658,MP_PerceptionTuring2,59.96312328796935
197,resources/videos_generated\model(vcgpdm)-dataset(walking)-mode(ELBO)-parts(1)-dyn(25)-lvm(26)_final(8).mov,resources/videos_natural\training(6).mov,False,False,right,0,196,196,196,2018-09-10 17:20:36.235952,2018-09-10 17:20:40.139176,0:00:03.903224,5,right,1,0.43398857962074544,26,f,1,1,2018_Sep_10_1658,MP_PerceptionTuring2,59.96312328796935
198,resources/videos_generated\model(vcgpdm)-dataset(walking)-mode(ELBO)-parts(2)-dyn(23)-lvm(18)_final(3).mov,resources/videos_natural\training(35).mov,True,True,left,0,197,197,197,2018-09-10 17:20:41.690264,2018-09-10 17:20:45.593488,0:00:03.903224,5,left,1,0.33402743059559725,26,f,1,1,2018_Sep_10_1658,MP_PerceptionTuring2,59.96312328796935
199,resources/videos_generated\model(vcgpdm)-dataset(walking)-mode(ELBO)-parts(1)-dyn(24)-lvm(27)_final(0).mov,resources/videos_natural\training(44).mov,False,True,left,0,198,198,198,2018-09-10 17:20:47.044571,2018-09-10 17:20:50.964795,0:00:03.920224,5,left,1,0.35050144862907473,26,f,1,1,2018_Sep_10_1658,MP_PerceptionTuring2,59.96312328796935
200,resources/videos_generated\model(tmp)-dataset(walking)-numprim(14)_final(2).mov,resources/videos_natural\training(27).mov,True,False,right,0,199,199,199,2018-09-10 17:20:52.432879,2018-09-10 17:20:56.353103,0:00:03.920224,5,left,0,0.383791011872745,26,f,1,1,2018_Sep_10_1658,MP_PerceptionTuring2,59.96312328796935
201,resources/videos_generated\model(vcgpdm)-dataset(walking)-mode(ELBO)-parts(1)-dyn(28)-lvm(23)_final(1).mov,resources/videos_natural\training(36).mov,False,True,left,0,200,200,200,2018-09-10 17:22:00.825791,2018-09-10 17:22:04.795018,0:00:03.969227,5,left,1,0.30057704238606675,26,f,1,1,2018_Sep_10_1658,MP_PerceptionTuring2,59.96312328796935
202,resources/videos_generated\model(dmp)-dataset(walking)-npsi(60)_final(6).mov,resources/videos_natural\training(5).mov,True,True,left,0,201,201,201,2018-09-10 17:22:06.213099,2018-09-10 17:22:10.100321,0:00:03.887222,5,left,1,0.3171040664019529,26,f,1,1,2018_Sep_10_1658,MP_PerceptionTuring2,59.96312328796935
203,resources/videos_generated\model(vcgpdm)-dataset(walking)-mode(ELBO)-parts(1)-dyn(26)-lvm(22)_final(7).mov,resources/videos_natural\training(12).mov,False,True,left,0,202,202,202,2018-09-10 17:22:11.534403,2018-09-10 17:22:15.454627,0:00:03.920224,5,left,1,0.2836979502344548,26,f,1,1,2018_Sep_10_1658,MP_PerceptionTuring2,59.96312328796935
204,resources/videos_generated\model(vcgpdm)-dataset(walking)-mode(ELBO)-parts(2)-dyn(27)-lvm(18)_final(7).mov,resources/videos_natural\training(22).mov,True,False,right,0,203,203,203,2018-09-10 17:22:16.855708,2018-09-10 17:22:20.758931,0:00:03.903223,5,right,1,0.38388618170210975,26,f,1,1,2018_Sep_10_1658,MP_PerceptionTuring2,59.96312328796935
205,resources/videos_generated\model(vcgpdm)-dataset(walking)-mode(ELBO)-parts(2)-dyn(27)-lvm(20)_final(5).mov,resources/videos_natural\training(42).mov,False,False,right,0,204,204,204,2018-09-10 17:22:22.260017,2018-09-10 17:22:26.215243,0:00:03.955226,5,right,1,1.1177883254322296,26,f,1,1,2018_Sep_10_1658,MP_PerceptionTuring2,59.96312328796935
206,resources/videos_generated\model(vcgpdm)-dataset(walking)-mode(ELBO)-parts(1)-dyn(28)-lvm(24)_final(7).mov,resources/videos_natural\training(44).mov,True,True,left,0,205,205,205,2018-09-10 17:22:28.449371,2018-09-10 17:22:32.352594,0:00:03.903223,5,right,0,0.4505948114374405,26,f,1,1,2018_Sep_10_1658,MP_PerceptionTuring2,59.96312328796935
207,resources/videos_generated\model(tmp)-dataset(walking)-numprim(14)_final(4).mov,resources/videos_natural\training(43).mov,True,True,left,0,206,206,206,2018-09-10 17:22:33.920684,2018-09-10 17:22:37.856909,0:00:03.936225,5,right,0,0.4173338593773224,26,f,1,1,2018_Sep_10_1658,MP_PerceptionTuring2,59.96312328796935
208,resources/videos_generated\model(vcgpdm)-dataset(walking)-mode(ELBO)-parts(2)-dyn(22)-lvm(19)_final(3).mov,resources/videos_natural\training(7).mov,False,False,right,0,207,207,207,2018-09-10 17:22:39.391997,2018-09-10 17:22:43.329222,0:00:03.937225,5,right,1,0.4840084568631937,26,f,1,1,2018_Sep_10_1658,MP_PerceptionTuring2,59.96312328796935
209,resources/videos_generated\model(vcgpdm)-dataset(walking)-mode(ELBO)-parts(1)-dyn(22)-lvm(25)_final(2).mov,resources/videos_natural\training(11).mov,True,False,right,0,208,208,208,2018-09-10 17:22:44.930313,2018-09-10 17:22:48.833537,0:00:03.903224,5,right,1,0.33407923189497524,26,f,1,1,2018_Sep_10_1658,MP_PerceptionTuring2,59.96312328796935
210,resources/videos_generated\model(vcgpdm)-dataset(walking)-mode(ELBO)-parts(1)-dyn(25)-lvm(26)_final(2).mov,resources/videos_natural\training(8).mov,False,True,left,0,209,209,209,2018-09-10 17:22:50.284620,2018-09-10 17:22:54.204844,0:00:03.920224,5,right,0,0.2671387009913815,26,f,1,1,2018_Sep_10_1658,MP_PerceptionTuring2,59.96312328796935
211,resources/videos_generated\model(vcgpdm)-dataset(walking)-mode(ELBO)-parts(1)-dyn(22)-lvm(27)_final(8)_fail.mov,resources/videos_natural\training(25).mov,True,False,right,0,210,210,210,2018-09-10 17:22:55.588923,2018-09-10 17:22:59.493146,0:00:03.904223,5,right,1,0.3505406007752754,26,f,1,1,2018_Sep_10_1658,MP_PerceptionTuring2,59.96312328796935
212,resources/videos_generated\model(vcgpdm)-dataset(walking)-mode(ELBO)-parts(2)-dyn(28)-lvm(21)_final(3).mov,resources/videos_natural\training(42).mov,False,True,left,0,211,211,211,2018-09-10 17:23:00.960230,2018-09-10 17:23:04.864454,0:00:03.904224,5,right,0,0.3005101825701786,26,f,1,1,2018_Sep_10_1658,MP_PerceptionTuring2,59.96312328796935
213,resources/videos_generated\model(dmp)-dataset(walking)-npsi(80)_final(8).mov,resources/videos_natural\training(11).mov,True,True,left,0,212,212,212,2018-09-10 17:23:06.281535,2018-09-10 17:23:10.184758,0:00:03.903223,5,right,0,0.7509462772331972,26,f,1,1,2018_Sep_10_1658,MP_PerceptionTuring2,59.96312328796935
214,resources/videos_generated\model(dmp)-dataset(walking)-npsi(90)_final(6).mov,resources/videos_natural\training(0).mov,False,False,right,0,213,213,213,2018-09-10 17:23:12.053865,2018-09-10 17:23:15.957088,0:00:03.903223,5,right,1,0.6007812358820956,26,f,1,1,2018_Sep_10_1658,MP_PerceptionTuring2,59.96312328796935
215,resources/videos_generated\model(vcgpdm)-dataset(walking)-mode(ELBO)-parts(2)-dyn(22)-lvm(17)_final(3).mov,resources/videos_natural\training(45).mov,True,True,left,0,214,214,214,2018-09-10 17:23:17.675186,2018-09-10 17:23:21.611411,0:00:03.936225,5,right,0,0.3004348899821707,26,f,1,1,2018_Sep_10_1658,MP_PerceptionTuring2,59.96312328796935
216,resources/videos_generated\model(vcgpdm)-dataset(walking)-mode(ELBO)-parts(1)-dyn(24)-lvm(23)_final(0).mov,resources/videos_natural\training(22).mov,True,True,left,0,215,215,215,2018-09-10 17:23:23.029493,2018-09-10 17:23:27.066723,0:00:04.037230,5,right,0,0.30043308296080795,26,f,1,1,2018_Sep_10_1658,MP_PerceptionTuring2,59.96312328796935
217,resources/videos_generated\model(vcgpdm)-dataset(walking)-mode(ELBO)-parts(1)-dyn(24)-lvm(23)_final(6)_fail.mov,resources/videos_natural\training(10).mov,True,False,right,0,216,216,216,2018-09-10 17:23:28.484805,2018-09-10 17:23:32.421030,0:00:03.936225,5,right,1,0.3505418054555776,26,f,1,1,2018_Sep_10_1658,MP_PerceptionTuring2,59.96312328796935
218,resources/videos_generated\model(vcgpdm)-dataset(walking)-mode(ELBO)-parts(1)-dyn(27)-lvm(24)_final(5).mov,resources/videos_natural\training(22).mov,True,False,right,0,217,217,217,2018-09-10 17:23:33.889114,2018-09-10 17:23:37.792337,0:00:03.903223,5,right,1,0.3341241062771587,26,f,1,1,2018_Sep_10_1658,MP_PerceptionTuring2,59.96312328796935
219,resources/videos_generated\model(vcgpdm)-dataset(walking)-mode(ELBO)-parts(1)-dyn(23)-lvm(26)_final(7).mov,resources/videos_natural\training(23).mov,False,True,left,0,218,218,218,2018-09-10 17:23:39.243420,2018-09-10 17:23:43.146643,0:00:03.903223,5,right,0,0.2837485468526211,26,f,1,1,2018_Sep_10_1658,MP_PerceptionTuring2,59.96312328796935
220,resources/videos_generated\model(vcgpdm)-dataset(walking)-mode(ELBO)-parts(2)-dyn(27)-lvm(22)_final(1).mov,resources/videos_natural\training(26).mov,True,False,right,0,219,219,219,2018-09-10 17:23:44.548723,2018-09-10 17:23:48.467948,0:00:03.919225,5,right,1,0.30052222938320483,26,f,1,1,2018_Sep_10_1658,MP_PerceptionTuring2,59.96312328796935
221,resources/videos_generated\model(vcgpdm)-dataset(walking)-mode(ELBO)-parts(1)-dyn(27)-lvm(28)_final(3).mov,resources/videos_natural\training(0).mov,False,True,left,0,220,220,220,2018-09-10 17:23:49.886029,2018-09-10 17:23:53.806253,0:00:03.920224,5,left,1,0.2838033598563925,26,f,1,1,2018_Sep_10_1658,MP_PerceptionTuring2,59.96312328796935
222,resources/videos_generated\model(vcgpdm)-dataset(walking)-mode(ELBO)-parts(1)-dyn(28)-lvm(23)_final(7).mov,resources/videos_natural\training(47).mov,False,True,left,0,221,221,221,2018-09-10 17:23:55.207333,2018-09-10 17:23:59.144558,0:00:03.937225,5,right,0,0.6174302338895359,26,f,1,1,2018_Sep_10_1658,MP_PerceptionTuring2,59.96312328796935
223,resources/videos_generated\model(vcgpdm)-dataset(walking)-mode(ELBO)-parts(1)-dyn(22)-lvm(27)_final(2)_hip-corrected.mov,resources/videos_natural\training(45).mov,False,False,right,0,222,222,222,2018-09-10 17:24:00.878657,2018-09-10 17:24:04.832884,0:00:03.954227,5,right,1,0.3671892976099116,26,f,1,1,2018_Sep_10_1658,MP_PerceptionTuring2,59.96312328796935
224,resources/videos_generated\model(vcgpdm)-dataset(walking)-mode(ELBO)-parts(2)-dyn(28)-lvm(17)_final(7).mov,resources/videos_natural\training(13).mov,True,False,right,0,223,223,223,2018-09-10 17:24:06.316968,2018-09-10 17:24:10.220192,0:00:03.903224,5,right,1,0.5340798342358539,26,f,1,1,2018_Sep_10_1658,MP_PerceptionTuring2,59.96312328796935
225,resources/videos_generated\model(vcgpdm)-dataset(walking)-mode(ELBO)-parts(1)-dyn(25)-lvm(26)_final(6)_fail.mov,resources/videos_natural\training(46).mov,False,True,left,0,224,224,224,2018-09-10 17:24:11.872286,2018-09-10 17:24:15.792510,0:00:03.920224,5,left,1,0.5507420837375321,26,f,1,1,2018_Sep_10_1658,MP_PerceptionTuring2,59.96312328796935
226,resources/videos_generated\model(vcgpdm)-dataset(walking)-mode(ELBO)-parts(1)-dyn(22)-lvm(22)_final(6).mov,resources/videos_natural\training(4).mov,False,True,left,0,225,225,225,2018-09-10 17:24:17.459606,2018-09-10 17:24:21.379830,0:00:03.920224,6,left,1,0.4005933055859714,26,f,1,1,2018_Sep_10_1658,MP_PerceptionTuring2,59.96312328796935
227,resources/videos_generated\model(vcgpdm)-dataset(walking)-mode(ELBO)-parts(1)-dyn(25)-lvm(28)_final(2).mov,resources/videos_natural\training(16).mov,False,False,right,0,226,226,226,2018-09-10 17:24:22.897917,2018-09-10 17:24:26.835142,0:00:03.937225,6,left,0,0.36725826561996655,26,f,1,1,2018_Sep_10_1658,MP_PerceptionTuring2,59.96312328796935
228,resources/videos_generated\model(vcgpdm)-dataset(walking)-mode(ELBO)-parts(1)-dyn(27)-lvm(26)_final(3).mov,resources/videos_natural\training(21).mov,False,True,left,0,227,227,227,2018-09-10 17:24:28.319227,2018-09-10 17:24:32.256452,0:00:03.937225,6,left,1,0.31719110463291145,26,f,1,1,2018_Sep_10_1658,MP_PerceptionTuring2,59.96312328796935
229,resources/videos_generated\model(vcgpdm)-dataset(walking)-mode(ELBO)-parts(1)-dyn(27)-lvm(24)_final(7).mov,resources/videos_natural\training(37).mov,True,False,right,0,228,228,228,2018-09-10 17:24:33.690534,2018-09-10 17:24:37.643760,0:00:03.953226,6,left,0,0.5678048898016641,26,f,1,1,2018_Sep_10_1658,MP_PerceptionTuring2,59.96312328796935
230,resources/videos_generated\model(vcgpdm)-dataset(walking)-mode(ELBO)-parts(1)-dyn(25)-lvm(25)_final(2).mov,resources/videos_natural\training(5).mov,False,True,left,0,229,229,229,2018-09-10 17:24:39.328857,2018-09-10 17:24:43.232080,0:00:03.903223,6,left,1,0.2671088851275272,26,f,1,1,2018_Sep_10_1658,MP_PerceptionTuring2,59.96312328796935
231,resources/videos_generated\model(dmp)-dataset(walking)-npsi(50)_final(8).mov,resources/videos_natural\training(28).mov,True,True,left,0,230,230,230,2018-09-10 17:24:44.617159,2018-09-10 17:24:48.520382,0:00:03.903223,6,right,0,0.6174880585949722,26,f,1,1,2018_Sep_10_1658,MP_PerceptionTuring2,59.96312328796935
232,resources/videos_generated\model(tmp)-dataset(walking)-numprim(15)_final(8).mov,resources/videos_natural\training(19).mov,False,True,left,0,231,231,231,2018-09-10 17:24:50.254482,2018-09-10 17:24:54.174706,0:00:03.920224,6,right,0,0.5839539450307711,26,f,1,1,2018_Sep_10_1658,MP_PerceptionTuring2,59.96312328796935
233,resources/videos_generated\model(vcgpdm)-dataset(walking)-mode(ELBO)-parts(2)-dyn(26)-lvm(17)_final(9).mov,resources/videos_natural\training(7).mov,False,True,left,0,232,232,232,2018-09-10 17:24:55.876803,2018-09-10 17:24:59.797027,0:00:03.920224,6,right,0,0.6507146772355554,26,f,1,1,2018_Sep_10_1658,MP_PerceptionTuring2,59.96312328796935
234,resources/videos_generated\model(vcgpdm)-dataset(walking)-mode(ELBO)-parts(1)-dyn(22)-lvm(22)_final(8).mov,resources/videos_natural\training(35).mov,True,False,right,0,233,233,233,2018-09-10 17:25:01.565128,2018-09-10 17:25:05.485353,0:00:03.920225,6,right,1,0.400663177106253,26,f,1,1,2018_Sep_10_1658,MP_PerceptionTuring2,59.96312328796935
235,resources/videos_generated\model(vcgpdm)-dataset(walking)-mode(ELBO)-parts(1)-dyn(24)-lvm(25)_final(4).mov,resources/videos_natural\training(12).mov,False,False,right,0,234,234,234,2018-09-10 17:25:07.002439,2018-09-10 17:25:10.906663,0:00:03.904224,6,right,1,0.6341394659648358,26,f,1,1,2018_Sep_10_1658,MP_PerceptionTuring2,59.96312328796935
236,resources/videos_generated\model(vcgpdm)-dataset(walking)-mode(ELBO)-parts(2)-dyn(25)-lvm(20)_final(1).mov,resources/videos_natural\training(1).mov,True,False,right,0,235,235,235,2018-09-10 17:25:12.657763,2018-09-10 17:25:16.577987,0:00:03.920224,6,right,1,0.40059722080059146,26,f,1,1,2018_Sep_10_1658,MP_PerceptionTuring2,59.96312328796935
237,resources/videos_generated\model(vcgpdm)-dataset(walking)-mode(ELBO)-parts(2)-dyn(22)-lvm(21)_final(1).mov,resources/videos_natural\training(42).mov,True,False,right,0,236,236,236,2018-09-10 17:25:18.096074,2018-09-10 17:25:22.016298,0:00:03.920224,6,right,1,0.3174588450719966,26,f,1,1,2018_Sep_10_1658,MP_PerceptionTuring2,59.96312328796935
238,resources/videos_generated\model(vcgpdm)-dataset(walking)-mode(ELBO)-parts(1)-dyn(27)-lvm(22)_final(3).mov,resources/videos_natural\training(25).mov,True,False,right,0,237,237,237,2018-09-10 17:25:23.450380,2018-09-10 17:25:27.370604,0:00:03.920224,6,right,1,0.4173736138636741,26,f,1,1,2018_Sep_10_1658,MP_PerceptionTuring2,59.96312328796935
239,resources/videos_generated\model(vcgpdm)-dataset(walking)-mode(ELBO)-parts(2)-dyn(22)-lvm(21)_final(5).mov,resources/videos_natural\training(11).mov,False,False,right,0,238,238,238,2018-09-10 17:25:28.904692,2018-09-10 17:25:32.808916,0:00:03.904224,6,right,1,0.3005258434277493,26,f,1,1,2018_Sep_10_1658,MP_PerceptionTuring2,59.96312328796935
240,resources/videos_generated\model(vcgpdm)-dataset(walking)-mode(ELBO)-parts(1)-dyn(27)-lvm(22)_final(5).mov,resources/videos_natural\training(25).mov,True,False,right,0,239,239,239,2018-09-10 17:25:34.225997,2018-09-10 17:25:38.146221,0:00:03.920224,6,right,1,0.3505041591624831,26,f,1,1,2018_Sep_10_1658,MP_PerceptionTuring2,59.96312328796935
241,resources/videos_generated\model(vcgpdm)-dataset(walking)-mode(ELBO)-parts(2)-dyn(27)-lvm(20)_final(1).mov,resources/videos_natural\training(13).mov,False,False,right,0,240,240,240,2018-09-10 17:25:39.614305,2018-09-10 17:25:43.551530,0:00:03.937225,6,right,1,0.3340250212322644,26,f,1,1,2018_Sep_10_1658,MP_PerceptionTuring2,59.96312328796935
242,resources/videos_generated\model(dmp)-dataset(walking)-npsi(90)_final(8).mov,resources/videos_natural\training(31).mov,True,True,left,0,241,241,241,2018-09-10 17:25:45.002613,2018-09-10 17:25:48.938838,0:00:03.936225,6,right,0,0.35060264186631684,26,f,1,1,2018_Sep_10_1658,MP_PerceptionTuring2,59.96312328796935
243,resources/videos_generated\model(vcgpdm)-dataset(walking)-mode(ELBO)-parts(2)-dyn(26)-lvm(19)_final(9).mov,resources/videos_natural\training(5).mov,True,True,left,0,242,242,242,2018-09-10 17:25:50.406922,2018-09-10 17:25:54.294144,0:00:03.887222,6,left,1,0.333838897957321,26,f,1,1,2018_Sep_10_1658,MP_PerceptionTuring2,59.96312328796935
244,resources/videos_generated\model(vcgpdm)-dataset(walking)-mode(ELBO)-parts(2)-dyn(22)-lvm(23)_final(3).mov,resources/videos_natural\training(11).mov,False,False,right,0,243,243,243,2018-09-10 17:25:55.745227,2018-09-10 17:25:59.665452,0:00:03.920225,6,right,1,0.3505987266516968,26,f,1,1,2018_Sep_10_1658,MP_PerceptionTuring2,59.96312328796935
245,resources/videos_generated\model(vcgpdm)-dataset(walking)-mode(ELBO)-parts(2)-dyn(22)-lvm(21)_final(9).mov,resources/videos_natural\training(17).mov,False,True,left,0,244,244,244,2018-09-10 17:26:01.132536,2018-09-10 17:26:05.069761,0:00:03.937225,6,right,0,0.483882567657929,26,f,1,1,2018_Sep_10_1658,MP_PerceptionTuring2,59.96312328796935
246,resources/videos_generated\model(vcgpdm)-dataset(walking)-mode(ELBO)-parts(1)-dyn(26)-lvm(27)_final(3).mov,resources/videos_natural\training(28).mov,True,True,left,0,245,245,245,2018-09-10 17:26:06.670852,2018-09-10 17:26:10.591077,0:00:03.920225,6,left,1,0.2838756407400069,26,f,1,1,2018_Sep_10_1658,MP_PerceptionTuring2,59.96312328796935
247,resources/videos_generated\model(vcgpdm)-dataset(walking)-mode(ELBO)-parts(1)-dyn(27)-lvm(28)_final(1).mov,resources/videos_natural\training(8).mov,False,False,right,0,246,246,246,2018-09-10 17:26:11.992157,2018-09-10 17:26:15.912381,0:00:03.920224,6,right,1,0.2670763587302645,26,f,1,1,2018_Sep_10_1658,MP_PerceptionTuring2,59.96312328796935
248,resources/videos_generated\model(vcgpdm)-dataset(walking)-mode(ELBO)-parts(1)-dyn(28)-lvm(27)_final(1).mov,resources/videos_natural\training(39).mov,False,False,right,0,247,247,247,2018-09-10 17:26:17.296460,2018-09-10 17:26:21.200683,0:00:03.904223,6,right,1,1.0177280913630966,26,f,1,1,2018_Sep_10_1658,MP_PerceptionTuring2,59.96312328796935
249,resources/videos_generated\model(vcgpdm)-dataset(walking)-mode(ELBO)-parts(2)-dyn(24)-lvm(21)_final(9).mov,resources/videos_natural\training(32).mov,False,True,left,0,248,248,248,2018-09-10 17:26:23.335805,2018-09-10 17:26:27.239029,0:00:03.903224,6,right,0,0.5341250097881131,26,f,1,1,2018_Sep_10_1658,MP_PerceptionTuring2,59.96312328796935
250,resources/videos_generated\model(vcgpdm)-dataset(walking)-mode(ELBO)-parts(2)-dyn(25)-lvm(20)_final(9).mov,resources/videos_natural\training(41).mov,True,False,right,0,249,249,249,2018-09-10 17:26:28.890123,2018-09-10 17:26:32.777346,0:00:03.887223,6,right,1,0.8008989934887722,26,f,1,1,2018_Sep_10_1658,MP_PerceptionTuring2,59.96312328796935
251,resources/videos_generated\model(vcgpdm)-dataset(walking)-mode(ELBO)-parts(2)-dyn(26)-lvm(21)_final(1).mov,resources/videos_natural\training(10).mov,False,False,right,0,250,250,250,2018-09-10 17:27:36.849010,2018-09-10 17:27:40.769234,0:00:03.920224,6,right,1,0.4672531457244986,26,f,1,1,2018_Sep_10_1658,MP_PerceptionTuring2,59.96312328796935
252,resources/videos_generated\model(tmp)-dataset(walking)-numprim(11)_final(4).mov,resources/videos_natural\training(15).mov,True,False,right,0,251,251,251,2018-09-10 17:27:42.353325,2018-09-10 17:27:46.290550,0:00:03.937225,6,left,0,0.33391117884093546,26,f,1,1,2018_Sep_10_1658,MP_PerceptionTuring2,59.96312328796935
253,resources/videos_generated\model(vcgpdm)-dataset(walking)-mode(ELBO)-parts(1)-dyn(25)-lvm(23)_final(0).mov,resources/videos_natural\training(4).mov,True,True,left,0,252,252,252,2018-09-10 17:27:47.741633,2018-09-10 17:27:51.661857,0:00:03.920224,6,left,1,0.30051620597623696,26,f,1,1,2018_Sep_10_1658,MP_PerceptionTuring2,59.96312328796935
254,resources/videos_generated\model(dmp)-dataset(walking)-npsi(50)_final(4).mov,resources/videos_natural\training(48).mov,True,False,right,0,253,253,253,2018-09-10 17:27:53.079939,2018-09-10 17:27:57.000163,0:00:03.920224,6,left,0,0.2671158120456312,26,f,1,1,2018_Sep_10_1658,MP_PerceptionTuring2,59.96312328796935
255,resources/videos_generated\model(vcgpdm)-dataset(walking)-mode(ELBO)-parts(2)-dyn(28)-lvm(17)_final(9).mov,resources/videos_natural\training(19).mov,True,False,right,0,254,254,254,2018-09-10 17:27:58.384242,2018-09-10 17:28:02.304466,0:00:03.920224,6,left,0,0.40094748191495455,26,f,1,1,2018_Sep_10_1658,MP_PerceptionTuring2,59.96312328796935
256,resources/videos_generated\model(vcgpdm)-dataset(walking)-mode(ELBO)-parts(1)-dyn(27)-lvm(28)_final(5).mov,resources/videos_natural\training(45).mov,False,True,left,0,255,255,255,2018-09-10 17:28:03.822553,2018-09-10 17:28:07.725776,0:00:03.903223,6,right,0,0.4342418638834715,26,f,1,1,2018_Sep_10_1658,MP_PerceptionTuring2,59.96312328796935
257,resources/videos_generated\model(tmp)-dataset(walking)-numprim(13)_final(0).mov,resources/videos_natural\training(37).mov,False,True,left,0,256,256,256,2018-09-10 17:28:09.276865,2018-09-10 17:28:13.230091,0:00:03.953226,6,right,0,0.617403429728256,26,f,1,1,2018_Sep_10_1658,MP_PerceptionTuring2,59.96312328796935
258,resources/videos_generated\model(vcgpdm)-dataset(walking)-mode(ELBO)-parts(1)-dyn(25)-lvm(24)_final(3).mov,resources/videos_natural\training(32).mov,False,False,right,0,257,257,257,2018-09-10 17:28:14.965190,2018-09-10 17:28:18.868414,0:00:03.903224,6,right,1,0.3006535396543768,26,f,1,1,2018_Sep_10_1658,MP_PerceptionTuring2,59.96312328796935
259,resources/videos_generated\model(vcgpdm)-dataset(walking)-mode(ELBO)-parts(1)-dyn(23)-lvm(26)_final(5)_hip-corrected.mov,resources/videos_natural\training(34).mov,False,True,left,0,258,258,258,2018-09-10 17:28:20.286495,2018-09-10 17:28:24.189718,0:00:03.903223,6,left,1,0.30052433757555264,26,f,1,1,2018_Sep_10_1658,MP_PerceptionTuring2,59.96312328796935
260,resources/videos_generated\model(vcgpdm)-dataset(walking)-mode(ELBO)-parts(1)-dyn(23)-lvm(22)_final(3)_fail.mov,resources/videos_natural\training(23).mov,True,False,right,0,259,259,259,2018-09-10 17:28:25.607799,2018-09-10 17:28:29.528023,0:00:03.920224,6,right,1,0.4006688993422358,26,f,1,1,2018_Sep_10_1658,MP_PerceptionTuring2,59.96312328796935
261,resources/videos_generated\model(vcgpdm)-dataset(walking)-mode(ELBO)-parts(2)-dyn(26)-lvm(19)_final(3).mov,resources/videos_natural\training(28).mov,True,False,right,0,260,260,260,2018-09-10 17:28:31.046110,2018-09-10 17:28:34.965334,0:00:03.919224,6,left,0,0.2503857992151097,26,f,1,1,2018_Sep_10_1658,MP_PerceptionTuring2,59.96312328796935
262,resources/videos_generated\model(vcgpdm)-dataset(walking)-mode(ELBO)-parts(2)-dyn(22)-lvm(21)_final(7).mov,resources/videos_natural\training(14).mov,True,False,right,0,261,261,261,2018-09-10 17:28:36.333413,2018-09-10 17:28:40.236636,0:00:03.903223,6,right,1,0.4507146772357373,26,f,1,1,2018_Sep_10_1658,MP_PerceptionTuring2,59.96312328796935
263,resources/videos_generated\model(vcgpdm)-dataset(walking)-mode(ELBO)-parts(2)-dyn(24)-lvm(21)_final(5).mov,resources/videos_natural\training(37).mov,False,True,left,0,262,262,262,2018-09-10 17:28:41.804725,2018-09-10 17:28:45.724950,0:00:03.920225,6,right,0,0.4671769496262641,26,f,1,1,2018_Sep_10_1658,MP_PerceptionTuring2,59.96312328796935
264,resources/videos_generated\model(vcgpdm)-dataset(walking)-mode(ELBO)-parts(2)-dyn(25)-lvm(18)_final(5).mov,resources/videos_natural\training(44).mov,False,False,right,0,263,263,263,2018-09-10 17:28:47.310040,2018-09-10 17:28:51.230265,0:00:03.920225,6,right,1,0.4172407977403054,26,f,1,1,2018_Sep_10_1658,MP_PerceptionTuring2,59.96312328796935
265,resources/videos_generated\model(vcgpdm)-dataset(walking)-mode(ELBO)-parts(1)-dyn(22)-lvm(22)_final(4).mov,resources/videos_natural\training(41).mov,False,False,right,0,264,264,264,2018-09-10 17:28:52.764352,2018-09-10 17:28:56.651575,0:00:03.887223,6,right,1,0.4838783512723239,26,f,1,1,2018_Sep_10_1658,MP_PerceptionTuring2,59.96312328796935
266,resources/videos_generated\model(vcgpdm)-dataset(walking)-mode(ELBO)-parts(1)-dyn(23)-lvm(28)_final(8).mov,resources/videos_natural\training(15).mov,True,False,right,0,265,265,265,2018-09-10 17:28:58.252666,2018-09-10 17:29:02.188891,0:00:03.936225,6,right,1,0.3339003367082114,26,f,1,1,2018_Sep_10_1658,MP_PerceptionTuring2,59.96312328796935
267,resources/videos_generated\model(vcgpdm)-dataset(walking)-mode(ELBO)-parts(1)-dyn(26)-lvm(23)_final(5).mov,resources/videos_natural\training(12).mov,True,False,right,0,266,266,266,2018-09-10 17:29:03.639974,2018-09-10 17:29:07.544198,0:00:03.904224,6,right,1,0.434043994964668,26,f,1,1,2018_Sep_10_1658,MP_PerceptionTuring2,59.96312328796935
268,resources/videos_generated\model(vcgpdm)-dataset(walking)-mode(ELBO)-parts(1)-dyn(22)-lvm(25)_final(0).mov,resources/videos_natural\training(20).mov,False,False,right,0,267,267,267,2018-09-10 17:29:09.095286,2018-09-10 17:29:13.031512,0:00:03.936226,6,right,1,0.38406899210258416,26,f,1,1,2018_Sep_10_1658,MP_PerceptionTuring2,59.96312328796935
269,resources/videos_generated\model(vcgpdm)-dataset(walking)-mode(ELBO)-parts(2)-dyn(28)-lvm(23)_final(5).mov,resources/videos_natural\training(11).mov,True,False,right,0,268,268,268,2018-09-10 17:29:14.533597,2018-09-10 17:29:18.486824,0:00:03.953227,6,right,1,0.33388407350958005,26,f,1,1,2018_Sep_10_1658,MP_PerceptionTuring2,59.96312328796935
270,resources/videos_generated\model(vcgpdm)-dataset(walking)-mode(ELBO)-parts(2)-dyn(28)-lvm(17)_final(1).mov,resources/videos_natural\training(14).mov,False,False,right,0,269,269,269,2018-09-10 17:29:19.937907,2018-09-10 17:29:23.908134,0:00:03.970227,6,right,1,0.3004869924525337,26,f,1,1,2018_Sep_10_1658,MP_PerceptionTuring2,59.96312328796935
271,resources/videos_generated\model(vcgpdm)-dataset(walking)-mode(ELBO)-parts(2)-dyn(24)-lvm(19)_final(7).mov,resources/videos_natural\training(46).mov,False,True,left,0,270,270,270,2018-09-10 17:29:25.326215,2018-09-10 17:29:29.279441,0:00:03.953226,7,right,0,0.3172269439037336,26,f,1,1,2018_Sep_10_1658,MP_PerceptionTuring2,59.96312328796935
272,resources/videos_generated\model(dmp)-dataset(walking)-npsi(60)_final(8).mov,resources/videos_natural\training(38).mov,True,False,right,0,271,271,271,2018-09-10 17:29:30.713523,2018-09-10 17:29:34.617746,0:00:03.904223,7,right,1,0.3005917997343204,26,f,1,1,2018_Sep_10_1658,MP_PerceptionTuring2,59.96312328796935
273,resources/videos_generated\model(dmp)-dataset(walking)-npsi(100)_final(2).mov,resources/videos_natural\training(23).mov,False,False,right,0,272,272,272,2018-09-10 17:29:36.034827,2018-09-10 17:29:39.922050,0:00:03.887223,7,right,1,0.3005285539611577,26,f,1,1,2018_Sep_10_1658,MP_PerceptionTuring2,59.96312328796935
274,resources/videos_generated\model(vcgpdm)-dataset(walking)-mode(ELBO)-parts(1)-dyn(26)-lvm(23)_final(7).mov,resources/videos_natural\training(17).mov,False,True,left,0,273,273,273,2018-09-10 17:29:41.340131,2018-09-10 17:29:45.243354,0:00:03.903223,7,right,0,0.30076738204661524,26,f,1,1,2018_Sep_10_1658,MP_PerceptionTuring2,59.96312328796935
275,resources/videos_generated\model(vcgpdm)-dataset(walking)-mode(ELBO)-parts(1)-dyn(23)-lvm(28)_final(4)_hip-corrected.mov,resources/videos_natural\training(34).mov,True,True,left,0,274,274,274,2018-09-10 17:29:46.661435,2018-09-10 17:29:50.564658,0:00:03.903223,7,right,0,0.3339178045880544,26,f,1,1,2018_Sep_10_1658,MP_PerceptionTuring2,59.96312328796935
276,resources/videos_generated\model(vcgpdm)-dataset(walking)-mode(ELBO)-parts(2)-dyn(26)-lvm(23)_final(1).mov,resources/videos_natural\training(18).mov,False,True,left,0,275,275,275,2018-09-10 17:29:52.015741,2018-09-10 17:29:55.918965,0:00:03.903224,7,left,1,0.2837804709097327,26,f,1,1,2018_Sep_10_1658,MP_PerceptionTuring2,59.96312328796935
277,resources/videos_generated\model(vcgpdm)-dataset(walking)-mode(ELBO)-parts(1)-dyn(27)-lvm(22)_final(1).mov,resources/videos_natural\training(37).mov,False,True,left,0,276,276,276,2018-09-10 17:29:57.320045,2018-09-10 17:30:01.223268,0:00:03.903223,7,left,1,0.8342761973035522,26,f,1,1,2018_Sep_10_1658,MP_PerceptionTuring2,59.96312328796935
278,resources/videos_generated\model(vcgpdm)-dataset(walking)-mode(ELBO)-parts(2)-dyn(23)-lvm(22)_final(3).mov,resources/videos_natural\training(27).mov,False,True,left,0,277,277,277,2018-09-10 17:30:03.175380,2018-09-10 17:30:07.095604,0:00:03.920224,7,left,1,0.5676841204922312,26,f,1,1,2018_Sep_10_1658,MP_PerceptionTuring2,59.96312328796935
279,resources/videos_generated\model(vcgpdm)-dataset(walking)-mode(ELBO)-parts(1)-dyn(28)-lvm(27)_final(5).mov,resources/videos_natural\training(1).mov,False,True,left,0,278,278,278,2018-09-10 17:30:08.779700,2018-09-10 17:30:12.699924,0:00:03.920224,7,left,1,0.28392292448461376,26,f,1,1,2018_Sep_10_1658,MP_PerceptionTuring2,59.96312328796935
280,resources/videos_generated\model(vcgpdm)-dataset(walking)-mode(ELBO)-parts(2)-dyn(26)-lvm(21)_final(7).mov,resources/videos_natural\training(37).mov,False,True,left,0,279,279,279,2018-09-10 17:30:14.101004,2018-09-10 17:30:18.021229,0:00:03.920225,7,left,1,0.2672757335003553,26,f,1,1,2018_Sep_10_1658,MP_PerceptionTuring2,59.96312328796935
281,resources/videos_generated\model(vcgpdm)-dataset(walking)-mode(ELBO)-parts(1)-dyn(22)-lvm(27)_final(0)_hip-correted.mov,resources/videos_natural\training(0).mov,True,False,right,0,280,280,280,2018-09-10 17:30:19.406308,2018-09-10 17:30:23.375535,0:00:03.969227,7,left,0,0.2506550455063916,26,f,1,1,2018_Sep_10_1658,MP_PerceptionTuring2,59.96312328796935
282,resources/videos_generated\model(vcgpdm)-dataset(walking)-mode(ELBO)-parts(1)-dyn(26)-lvm(27)_final(9).mov,resources/videos_natural\training(2).mov,False,False,right,0,281,281,281,2018-09-10 17:30:24.743613,2018-09-10 17:30:28.646836,0:00:03.903223,7,right,1,0.3509068239181943,26,f,1,1,2018_Sep_10_1658,MP_PerceptionTuring2,59.96312328796935
283,resources/videos_generated\model(dmp)-dataset(walking)-npsi(80)_final(6).mov,resources/videos_natural\training(18).mov,False,False,right,0,282,282,282,2018-09-10 17:30:30.114920,2018-09-10 17:30:34.052146,0:00:03.937226,7,right,1,0.3002803895942634,26,f,1,1,2018_Sep_10_1658,MP_PerceptionTuring2,59.96312328796935
284,resources/videos_generated\model(vcgpdm)-dataset(walking)-mode(ELBO)-parts(1)-dyn(27)-lvm(26)_final(9).mov,resources/videos_natural\training(2).mov,True,True,left,0,283,283,283,2018-09-10 17:30:35.470227,2018-09-10 17:30:39.373450,0:00:03.903223,7,left,1,0.38393467012792826,26,f,1,1,2018_Sep_10_1658,MP_PerceptionTuring2,59.96312328796935
285,resources/videos_generated\model(vcgpdm)-dataset(walking)-mode(ELBO)-parts(1)-dyn(24)-lvm(25)_final(2).mov,resources/videos_natural\training(6).mov,True,False,right,0,284,284,284,2018-09-10 17:30:40.874536,2018-09-10 17:30:44.827762,0:00:03.953226,7,left,0,0.3505833669642016,26,f,1,1,2018_Sep_10_1658,MP_PerceptionTuring2,59.96312328796935
286,resources/videos_generated\model(vcgpdm)-dataset(walking)-mode(ELBO)-parts(1)-dyn(28)-lvm(27)_final(3).mov,resources/videos_natural\training(32).mov,False,True,left,0,285,285,285,2018-09-10 17:30:46.295846,2018-09-10 17:30:50.199069,0:00:03.903223,7,right,0,0.3004415157301992,26,f,1,1,2018_Sep_10_1658,MP_PerceptionTuring2,59.96312328796935
287,resources/videos_generated\model(vcgpdm)-dataset(walking)-mode(ELBO)-parts(2)-dyn(25)-lvm(18)_final(9).mov,resources/videos_natural\training(38).mov,False,False,right,0,286,286,286,2018-09-10 17:30:51.617150,2018-09-10 17:30:55.553375,0:00:03.936225,7,right,1,0.6173862630184885,26,f,1,1,2018_Sep_10_1658,MP_PerceptionTuring2,59.96312328796935
288,resources/videos_generated\model(vcgpdm)-dataset(walking)-mode(ELBO)-parts(2)-dyn(26)-lvm(21)_final(3).mov,resources/videos_natural\training(3).mov,False,True,left,0,287,287,287,2018-09-10 17:30:57.288475,2018-09-10 17:31:01.191698,0:00:03.903223,7,left,1,0.33387503839912824,26,f,1,1,2018_Sep_10_1658,MP_PerceptionTuring2,59.96312328796935
289,resources/videos_generated\model(vcgpdm)-dataset(walking)-mode(ELBO)-parts(2)-dyn(24)-lvm(21)_final(3).mov,resources/videos_natural\training(29).mov,True,False,right,0,288,288,288,2018-09-10 17:31:02.642781,2018-09-10 17:31:06.597007,0:00:03.954226,7,left,0,0.2838304651877479,26,f,1,1,2018_Sep_10_1658,MP_PerceptionTuring2,59.96312328796935
290,resources/videos_generated\model(dmp)-dataset(walking)-npsi(60)_final(2).mov,resources/videos_natural\training(28).mov,True,True,left,0,289,289,289,2018-09-10 17:31:07.998087,2018-09-10 17:31:11.918311,0:00:03.920224,7,right,0,0.3838419096609869,26,f,1,1,2018_Sep_10_1658,MP_PerceptionTuring2,59.96312328796935
291,resources/videos_generated\model(vcgpdm)-dataset(walking)-mode(ELBO)-parts(1)-dyn(25)-lvm(22)_final(8).mov,resources/videos_natural\training(19).mov,False,False,right,0,290,290,290,2018-09-10 17:31:13.419397,2018-09-10 17:31:17.339622,0:00:03.920225,7,right,1,0.7175588336267538,26,f,1,1,2018_Sep_10_1658,MP_PerceptionTuring2,59.96312328796935
292,resources/videos_generated\model(vcgpdm)-dataset(walking)-mode(ELBO)-parts(2)-dyn(25)-lvm(22)_final(3).mov,resources/videos_natural\training(37).mov,True,True,left,0,291,291,291,2018-09-10 17:31:19.173726,2018-09-10 17:31:23.093951,0:00:03.920225,7,right,0,0.5673754208855826,26,f,1,1,2018_Sep_10_1658,MP_PerceptionTuring2,59.96312328796935
293,resources/videos_generated\model(vcgpdm)-dataset(walking)-mode(ELBO)-parts(2)-dyn(28)-lvm(21)_final(9).mov,resources/videos_natural\training(4).mov,False,True,left,0,292,292,292,2018-09-10 17:31:24.779047,2018-09-10 17:31:28.716272,0:00:03.937225,7,right,0,0.28369644438316755,26,f,1,1,2018_Sep_10_1658,MP_PerceptionTuring2,59.96312328796935
