n_trial,mov_file_generated,mov_file_natural,mirrored,switch_stim_pos,correct_answer,trials.thisRepN,trials.thisTrialN,trials.thisN,trials.thisIndex,stimulus_onset,stimulus_off,stimulus_length,block,response.keys,response.corr,response.rt,age,gender,condition,participant,date,expName,frameRate,
1,resources/videos_generated\model(vcgpdm)-dataset(walking)-mode(ELBO)-parts(1)-dyn(24)-lvm(27)_final(3).mov,resources/videos_natural\training(6).mov,False,False,right,0,0,0,0,2018-11-02 12:13:10.163862,2018-11-02 12:13:14.768125,0:00:04.604263,1,right,1,2.7692703616553445,23,m,2,20,2018_Nov_02_1212,MP_PerceptionTuring2,59.93157373197858,
2,resources/videos_generated\model(vcgpdm)-dataset(walking)-mode(ELBO)-parts(2)-dyn(26)-lvm(23)_final(6).mov,resources/videos_natural\training(6).mov,True,True,left,0,1,1,1,2018-11-02 12:13:18.654347,2018-11-02 12:13:22.591573,0:00:03.937226,1,left,1,0.6507646284104567,23,m,2,20,2018_Nov_02_1212,MP_PerceptionTuring2,59.93157373197858,
3,resources/videos_generated\model(vcgpdm)-dataset(walking)-mode(ELBO)-parts(1)-dyn(23)-lvm(22)_final(0).mov,resources/videos_natural\training(22).mov,False,False,right,0,2,2,2,2018-11-02 12:13:24.359674,2018-11-02 12:13:28.913934,0:00:04.554260,1,left,0,0.41735516904589076,23,m,2,20,2018_Nov_02_1212,MP_PerceptionTuring2,59.93157373197858,
4,resources/videos_generated\model(vcgpdm)-dataset(walking)-mode(ELBO)-parts(1)-dyn(22)-lvm(25)_final(3).mov,resources/videos_natural\training(43).mov,False,False,right,0,3,3,3,2018-11-02 12:13:30.448022,2018-11-02 12:13:34.335244,0:00:03.887222,1,right,1,0.40059107852709985,23,m,2,20,2018_Nov_02_1212,MP_PerceptionTuring2,59.93157373197858,
5,resources/videos_generated\model(vcgpdm)-dataset(walking)-mode(ELBO)-parts(2)-dyn(26)-lvm(23)_final(0).mov,resources/videos_natural\training(0).mov,True,False,right,0,4,4,4,2018-11-02 12:13:35.853331,2018-11-02 12:13:39.839559,0:00:03.986228,1,right,1,1.7519744028603554,23,m,2,20,2018_Nov_02_1212,MP_PerceptionTuring2,59.93157373197858,
6,resources/videos_generated\model(vcgpdm)-dataset(walking)-mode(ELBO)-parts(1)-dyn(22)-lvm(22)_final(7).mov,resources/videos_natural\training(24).mov,True,False,right,0,5,5,5,2018-11-02 12:13:42.708723,2018-11-02 12:13:46.778956,0:00:04.070233,1,left,0,2.4689993979587825,23,m,2,20,2018_Nov_02_1212,MP_PerceptionTuring2,59.93157373197858,
7,resources/videos_generated\model(vcgpdm)-dataset(walking)-mode(ELBO)-parts(2)-dyn(22)-lvm(17)_final(0).mov,resources/videos_natural\training(26).mov,False,False,right,0,6,6,6,2018-11-02 12:13:50.365161,2018-11-02 12:13:54.285385,0:00:03.920224,1,left,0,0.3506828002051634,23,m,2,20,2018_Nov_02_1212,MP_PerceptionTuring2,59.93157373197858,
8,resources/videos_generated\model(vcgpdm)-dataset(walking)-mode(ELBO)-parts(1)-dyn(26)-lvm(27)_final(6).mov,resources/videos_natural\training(38).mov,False,False,right,0,7,7,7,2018-11-02 12:13:55.753469,2018-11-02 12:13:59.656693,0:00:03.903224,1,left,0,0.6841440308928668,23,m,2,20,2018_Nov_02_1212,MP_PerceptionTuring2,59.93157373197858,
9,resources/videos_generated\model(vcgpdm)-dataset(walking)-mode(ELBO)-parts(1)-dyn(22)-lvm(22)_final(5).mov,resources/videos_natural\training(30).mov,True,False,right,0,8,8,8,2018-11-02 12:14:01.458796,2018-11-02 12:14:05.395021,0:00:03.936225,1,left,0,0.46738180763532,23,m,2,20,2018_Nov_02_1212,MP_PerceptionTuring2,59.93157373197858,
10,resources/videos_generated\model(vcgpdm)-dataset(walking)-mode(ELBO)-parts(1)-dyn(25)-lvm(22)_final(5).mov,resources/videos_natural\training(13).mov,True,False,right,0,9,9,9,2018-11-02 12:14:06.980111,2018-11-02 12:14:10.916337,0:00:03.936226,1,right,1,0.4339409662354683,23,m,2,20,2018_Nov_02_1212,MP_PerceptionTuring2,59.93157373197858,
11,resources/videos_generated\model(vcgpdm)-dataset(walking)-mode(ELBO)-parts(1)-dyn(26)-lvm(23)_final(0).mov,resources/videos_natural\training(46).mov,False,False,right,0,10,10,10,2018-11-02 12:14:12.467425,2018-11-02 12:14:16.387650,0:00:03.920225,1,left,0,1.0343835071442982,23,m,2,20,2018_Nov_02_1212,MP_PerceptionTuring2,59.93157373197858,
12,resources/videos_generated\model(tmp)-dataset(walking)-numprim(12)_final(1).mov,resources/videos_natural\training(5).mov,True,False,right,0,11,11,11,2018-11-02 12:14:18.539773,2018-11-02 12:14:22.459997,0:00:03.920224,1,left,0,0.5174141684769893,23,m,2,20,2018_Nov_02_1212,MP_PerceptionTuring2,59.93157373197858,
13,resources/videos_generated\model(vcgpdm)-dataset(walking)-mode(ELBO)-parts(2)-dyn(26)-lvm(21)_final(8).mov,resources/videos_natural\training(10).mov,False,True,left,0,12,12,12,2018-11-02 12:14:24.095090,2018-11-02 12:14:28.048316,0:00:03.953226,1,right,0,5.004568164220245,23,m,2,20,2018_Nov_02_1212,MP_PerceptionTuring2,59.93157373197858,
14,resources/videos_generated\model(vcgpdm)-dataset(walking)-mode(ELBO)-parts(2)-dyn(22)-lvm(19)_final(6).mov,resources/videos_natural\training(25).mov,False,True,left,0,13,13,13,2018-11-02 12:14:34.169667,2018-11-02 12:14:38.256900,0:00:04.087233,1,left,1,0.48394110176241156,23,m,2,20,2018_Nov_02_1212,MP_PerceptionTuring2,59.93157373197858,
15,resources/videos_generated\model(vcgpdm)-dataset(walking)-mode(ELBO)-parts(2)-dyn(23)-lvm(18)_final(0).mov,resources/videos_natural\training(34).mov,False,False,right,0,14,14,14,2018-11-02 12:14:39.857992,2018-11-02 12:14:43.945226,0:00:04.087234,1,left,0,0.5842591083948037,23,m,2,20,2018_Nov_02_1212,MP_PerceptionTuring2,59.93157373197858,
16,resources/videos_generated\model(vcgpdm)-dataset(walking)-mode(ELBO)-parts(1)-dyn(22)-lvm(22)_final(3).mov,resources/videos_natural\training(26).mov,True,True,left,0,15,15,15,2018-11-02 12:14:45.646323,2018-11-02 12:14:49.550546,0:00:03.904223,1,left,1,0.550767971410437,23,m,2,20,2018_Nov_02_1212,MP_PerceptionTuring2,59.93157373197858,
17,resources/videos_generated\model(vcgpdm)-dataset(walking)-mode(ELBO)-parts(1)-dyn(24)-lvm(25)_final(1).mov,resources/videos_natural\training(14).mov,True,True,left,0,16,16,16,2018-11-02 12:14:51.217642,2018-11-02 12:14:55.321876,0:00:04.104234,1,right,0,0.4340310164135417,23,m,2,20,2018_Nov_02_1212,MP_PerceptionTuring2,59.93157373197858,
18,resources/videos_generated\model(vcgpdm)-dataset(walking)-mode(ELBO)-parts(1)-dyn(23)-lvm(24)_final(8).mov,resources/videos_natural\training(38).mov,False,False,right,0,17,17,17,2018-11-02 12:14:56.872965,2018-11-02 12:15:00.993201,0:00:04.120236,1,right,1,0.5840380487602488,23,m,2,20,2018_Nov_02_1212,MP_PerceptionTuring2,59.93157373197858,
19,resources/videos_generated\model(vcgpdm)-dataset(walking)-mode(ELBO)-parts(2)-dyn(22)-lvm(23)_final(4).mov,resources/videos_natural\training(8).mov,False,True,left,0,18,18,18,2018-11-02 12:15:02.694298,2018-11-02 12:15:06.598521,0:00:03.904223,1,left,1,1.3012458547553933,23,m,2,20,2018_Nov_02_1212,MP_PerceptionTuring2,59.93157373197858,
20,resources/videos_generated\model(vcgpdm)-dataset(walking)-mode(ELBO)-parts(2)-dyn(24)-lvm(23)_final(6).mov,resources/videos_natural\training(25).mov,True,False,right,0,19,19,19,2018-11-02 12:15:09.016660,2018-11-02 12:15:12.919883,0:00:03.903223,1,right,1,0.3672616704578786,23,m,2,20,2018_Nov_02_1212,MP_PerceptionTuring2,59.93157373197858,
21,resources/videos_generated\model(vcgpdm)-dataset(walking)-mode(ELBO)-parts(1)-dyn(25)-lvm(26)_final(3)_fail.mov,resources/videos_natural\training(27).mov,False,False,right,0,20,20,20,2018-11-02 12:15:14.404968,2018-11-02 12:15:18.491202,0:00:04.086234,1,right,1,0.3837721748562899,23,m,2,20,2018_Nov_02_1212,MP_PerceptionTuring2,59.93157373197858,
22,resources/videos_generated\model(vcgpdm)-dataset(walking)-mode(ELBO)-parts(1)-dyn(23)-lvm(27)_final(7).mov,resources/videos_natural\training(6).mov,True,True,left,0,21,21,21,2018-11-02 12:15:19.993288,2018-11-02 12:15:23.896511,0:00:03.903223,1,left,1,0.5673453358074312,23,m,2,20,2018_Nov_02_1212,MP_PerceptionTuring2,59.93157373197858,
23,resources/videos_generated\model(vcgpdm)-dataset(walking)-mode(ELBO)-parts(1)-dyn(28)-lvm(25)_final(6).mov,resources/videos_natural\training(28).mov,False,False,right,0,22,22,22,2018-11-02 12:15:25.580607,2018-11-02 12:15:29.684842,0:00:04.104235,1,right,1,0.23516468491027354,23,m,2,20,2018_Nov_02_1212,MP_PerceptionTuring2,59.93157373197858,
24,resources/videos_generated\model(vcgpdm)-dataset(walking)-mode(ELBO)-parts(2)-dyn(25)-lvm(22)_final(6).mov,resources/videos_natural\training(43).mov,False,False,right,0,23,23,23,2018-11-02 12:15:31.035919,2018-11-02 12:15:35.156155,0:00:04.120236,1,right,1,0.21713657901489114,23,m,2,20,2018_Nov_02_1212,MP_PerceptionTuring2,59.93157373197858,
25,resources/videos_generated\model(vcgpdm)-dataset(walking)-mode(ELBO)-parts(2)-dyn(23)-lvm(18)_final(4).mov,resources/videos_natural\training(47).mov,False,False,right,0,24,24,24,2018-11-02 12:15:36.490231,2018-11-02 12:15:40.594466,0:00:04.104235,1,left,0,0.4840254296883586,23,m,2,20,2018_Nov_02_1212,MP_PerceptionTuring2,59.93157373197858,
26,resources/videos_generated\model(tmp)-dataset(walking)-numprim(14)_final(1).mov,resources/videos_natural\training(35).mov,True,False,right,0,25,25,25,2018-11-02 12:15:42.195557,2018-11-02 12:15:46.298792,0:00:04.103235,1,left,0,1.768653864281987,23,m,2,20,2018_Nov_02_1212,MP_PerceptionTuring2,59.93157373197858,
27,resources/videos_generated\model(vcgpdm)-dataset(walking)-mode(ELBO)-parts(1)-dyn(22)-lvm(22)_final(9).mov,resources/videos_natural\training(24).mov,False,True,left,0,26,26,26,2018-11-02 12:15:49.184957,2018-11-02 12:15:53.105181,0:00:03.920224,1,left,1,0.7342808981285316,23,m,2,20,2018_Nov_02_1212,MP_PerceptionTuring2,59.93157373197858,
28,resources/videos_generated\model(vcgpdm)-dataset(walking)-mode(ELBO)-parts(2)-dyn(27)-lvm(18)_final(0).mov,resources/videos_natural\training(37).mov,False,True,left,0,27,27,27,2018-11-02 12:15:54.956287,2018-11-02 12:15:58.876512,0:00:03.920225,1,left,1,0.31733471952384207,23,m,2,20,2018_Nov_02_1212,MP_PerceptionTuring2,59.93157373197858,
29,resources/videos_generated\model(vcgpdm)-dataset(walking)-mode(ELBO)-parts(2)-dyn(28)-lvm(17)_final(4).mov,resources/videos_natural\training(41).mov,False,False,right,0,28,28,28,2018-11-02 12:16:00.311594,2018-11-02 12:16:04.431829,0:00:04.120235,1,right,1,0.3671336727130665,23,m,2,20,2018_Nov_02_1212,MP_PerceptionTuring2,59.93157373197858,
30,resources/videos_generated\model(vcgpdm)-dataset(walking)-mode(ELBO)-parts(2)-dyn(22)-lvm(17)_final(8).mov,resources/videos_natural\training(41).mov,False,True,left,0,29,29,29,2018-11-02 12:16:05.915914,2018-11-02 12:16:10.036150,0:00:04.120236,1,left,1,0.3839860063829974,23,m,2,20,2018_Nov_02_1212,MP_PerceptionTuring2,59.93157373197858,
31,resources/videos_generated\model(vcgpdm)-dataset(walking)-mode(ELBO)-parts(1)-dyn(27)-lvm(28)_final(6).mov,resources/videos_natural\training(36).mov,True,True,left,0,30,30,30,2018-11-02 12:16:11.537236,2018-11-02 12:16:15.607469,0:00:04.070233,1,left,1,0.31728713447978407,23,m,2,20,2018_Nov_02_1212,MP_PerceptionTuring2,59.93157373197858,
32,resources/videos_generated\model(vcgpdm)-dataset(walking)-mode(ELBO)-parts(2)-dyn(22)-lvm(21)_final(8).mov,resources/videos_natural\training(6).mov,True,False,right,0,31,31,31,2018-11-02 12:16:17.042551,2018-11-02 12:16:21.128784,0:00:04.086233,1,left,0,3.6699423046401307,23,m,2,20,2018_Nov_02_1212,MP_PerceptionTuring2,59.93157373197858,
33,resources/videos_generated\model(vcgpdm)-dataset(walking)-mode(ELBO)-parts(1)-dyn(24)-lvm(27)_final(7).mov,resources/videos_natural\training(7).mov,False,True,left,0,32,32,32,2018-11-02 12:16:25.917058,2018-11-02 12:16:29.820281,0:00:03.903223,1,left,1,0.7675554930458475,23,m,2,20,2018_Nov_02_1212,MP_PerceptionTuring2,59.93157373197858,
34,resources/videos_generated\model(vcgpdm)-dataset(walking)-mode(ELBO)-parts(1)-dyn(22)-lvm(28)_final(2).mov,resources/videos_natural\training(29).mov,False,True,left,0,33,33,33,2018-11-02 12:16:31.705389,2018-11-02 12:16:35.791623,0:00:04.086234,1,right,0,0.25036057717647964,23,m,2,20,2018_Nov_02_1212,MP_PerceptionTuring2,59.93157373197858,
35,resources/videos_generated\model(vcgpdm)-dataset(walking)-mode(ELBO)-parts(1)-dyn(25)-lvm(28)_final(1).mov,resources/videos_natural\training(3).mov,True,True,left,0,34,34,34,2018-11-02 12:16:37.159701,2018-11-02 12:16:41.279937,0:00:04.120236,1,left,1,0.4339752997481128,23,m,2,20,2018_Nov_02_1212,MP_PerceptionTuring2,59.93157373197858,
36,resources/videos_generated\model(vcgpdm)-dataset(walking)-mode(ELBO)-parts(1)-dyn(24)-lvm(25)_final(9).mov,resources/videos_natural\training(36).mov,False,False,right,0,35,35,35,2018-11-02 12:16:42.831026,2018-11-02 12:16:46.935260,0:00:04.104234,1,right,1,0.634012885909442,23,m,2,20,2018_Nov_02_1212,MP_PerceptionTuring2,59.93157373197858,
37,resources/videos_generated\model(dmp)-dataset(walking)-npsi(100)_final(5).mov,resources/videos_natural\training(13).mov,True,False,right,0,36,36,36,2018-11-02 12:16:48.686361,2018-11-02 12:16:52.773594,0:00:04.087233,1,left,0,0.5172653899217039,23,m,2,20,2018_Nov_02_1212,MP_PerceptionTuring2,59.93157373197858,
38,resources/videos_generated\model(vcgpdm)-dataset(walking)-mode(ELBO)-parts(2)-dyn(27)-lvm(18)_final(8).mov,resources/videos_natural\training(41).mov,False,True,left,0,37,37,37,2018-11-02 12:16:54.407688,2018-11-02 12:16:58.511923,0:00:04.104235,1,left,1,0.3672661880253827,23,m,2,20,2018_Nov_02_1212,MP_PerceptionTuring2,59.93157373197858,
39,resources/videos_generated\model(vcgpdm)-dataset(walking)-mode(ELBO)-parts(2)-dyn(22)-lvm(23)_final(8).mov,resources/videos_natural\training(30).mov,True,False,right,0,38,38,38,2018-11-02 12:16:59.996007,2018-11-02 12:17:03.949234,0:00:03.953227,1,right,1,0.5673772599508311,23,m,2,20,2018_Nov_02_1212,MP_PerceptionTuring2,59.93157373197858,
40,resources/videos_generated\model(vcgpdm)-dataset(walking)-mode(ELBO)-parts(1)-dyn(22)-lvm(27)_final(3)_fail.mov,resources/videos_natural\training(31).mov,False,True,left,0,39,39,39,2018-11-02 12:17:05.634330,2018-11-02 12:17:09.721564,0:00:04.087234,1,left,1,0.4840206109497558,23,m,2,20,2018_Nov_02_1212,MP_PerceptionTuring2,59.93157373197858,
41,resources/videos_generated\model(vcgpdm)-dataset(walking)-mode(ELBO)-parts(2)-dyn(26)-lvm(23)_final(8).mov,resources/videos_natural\training(10).mov,False,False,right,0,40,40,40,2018-11-02 12:17:11.322655,2018-11-02 12:17:15.442891,0:00:04.120236,1,right,1,0.33379583185126194,23,m,2,20,2018_Nov_02_1212,MP_PerceptionTuring2,59.93157373197858,
42,resources/videos_generated\model(vcgpdm)-dataset(walking)-mode(ELBO)-parts(1)-dyn(22)-lvm(25)_final(1).mov,resources/videos_natural\training(23).mov,True,False,right,0,41,41,41,2018-11-02 12:17:16.893974,2018-11-02 12:17:20.964207,0:00:04.070233,1,right,1,0.35053161228074714,23,m,2,20,2018_Nov_02_1212,MP_PerceptionTuring2,59.93157373197858,
43,resources/videos_generated\model(vcgpdm)-dataset(walking)-mode(ELBO)-parts(2)-dyn(28)-lvm(23)_final(0).mov,resources/videos_natural\training(39).mov,True,False,right,0,42,42,42,2018-11-02 12:17:22.432291,2018-11-02 12:17:26.519524,0:00:04.087233,1,right,1,1.7516530532280967,23,m,2,20,2018_Nov_02_1212,MP_PerceptionTuring2,59.93157373197858,
44,resources/videos_generated\model(vcgpdm)-dataset(walking)-mode(ELBO)-parts(2)-dyn(26)-lvm(17)_final(8).mov,resources/videos_natural\training(33).mov,False,False,right,0,43,43,43,2018-11-02 12:17:29.388689,2018-11-02 12:17:33.508924,0:00:04.120235,1,right,1,0.28385683407066153,23,m,2,20,2018_Nov_02_1212,MP_PerceptionTuring2,59.93157373197858,
45,resources/videos_generated\model(vcgpdm)-dataset(walking)-mode(ELBO)-parts(2)-dyn(24)-lvm(21)_final(4).mov,resources/videos_natural\training(3).mov,True,False,right,0,44,44,44,2018-11-02 12:17:34.910004,2018-11-02 12:17:38.830229,0:00:03.920225,1,left,0,0.26712135481238874,23,m,2,20,2018_Nov_02_1212,MP_PerceptionTuring2,59.93157373197858,
46,resources/videos_generated\model(dmp)-dataset(walking)-npsi(60)_final(3).mov,resources/videos_natural\training(45).mov,False,True,left,0,45,45,45,2018-11-02 12:18:12.809172,2018-11-02 12:18:16.812401,0:00:04.003229,2,right,0,0.36719450928819697,23,m,2,20,2018_Nov_02_1212,MP_PerceptionTuring2,59.93157373197858,
47,resources/videos_generated\model(vcgpdm)-dataset(walking)-mode(ELBO)-parts(1)-dyn(25)-lvm(25)_final(0).mov,resources/videos_natural\training(36).mov,False,True,left,0,46,46,46,2018-11-02 12:18:18.297486,2018-11-02 12:18:22.233711,0:00:03.936225,2,left,1,0.4340924553309833,23,m,2,20,2018_Nov_02_1212,MP_PerceptionTuring2,59.93157373197858,
48,resources/videos_generated\model(vcgpdm)-dataset(walking)-mode(ELBO)-parts(1)-dyn(22)-lvm(23)_final(5).mov,resources/videos_natural\training(11).mov,True,False,right,0,47,47,47,2018-11-02 12:18:23.785800,2018-11-02 12:18:27.722025,0:00:03.936225,2,right,1,0.4338337493009021,23,m,2,20,2018_Nov_02_1212,MP_PerceptionTuring2,59.93157373197858,
49,resources/videos_generated\model(vcgpdm)-dataset(walking)-mode(ELBO)-parts(1)-dyn(28)-lvm(27)_final(2).mov,resources/videos_natural\training(2).mov,True,False,right,0,48,48,48,2018-11-02 12:18:29.273114,2018-11-02 12:18:33.393349,0:00:04.120235,2,right,1,0.5841699617301401,23,m,2,20,2018_Nov_02_1212,MP_PerceptionTuring2,59.93157373197858,
50,resources/videos_generated\model(vcgpdm)-dataset(walking)-mode(ELBO)-parts(2)-dyn(27)-lvm(20)_final(0).mov,resources/videos_natural\training(34).mov,True,True,left,0,49,49,49,2018-11-02 12:18:35.095447,2018-11-02 12:18:38.998670,0:00:03.903223,2,right,0,0.6508022748060966,23,m,2,20,2018_Nov_02_1212,MP_PerceptionTuring2,59.93157373197858,
51,resources/videos_generated\model(vcgpdm)-dataset(walking)-mode(ELBO)-parts(1)-dyn(22)-lvm(23)_final(9).mov,resources/videos_natural\training(26).mov,False,False,right,0,50,50,50,2018-11-02 12:18:40.766771,2018-11-02 12:18:44.870006,0:00:04.103235,2,right,1,0.3847440542035656,23,m,2,20,2018_Nov_02_1212,MP_PerceptionTuring2,59.93157373197858,
52,resources/videos_generated\model(vcgpdm)-dataset(walking)-mode(ELBO)-parts(1)-dyn(27)-lvm(28)_final(2).mov,resources/videos_natural\training(32).mov,True,False,right,0,51,51,51,2018-11-02 12:18:46.371092,2018-11-02 12:18:50.308317,0:00:03.937225,2,right,1,0.33417289814906326,23,m,2,20,2018_Nov_02_1212,MP_PerceptionTuring2,59.93157373197858,
53,resources/videos_generated\model(vcgpdm)-dataset(walking)-mode(ELBO)-parts(2)-dyn(22)-lvm(19)_final(2).mov,resources/videos_natural\training(38).mov,True,True,left,0,52,52,52,2018-11-02 12:18:51.759400,2018-11-02 12:18:55.846634,0:00:04.087234,2,left,1,0.41747804688088763,23,m,2,20,2018_Nov_02_1212,MP_PerceptionTuring2,59.93157373197858,
54,resources/videos_generated\model(vcgpdm)-dataset(walking)-mode(ELBO)-parts(1)-dyn(22)-lvm(27)_final(5)_fail.mov,resources/videos_natural\training(28).mov,False,True,left,0,53,53,53,2018-11-02 12:18:57.380721,2018-11-02 12:19:01.500957,0:00:04.120236,2,left,1,0.484088675632961,23,m,2,20,2018_Nov_02_1212,MP_PerceptionTuring2,59.93157373197858,
55,resources/videos_generated\model(vcgpdm)-dataset(walking)-mode(ELBO)-parts(1)-dyn(23)-lvm(26)_final(0).mov,resources/videos_natural\training(16).mov,False,True,left,0,54,54,54,2018-11-02 12:19:03.103049,2018-11-02 12:19:07.206283,0:00:04.103234,2,right,0,0.36727371730455616,23,m,2,20,2018_Nov_02_1212,MP_PerceptionTuring2,59.93157373197858,
56,resources/videos_generated\model(dmp)-dataset(walking)-npsi(50)_final(5).mov,resources/videos_natural\training(23).mov,False,True,left,0,55,55,55,2018-11-02 12:19:08.690368,2018-11-02 12:19:12.594592,0:00:03.904224,2,left,1,0.4507062614388815,23,m,2,20,2018_Nov_02_1212,MP_PerceptionTuring2,59.93157373197858,
57,resources/videos_generated\model(dmp)-dataset(walking)-npsi(90)_final(7).mov,resources/videos_natural\training(48).mov,True,True,left,0,56,56,56,2018-11-02 12:19:14.162681,2018-11-02 12:19:18.282917,0:00:04.120236,2,left,1,0.43395210956828123,23,m,2,20,2018_Nov_02_1212,MP_PerceptionTuring2,59.93157373197858,
58,resources/videos_generated\model(vcgpdm)-dataset(walking)-mode(ELBO)-parts(2)-dyn(24)-lvm(23)_final(0).mov,resources/videos_natural\training(0).mov,True,False,right,0,57,57,57,2018-11-02 12:19:19.834006,2018-11-02 12:19:23.737229,0:00:03.903223,2,right,1,0.3839116171054684,23,m,2,20,2018_Nov_02_1212,MP_PerceptionTuring2,59.93157373197858,
59,resources/videos_generated\model(vcgpdm)-dataset(walking)-mode(ELBO)-parts(1)-dyn(26)-lvm(25)_final(2).mov,resources/videos_natural\training(46).mov,True,True,left,0,58,58,58,2018-11-02 12:19:25.238315,2018-11-02 12:19:29.325549,0:00:04.087234,2,left,1,0.4840188039227087,23,m,2,20,2018_Nov_02_1212,MP_PerceptionTuring2,59.93157373197858,
60,resources/videos_generated\model(vcgpdm)-dataset(walking)-mode(ELBO)-parts(2)-dyn(23)-lvm(22)_final(8).mov,resources/videos_natural\training(28).mov,False,True,left,0,59,59,59,2018-11-02 12:19:30.926640,2018-11-02 12:19:34.996873,0:00:04.070233,2,left,1,0.4174045611168822,23,m,2,20,2018_Nov_02_1212,MP_PerceptionTuring2,59.93157373197858,
61,resources/videos_generated\model(vcgpdm)-dataset(walking)-mode(ELBO)-parts(2)-dyn(22)-lvm(23)_final(6).mov,resources/videos_natural\training(22).mov,False,False,right,0,60,60,60,2018-11-02 12:19:36.531961,2018-11-02 12:19:40.452185,0:00:03.920224,2,right,1,0.30059412035575406,23,m,2,20,2018_Nov_02_1212,MP_PerceptionTuring2,59.93157373197858,
62,resources/videos_generated\model(vcgpdm)-dataset(walking)-mode(ELBO)-parts(2)-dyn(28)-lvm(23)_final(6).mov,resources/videos_natural\training(24).mov,False,False,right,0,61,61,61,2018-11-02 12:19:41.869266,2018-11-02 12:19:45.973501,0:00:04.104235,2,right,1,0.534090618187065,23,m,2,20,2018_Nov_02_1212,MP_PerceptionTuring2,59.93157373197858,
63,resources/videos_generated\model(vcgpdm)-dataset(walking)-mode(ELBO)-parts(1)-dyn(28)-lvm(25)_final(4).mov,resources/videos_natural\training(35).mov,False,False,right,0,62,62,62,2018-11-02 12:19:47.624595,2018-11-02 12:19:51.727830,0:00:04.103235,2,right,1,0.3005387048617649,23,m,2,20,2018_Nov_02_1212,MP_PerceptionTuring2,59.93157373197858,
64,resources/videos_generated\model(vcgpdm)-dataset(walking)-mode(ELBO)-parts(1)-dyn(23)-lvm(24)_final(4).mov,resources/videos_natural\training(9).mov,False,True,left,0,63,63,63,2018-11-02 12:19:53.145911,2018-11-02 12:19:57.066135,0:00:03.920224,2,left,1,0.36727612667368703,23,m,2,20,2018_Nov_02_1212,MP_PerceptionTuring2,59.93157373197858,
65,resources/videos_generated\model(vcgpdm)-dataset(walking)-mode(ELBO)-parts(1)-dyn(25)-lvm(28)_final(9).mov,resources/videos_natural\training(34).mov,False,True,left,0,64,64,64,2018-11-02 12:19:58.550220,2018-11-02 12:20:02.654455,0:00:04.104235,2,right,0,0.35059455705390974,23,m,2,20,2018_Nov_02_1212,MP_PerceptionTuring2,59.93157373197858,
66,resources/videos_generated\model(vcgpdm)-dataset(walking)-mode(ELBO)-parts(2)-dyn(26)-lvm(19)_final(6).mov,resources/videos_natural\training(12).mov,False,False,right,0,65,65,65,2018-11-02 12:20:04.122539,2018-11-02 12:20:08.225774,0:00:04.103235,2,right,1,0.25039822357189223,23,m,2,20,2018_Nov_02_1212,MP_PerceptionTuring2,59.93157373197858,
67,resources/videos_generated\model(vcgpdm)-dataset(walking)-mode(ELBO)-parts(1)-dyn(25)-lvm(22)_final(3).mov,resources/videos_natural\training(26).mov,False,False,right,0,66,66,66,2018-11-02 12:20:09.593852,2018-11-02 12:20:13.514076,0:00:03.920224,2,right,1,0.3673246152311549,23,m,2,20,2018_Nov_02_1212,MP_PerceptionTuring2,59.93157373197858,
68,resources/videos_generated\model(dmp)-dataset(walking)-npsi(70)_final(7).mov,resources/videos_natural\training(46).mov,True,True,left,0,67,67,67,2018-11-02 12:20:14.998161,2018-11-02 12:20:19.102396,0:00:04.104235,2,right,0,0.2837613628114468,23,m,2,20,2018_Nov_02_1212,MP_PerceptionTuring2,59.93157373197858,
69,resources/videos_generated\model(tmp)-dataset(walking)-numprim(14)_final(7).mov,resources/videos_natural\training(17).mov,True,False,right,0,68,68,68,2018-11-02 12:20:20.502476,2018-11-02 12:20:24.589709,0:00:04.087233,2,left,0,0.4006404705978639,23,m,2,20,2018_Nov_02_1212,MP_PerceptionTuring2,59.93157373197858,
70,resources/videos_generated\model(tmp)-dataset(walking)-numprim(13)_final(3).mov,resources/videos_natural\training(35).mov,False,False,right,0,69,69,69,2018-11-02 12:20:26.107796,2018-11-02 12:20:30.195030,0:00:04.087234,2,left,0,0.750982646216471,23,m,2,20,2018_Nov_02_1212,MP_PerceptionTuring2,59.93157373197858,
71,resources/videos_generated\model(vcgpdm)-dataset(walking)-mode(ELBO)-parts(2)-dyn(25)-lvm(22)_final(8).mov,resources/videos_natural\training(18).mov,True,True,left,0,70,70,70,2018-11-02 12:20:32.063137,2018-11-02 12:20:36.150371,0:00:04.087234,2,left,1,0.5182710004394266,23,m,2,20,2018_Nov_02_1212,MP_PerceptionTuring2,59.93157373197858,
72,resources/videos_generated\model(vcgpdm)-dataset(walking)-mode(ELBO)-parts(2)-dyn(25)-lvm(18)_final(8).mov,resources/videos_natural\training(23).mov,True,False,right,0,71,71,71,2018-11-02 12:20:37.784464,2018-11-02 12:20:41.671687,0:00:03.887223,2,right,1,0.3004616050434379,23,m,2,20,2018_Nov_02_1212,MP_PerceptionTuring2,59.93157373197858,
73,resources/videos_generated\model(vcgpdm)-dataset(walking)-mode(ELBO)-parts(1)-dyn(28)-lvm(23)_final(2).mov,resources/videos_natural\training(18).mov,False,False,right,0,72,72,72,2018-11-02 12:20:43.088768,2018-11-02 12:20:47.142999,0:00:04.054231,2,right,1,0.36709632748875265,23,m,2,20,2018_Nov_02_1212,MP_PerceptionTuring2,59.93157373197858,
74,resources/videos_generated\model(vcgpdm)-dataset(walking)-mode(ELBO)-parts(1)-dyn(22)-lvm(22)_final(1).mov,resources/videos_natural\training(47).mov,False,False,right,0,73,73,73,2018-11-02 12:20:48.627084,2018-11-02 12:20:52.547309,0:00:03.920225,2,right,1,0.30055767864496374,23,m,2,20,2018_Nov_02_1212,MP_PerceptionTuring2,59.93157373197858,
75,resources/videos_generated\model(dmp)-dataset(walking)-npsi(60)_final(1).mov,resources/videos_natural\training(1).mov,False,False,right,0,74,74,74,2018-11-02 12:20:53.965390,2018-11-02 12:20:57.885614,0:00:03.920224,2,left,0,0.3504551148050723,23,m,2,20,2018_Nov_02_1212,MP_PerceptionTuring2,59.93157373197858,
76,resources/videos_generated\model(vcgpdm)-dataset(walking)-mode(ELBO)-parts(1)-dyn(26)-lvm(27)_final(0).mov,resources/videos_natural\training(7).mov,False,True,left,0,75,75,75,2018-11-02 12:20:59.353698,2018-11-02 12:21:03.239920,0:00:03.886222,2,right,0,0.2837628686672815,23,m,2,20,2018_Nov_02_1212,MP_PerceptionTuring2,59.93157373197858,
77,resources/videos_generated\model(vcgpdm)-dataset(walking)-mode(ELBO)-parts(1)-dyn(27)-lvm(26)_final(2).mov,resources/videos_natural\training(7).mov,True,False,right,0,76,76,76,2018-11-02 12:21:04.641000,2018-11-02 12:21:08.728234,0:00:04.087234,2,right,1,0.31713805475351364,23,m,2,20,2018_Nov_02_1212,MP_PerceptionTuring2,59.93157373197858,
78,resources/videos_generated\model(vcgpdm)-dataset(walking)-mode(ELBO)-parts(1)-dyn(25)-lvm(28)_final(5).mov,resources/videos_natural\training(26).mov,False,True,left,0,77,77,77,2018-11-02 12:21:10.162316,2018-11-02 12:21:14.249550,0:00:04.087234,2,right,0,0.9845890715223504,23,m,2,20,2018_Nov_02_1212,MP_PerceptionTuring2,59.93157373197858,
79,resources/videos_generated\model(vcgpdm)-dataset(walking)-mode(ELBO)-parts(1)-dyn(27)-lvm(22)_final(4).mov,resources/videos_natural\training(46).mov,True,True,left,0,78,78,78,2018-11-02 12:21:16.351670,2018-11-02 12:21:20.421903,0:00:04.070233,2,left,1,7.740098931208195e-05,23,m,2,20,2018_Nov_02_1212,MP_PerceptionTuring2,59.93157373197858,
80,resources/videos_generated\model(vcgpdm)-dataset(walking)-mode(ELBO)-parts(2)-dyn(28)-lvm(19)_final(8).mov,resources/videos_natural\training(29).mov,False,True,left,0,79,79,79,2018-11-02 12:21:21.538967,2018-11-02 12:21:25.642201,0:00:04.103234,2,left,1,0.3003474611721231,23,m,2,20,2018_Nov_02_1212,MP_PerceptionTuring2,59.93157373197858,
81,resources/videos_generated\model(vcgpdm)-dataset(walking)-mode(ELBO)-parts(1)-dyn(22)-lvm(23)_final(7).mov,resources/videos_natural\training(4).mov,False,False,right,0,80,80,80,2018-11-02 12:21:27.060283,2018-11-02 12:21:31.164517,0:00:04.104234,2,right,1,1.8518710710338837,23,m,2,20,2018_Nov_02_1212,MP_PerceptionTuring2,59.93157373197858,
82,resources/videos_generated\model(vcgpdm)-dataset(walking)-mode(ELBO)-parts(1)-dyn(23)-lvm(27)_final(0).mov,resources/videos_natural\training(4).mov,True,True,left,0,81,81,81,2018-11-02 12:21:34.133687,2018-11-02 12:21:38.019909,0:00:03.886222,2,left,1,0.31719377141894256,23,m,2,20,2018_Nov_02_1212,MP_PerceptionTuring2,59.93157373197858,
83,resources/videos_generated\model(vcgpdm)-dataset(walking)-mode(ELBO)-parts(2)-dyn(22)-lvm(23)_final(2).mov,resources/videos_natural\training(43).mov,False,False,right,0,82,82,82,2018-11-02 12:21:39.454992,2018-11-02 12:21:43.541225,0:00:04.086233,2,right,1,0.2671996593151107,23,m,2,20,2018_Nov_02_1212,MP_PerceptionTuring2,59.93157373197858,
84,resources/videos_generated\model(vcgpdm)-dataset(walking)-mode(ELBO)-parts(2)-dyn(22)-lvm(19)_final(4).mov,resources/videos_natural\training(35).mov,False,True,left,0,83,83,83,2018-11-02 12:21:44.926304,2018-11-02 12:21:49.029539,0:00:04.103235,2,left,1,2.5023119404427234,23,m,2,20,2018_Nov_02_1212,MP_PerceptionTuring2,59.93157373197858,
85,resources/videos_generated\model(vcgpdm)-dataset(walking)-mode(ELBO)-parts(1)-dyn(26)-lvm(25)_final(6).mov,resources/videos_natural\training(0).mov,False,True,left,0,84,84,84,2018-11-02 12:21:52.649746,2018-11-02 12:21:56.519968,0:00:03.870222,2,left,1,0.43392018542522237,23,m,2,20,2018_Nov_02_1212,MP_PerceptionTuring2,59.93157373197858,
86,resources/videos_generated\model(vcgpdm)-dataset(walking)-mode(ELBO)-parts(1)-dyn(28)-lvm(27)_final(4).mov,resources/videos_natural\training(15).mov,False,True,left,0,85,85,85,2018-11-02 12:21:58.071056,2018-11-02 12:22:01.974280,0:00:03.903224,2,left,1,0.3172290084451106,23,m,2,20,2018_Nov_02_1212,MP_PerceptionTuring2,59.93157373197858,
87,resources/videos_generated\model(vcgpdm)-dataset(walking)-mode(ELBO)-parts(1)-dyn(23)-lvm(28)_final(7).mov,resources/videos_natural\training(48).mov,False,False,right,0,86,86,86,2018-11-02 12:22:03.408362,2018-11-02 12:22:07.295584,0:00:03.887222,2,left,0,0.7174345878820532,23,m,2,20,2018_Nov_02_1212,MP_PerceptionTuring2,59.93157373197858,
88,resources/videos_generated\model(vcgpdm)-dataset(walking)-mode(ELBO)-parts(2)-dyn(28)-lvm(17)_final(8).mov,resources/videos_natural\training(10).mov,False,False,right,0,87,87,87,2018-11-02 12:22:09.130689,2018-11-02 12:22:13.066914,0:00:03.936225,2,right,1,0.4162989617727817,23,m,2,20,2018_Nov_02_1212,MP_PerceptionTuring2,59.93157373197858,
89,resources/videos_generated\model(vcgpdm)-dataset(walking)-mode(ELBO)-parts(2)-dyn(24)-lvm(21)_final(0).mov,resources/videos_natural\training(26).mov,False,False,right,0,88,88,88,2018-11-02 12:22:14.602002,2018-11-02 12:22:18.538227,0:00:03.936225,2,left,0,0.30038540873897546,23,m,2,20,2018_Nov_02_1212,MP_PerceptionTuring2,59.93157373197858,
90,resources/videos_generated\model(dmp)-dataset(walking)-npsi(90)_final(5).mov,resources/videos_natural\training(1).mov,True,True,left,0,89,89,89,2018-11-02 12:22:19.956308,2018-11-02 12:22:24.044542,0:00:04.088234,2,right,0,0.33377866509476917,23,m,2,20,2018_Nov_02_1212,MP_PerceptionTuring2,59.93157373197858,
91,resources/videos_generated\model(vcgpdm)-dataset(walking)-mode(ELBO)-parts(1)-dyn(25)-lvm(26)_final(7).mov,resources/videos_natural\training(1).mov,False,False,right,0,90,90,90,2018-11-02 12:22:57.939481,2018-11-02 12:23:02.042715,0:00:04.103234,3,right,1,0.917639926381753,23,m,2,20,2018_Nov_02_1212,MP_PerceptionTuring2,59.93157373197858,
92,resources/videos_generated\model(vcgpdm)-dataset(walking)-mode(ELBO)-parts(2)-dyn(28)-lvm(21)_final(4).mov,resources/videos_natural\training(19).mov,False,True,left,0,91,91,91,2018-11-02 12:23:04.077832,2018-11-02 12:23:07.998056,0:00:03.920224,3,left,1,0.28371950001974255,23,m,2,20,2018_Nov_02_1212,MP_PerceptionTuring2,59.93157373197858,
93,resources/videos_generated\model(vcgpdm)-dataset(walking)-mode(ELBO)-parts(2)-dyn(27)-lvm(22)_final(0).mov,resources/videos_natural\training(17).mov,True,True,left,0,92,92,92,2018-11-02 12:23:09.399136,2018-11-02 12:23:13.319360,0:00:03.920224,3,left,1,0.5173298405509286,23,m,2,20,2018_Nov_02_1212,MP_PerceptionTuring2,59.93157373197858,
94,resources/videos_generated\model(vcgpdm)-dataset(walking)-mode(ELBO)-parts(2)-dyn(24)-lvm(19)_final(2).mov,resources/videos_natural\training(42).mov,False,True,left,0,93,93,93,2018-11-02 12:23:14.954454,2018-11-02 12:23:18.890679,0:00:03.936225,3,left,1,0.40046277961118903,23,m,2,20,2018_Nov_02_1212,MP_PerceptionTuring2,59.93157373197858,
95,resources/videos_generated\model(dmp)-dataset(walking)-npsi(60)_final(5).mov,resources/videos_natural\training(7).mov,True,True,left,0,94,94,94,2018-11-02 12:23:20.408766,2018-11-02 12:23:24.344991,0:00:03.936225,3,left,1,0.4839986254548876,23,m,2,20,2018_Nov_02_1212,MP_PerceptionTuring2,59.93157373197858,
96,resources/videos_generated\model(vcgpdm)-dataset(walking)-mode(ELBO)-parts(2)-dyn(23)-lvm(22)_final(4).mov,resources/videos_natural\training(39).mov,False,False,right,0,95,95,95,2018-11-02 12:23:25.947083,2018-11-02 12:23:29.883308,0:00:03.936225,3,right,1,0.4506080796393235,23,m,2,20,2018_Nov_02_1212,MP_PerceptionTuring2,59.93157373197858,
97,resources/videos_generated\model(dmp)-dataset(walking)-npsi(80)_final(3).mov,resources/videos_natural\training(7).mov,True,False,right,0,96,96,96,2018-11-02 12:23:31.451397,2018-11-02 12:23:35.371622,0:00:03.920225,3,left,0,0.4340665546110358,23,m,2,20,2018_Nov_02_1212,MP_PerceptionTuring2,59.93157373197858,
98,resources/videos_generated\model(vcgpdm)-dataset(walking)-mode(ELBO)-parts(2)-dyn(28)-lvm(19)_final(0).mov,resources/videos_natural\training(28).mov,False,True,left,0,97,97,97,2018-11-02 12:23:36.922710,2018-11-02 12:23:41.042946,0:00:04.120236,3,left,1,0.4006236050126972,23,m,2,20,2018_Nov_02_1212,MP_PerceptionTuring2,59.93157373197858,
99,resources/videos_generated\model(vcgpdm)-dataset(walking)-mode(ELBO)-parts(1)-dyn(26)-lvm(23)_final(2).mov,resources/videos_natural\training(34).mov,False,True,left,0,98,98,98,2018-11-02 12:23:42.561033,2018-11-02 12:23:46.481257,0:00:03.920224,3,left,1,0.3504885448041932,23,m,2,20,2018_Nov_02_1212,MP_PerceptionTuring2,59.93157373197858,
100,resources/videos_generated\model(vcgpdm)-dataset(walking)-mode(ELBO)-parts(2)-dyn(26)-lvm(23)_final(2).mov,resources/videos_natural\training(24).mov,True,False,right,0,99,99,99,2018-11-02 12:23:47.949341,2018-11-02 12:23:52.036575,0:00:04.087234,3,left,0,0.517229550553111,23,m,2,20,2018_Nov_02_1212,MP_PerceptionTuring2,59.93157373197858,
101,resources/videos_generated\model(vcgpdm)-dataset(walking)-mode(ELBO)-parts(2)-dyn(28)-lvm(17)_final(2).mov,resources/videos_natural\training(21).mov,False,False,right,0,100,100,100,2018-11-02 12:23:53.670668,2018-11-02 12:23:57.790904,0:00:04.120236,3,right,1,0.43398614191005436,23,m,2,20,2018_Nov_02_1212,MP_PerceptionTuring2,59.93157373197858,
102,resources/videos_generated\model(vcgpdm)-dataset(walking)-mode(ELBO)-parts(2)-dyn(26)-lvm(17)_final(6).mov,resources/videos_natural\training(11).mov,True,True,left,0,101,101,101,2018-11-02 12:23:59.341993,2018-11-02 12:24:03.429226,0:00:04.087233,3,left,1,0.46742065871558225,23,m,2,20,2018_Nov_02_1212,MP_PerceptionTuring2,59.93157373197858,
103,resources/videos_generated\model(vcgpdm)-dataset(walking)-mode(ELBO)-parts(1)-dyn(22)-lvm(27)_final(1)_fail.mov,resources/videos_natural\training(8).mov,False,True,left,0,102,102,102,2018-11-02 12:24:05.014317,2018-11-02 12:24:09.134553,0:00:04.120236,3,left,1,0.4170458662601959,23,m,2,20,2018_Nov_02_1212,MP_PerceptionTuring2,59.93157373197858,
104,resources/videos_generated\model(vcgpdm)-dataset(walking)-mode(ELBO)-parts(1)-dyn(25)-lvm(25)_final(7).mov,resources/videos_natural\training(34).mov,False,False,right,0,103,103,103,2018-11-02 12:24:10.668640,2018-11-02 12:24:14.588865,0:00:03.920225,3,right,1,0.3676001868466301,23,m,2,20,2018_Nov_02_1212,MP_PerceptionTuring2,59.93157373197858,
105,resources/videos_generated\model(vcgpdm)-dataset(walking)-mode(ELBO)-parts(2)-dyn(25)-lvm(18)_final(6).mov,resources/videos_natural\training(3).mov,False,True,left,0,104,104,104,2018-11-02 12:24:16.074950,2018-11-02 12:24:20.010175,0:00:03.935225,3,left,1,0.30047997648443925,23,m,2,20,2018_Nov_02_1212,MP_PerceptionTuring2,59.93157373197858,
106,resources/videos_generated\model(vcgpdm)-dataset(walking)-mode(ELBO)-parts(1)-dyn(25)-lvm(26)_final(9).mov,resources/videos_natural\training(31).mov,False,False,right,0,105,105,105,2018-11-02 12:24:21.428256,2018-11-02 12:24:25.348480,0:00:03.920224,3,right,1,0.3006076730582663,23,m,2,20,2018_Nov_02_1212,MP_PerceptionTuring2,59.93157373197858,
107,resources/videos_generated\model(vcgpdm)-dataset(walking)-mode(ELBO)-parts(1)-dyn(25)-lvm(22)_final(7).mov,resources/videos_natural\training(47).mov,True,False,right,0,106,106,106,2018-11-02 12:24:26.766561,2018-11-02 12:24:30.669784,0:00:03.903223,3,right,1,0.10040384041417383,23,m,2,20,2018_Nov_02_1212,MP_PerceptionTuring2,59.93157373197858,
108,resources/videos_generated\model(vcgpdm)-dataset(walking)-mode(ELBO)-parts(1)-dyn(28)-lvm(25)_final(2).mov,resources/videos_natural\training(33).mov,True,True,left,0,107,107,107,2018-11-02 12:24:31.886854,2018-11-02 12:24:35.807078,0:00:03.920224,3,left,1,0.8174213062336548,23,m,2,20,2018_Nov_02_1212,MP_PerceptionTuring2,59.93157373197858,
109,resources/videos_generated\model(vcgpdm)-dataset(walking)-mode(ELBO)-parts(2)-dyn(27)-lvm(22)_final(6).mov,resources/videos_natural\training(1).mov,True,False,right,0,108,108,108,2018-11-02 12:24:37.742189,2018-11-02 12:24:41.629411,0:00:03.887222,3,right,1,0.48413836887493744,23,m,2,20,2018_Nov_02_1212,MP_PerceptionTuring2,59.93157373197858,
110,resources/videos_generated\model(vcgpdm)-dataset(walking)-mode(ELBO)-parts(2)-dyn(27)-lvm(20)_final(4).mov,resources/videos_natural\training(23).mov,True,False,right,0,109,109,109,2018-11-02 12:24:43.230503,2018-11-02 12:24:47.150727,0:00:03.920224,3,right,1,0.2838200911887725,23,m,2,20,2018_Nov_02_1212,MP_PerceptionTuring2,59.93157373197858,
111,resources/videos_generated\model(vcgpdm)-dataset(walking)-mode(ELBO)-parts(1)-dyn(26)-lvm(25)_final(4).mov,resources/videos_natural\training(6).mov,True,False,right,0,110,110,110,2018-11-02 12:24:48.551807,2018-11-02 12:24:52.472031,0:00:03.920224,3,right,1,0.35052709471324306,23,m,2,20,2018_Nov_02_1212,MP_PerceptionTuring2,59.93157373197858,
112,resources/videos_generated\model(vcgpdm)-dataset(walking)-mode(ELBO)-parts(1)-dyn(27)-lvm(24)_final(0).mov,resources/videos_natural\training(48).mov,True,False,right,0,111,111,111,2018-11-02 12:24:53.939115,2018-11-02 12:24:57.893342,0:00:03.954227,3,right,1,0.30053990954615983,23,m,2,20,2018_Nov_02_1212,MP_PerceptionTuring2,59.93157373197858,
113,resources/videos_generated\model(vcgpdm)-dataset(walking)-mode(ELBO)-parts(1)-dyn(25)-lvm(22)_final(9).mov,resources/videos_natural\training(31).mov,False,False,right,0,112,112,112,2018-11-02 12:24:59.310423,2018-11-02 12:25:03.414657,0:00:04.104234,3,right,1,0.3672146877563591,23,m,2,20,2018_Nov_02_1212,MP_PerceptionTuring2,59.93157373197858,
114,resources/videos_generated\model(vcgpdm)-dataset(walking)-mode(ELBO)-parts(1)-dyn(22)-lvm(27)_final(7)_hip-corrected.mov,resources/videos_natural\training(33).mov,True,True,left,0,113,113,113,2018-11-02 12:25:04.898742,2018-11-02 12:25:08.985976,0:00:04.087234,3,right,0,0.4851903597518685,23,m,2,20,2018_Nov_02_1212,MP_PerceptionTuring2,59.93157373197858,
115,resources/videos_generated\model(vcgpdm)-dataset(walking)-mode(ELBO)-parts(1)-dyn(24)-lvm(23)_final(9).mov,resources/videos_natural\training(9).mov,True,False,right,0,114,114,114,2018-11-02 12:25:10.587068,2018-11-02 12:25:14.507292,0:00:03.920224,3,left,0,0.9342838496058903,23,m,2,20,2018_Nov_02_1212,MP_PerceptionTuring2,59.93157373197858,
116,resources/videos_generated\model(vcgpdm)-dataset(walking)-mode(ELBO)-parts(2)-dyn(22)-lvm(19)_final(0).mov,resources/videos_natural\training(6).mov,False,True,left,0,115,115,115,2018-11-02 12:25:16.559409,2018-11-02 12:25:20.645643,0:00:04.086234,3,left,1,0.40073172546090063,23,m,2,20,2018_Nov_02_1212,MP_PerceptionTuring2,59.93157373197858,
117,resources/videos_generated\model(vcgpdm)-dataset(walking)-mode(ELBO)-parts(2)-dyn(24)-lvm(21)_final(6).mov,resources/videos_natural\training(3).mov,False,False,right,0,116,116,116,2018-11-02 12:25:22.163730,2018-11-02 12:25:26.250964,0:00:04.087234,3,left,0,0.43398313019861234,23,m,2,20,2018_Nov_02_1212,MP_PerceptionTuring2,59.93157373197858,
118,resources/videos_generated\model(vcgpdm)-dataset(walking)-mode(ELBO)-parts(2)-dyn(26)-lvm(21)_final(0).mov,resources/videos_natural\training(38).mov,False,False,right,0,117,117,117,2018-11-02 12:25:27.802052,2018-11-02 12:25:31.872285,0:00:04.070233,3,left,0,0.4006088476255627,23,m,2,20,2018_Nov_02_1212,MP_PerceptionTuring2,59.93157373197858,
119,resources/videos_generated\model(tmp)-dataset(walking)-numprim(11)_final(9).mov,resources/videos_natural\training(48).mov,False,True,left,0,118,118,118,2018-11-02 12:25:33.390372,2018-11-02 12:25:37.310596,0:00:03.920224,3,left,1,0.4504800818945114,23,m,2,20,2018_Nov_02_1212,MP_PerceptionTuring2,59.93157373197858,
120,resources/videos_generated\model(vcgpdm)-dataset(walking)-mode(ELBO)-parts(1)-dyn(28)-lvm(25)_final(8).mov,resources/videos_natural\training(4).mov,True,False,right,0,119,119,119,2018-11-02 12:25:38.878686,2018-11-02 12:25:42.781909,0:00:03.903223,3,left,0,0.38389173980863234,23,m,2,20,2018_Nov_02_1212,MP_PerceptionTuring2,59.93157373197858,
121,resources/videos_generated\model(vcgpdm)-dataset(walking)-mode(ELBO)-parts(2)-dyn(23)-lvm(20)_final(4).mov,resources/videos_natural\training(40).mov,False,True,left,0,120,120,120,2018-11-02 12:25:44.282995,2018-11-02 12:25:48.203219,0:00:03.920224,3,left,1,0.2504581566338402,23,m,2,20,2018_Nov_02_1212,MP_PerceptionTuring2,59.93157373197858,
122,resources/videos_generated\model(vcgpdm)-dataset(walking)-mode(ELBO)-parts(1)-dyn(28)-lvm(23)_final(6)_fail.mov,resources/videos_natural\training(9).mov,False,True,left,0,121,121,121,2018-11-02 12:25:49.571297,2018-11-02 12:25:53.524523,0:00:03.953226,3,left,1,0.2671743609373607,23,m,2,20,2018_Nov_02_1212,MP_PerceptionTuring2,59.93157373197858,
123,resources/videos_generated\model(vcgpdm)-dataset(walking)-mode(ELBO)-parts(1)-dyn(25)-lvm(24)_final(0).mov,resources/videos_natural\training(22).mov,True,False,right,0,122,122,122,2018-11-02 12:25:54.908603,2018-11-02 12:25:58.845828,0:00:03.937225,3,right,1,0.2171022455020193,23,m,2,20,2018_Nov_02_1212,MP_PerceptionTuring2,59.93157373197858,
124,resources/videos_generated\model(vcgpdm)-dataset(walking)-mode(ELBO)-parts(1)-dyn(25)-lvm(24)_final(2).mov,resources/videos_natural\training(20).mov,False,False,right,0,123,123,123,2018-11-02 12:26:00.179904,2018-11-02 12:26:04.100128,0:00:03.920224,3,right,1,0.3005426200866168,23,m,2,20,2018_Nov_02_1212,MP_PerceptionTuring2,59.93157373197858,
125,resources/videos_generated\model(vcgpdm)-dataset(walking)-mode(ELBO)-parts(2)-dyn(27)-lvm(22)_final(2).mov,resources/videos_natural\training(9).mov,True,False,right,0,124,124,124,2018-11-02 12:26:05.518209,2018-11-02 12:26:09.455435,0:00:03.937226,3,right,1,0.4172304841838468,23,m,2,20,2018_Nov_02_1212,MP_PerceptionTuring2,59.93157373197858,
126,resources/videos_generated\model(vcgpdm)-dataset(walking)-mode(ELBO)-parts(1)-dyn(24)-lvm(25)_final(7).mov,resources/videos_natural\training(25).mov,False,True,left,0,125,125,125,2018-11-02 12:26:10.989522,2018-11-02 12:26:14.909747,0:00:03.920225,3,left,1,0.33382805716587427,23,m,2,20,2018_Nov_02_1212,MP_PerceptionTuring2,59.93157373197858,
127,resources/videos_generated\model(vcgpdm)-dataset(walking)-mode(ELBO)-parts(1)-dyn(28)-lvm(27)_final(8).mov,resources/videos_natural\training(22).mov,True,True,left,0,126,126,126,2018-11-02 12:26:16.360830,2018-11-02 12:26:20.298055,0:00:03.937225,3,right,0,0.2836664938947706,23,m,2,20,2018_Nov_02_1212,MP_PerceptionTuring2,59.93157373197858,
128,resources/videos_generated\model(vcgpdm)-dataset(walking)-mode(ELBO)-parts(1)-dyn(27)-lvm(24)_final(2).mov,resources/videos_natural\training(34).mov,False,False,right,0,127,127,127,2018-11-02 12:26:21.699135,2018-11-02 12:26:25.619359,0:00:03.920224,3,left,0,0.36720745964839807,23,m,2,20,2018_Nov_02_1212,MP_PerceptionTuring2,59.93157373197858,
129,resources/videos_generated\model(vcgpdm)-dataset(walking)-mode(ELBO)-parts(1)-dyn(28)-lvm(23)_final(8).mov,resources/videos_natural\training(2).mov,False,False,right,0,128,128,128,2018-11-02 12:26:27.103444,2018-11-02 12:26:31.206679,0:00:04.103235,3,right,1,0.19928044185417093,23,m,2,20,2018_Nov_02_1212,MP_PerceptionTuring2,59.93157373197858,
130,resources/videos_generated\model(dmp)-dataset(walking)-npsi(70)_final(3).mov,resources/videos_natural\training(45).mov,False,True,left,0,129,129,129,2018-11-02 12:26:32.524754,2018-11-02 12:26:36.628989,0:00:04.104235,3,right,0,0.2004730796647891,23,m,2,20,2018_Nov_02_1212,MP_PerceptionTuring2,59.93157373197858,
131,resources/videos_generated\model(vcgpdm)-dataset(walking)-mode(ELBO)-parts(1)-dyn(28)-lvm(25)_final(0).mov,resources/videos_natural\training(11).mov,False,True,left,0,130,130,130,2018-11-02 12:26:37.946064,2018-11-02 12:26:42.050299,0:00:04.104235,3,left,1,0.41729162193018965,23,m,2,20,2018_Nov_02_1212,MP_PerceptionTuring2,59.93157373197858,
132,resources/videos_generated\model(dmp)-dataset(walking)-npsi(90)_final(3).mov,resources/videos_natural\training(42).mov,True,False,right,0,131,131,131,2018-11-02 12:26:43.584387,2018-11-02 12:26:47.687621,0:00:04.103234,3,right,1,0.5507378542938568,23,m,2,20,2018_Nov_02_1212,MP_PerceptionTuring2,59.93157373197858,
133,resources/videos_generated\model(vcgpdm)-dataset(walking)-mode(ELBO)-parts(2)-dyn(23)-lvm(18)_final(6).mov,resources/videos_natural\training(37).mov,True,False,right,0,132,132,132,2018-11-02 12:26:49.355717,2018-11-02 12:26:53.459952,0:00:04.104235,3,left,0,0.3671475265866775,23,m,2,20,2018_Nov_02_1212,MP_PerceptionTuring2,59.93157373197858,
134,resources/videos_generated\model(dmp)-dataset(walking)-npsi(100)_final(9).mov,resources/videos_natural\training(34).mov,True,True,left,0,133,133,133,2018-11-02 12:26:54.944036,2018-11-02 12:26:58.864261,0:00:03.920225,3,right,0,0.26747613444399576,23,m,2,20,2018_Nov_02_1212,MP_PerceptionTuring2,59.93157373197858,
135,resources/videos_generated\model(vcgpdm)-dataset(walking)-mode(ELBO)-parts(2)-dyn(28)-lvm(17)_final(6).mov,resources/videos_natural\training(19).mov,True,False,right,0,134,134,134,2018-11-02 12:27:00.249340,2018-11-02 12:27:04.352575,0:00:04.103235,3,right,1,0.23369948719573586,23,m,2,20,2018_Nov_02_1212,MP_PerceptionTuring2,59.93157373197858,
136,resources/videos_generated\model(tmp)-dataset(walking)-numprim(14)_final(3).mov,resources/videos_natural\training(4).mov,True,False,right,0,135,135,135,2018-11-02 12:27:38.982555,2018-11-02 12:27:43.119792,0:00:04.137237,4,left,0,0.4507128872044177,23,m,2,20,2018_Nov_02_1212,MP_PerceptionTuring2,59.93157373197858,
137,resources/videos_generated\model(vcgpdm)-dataset(walking)-mode(ELBO)-parts(1)-dyn(23)-lvm(28)_final(9).mov,resources/videos_natural\training(30).mov,False,True,left,0,136,136,136,2018-11-02 12:27:44.687882,2018-11-02 12:27:48.757114,0:00:04.069232,4,right,0,0.5506649708722762,23,m,2,20,2018_Nov_02_1212,MP_PerceptionTuring2,59.93157373197858,
138,resources/videos_generated\model(vcgpdm)-dataset(walking)-mode(ELBO)-parts(1)-dyn(28)-lvm(27)_final(6).mov,resources/videos_natural\training(36).mov,False,True,left,0,137,137,137,2018-11-02 12:27:50.425210,2018-11-02 12:27:54.529445,0:00:04.104235,4,left,1,0.45069270873636924,23,m,2,20,2018_Nov_02_1212,MP_PerceptionTuring2,59.93157373197858,
139,resources/videos_generated\model(vcgpdm)-dataset(walking)-mode(ELBO)-parts(2)-dyn(23)-lvm(20)_final(6).mov,resources/videos_natural\training(18).mov,False,False,right,0,138,138,138,2018-11-02 12:27:56.097534,2018-11-02 12:28:00.167767,0:00:04.070233,4,right,1,0.4673260909698911,23,m,2,20,2018_Nov_02_1212,MP_PerceptionTuring2,59.93157373197858,
140,resources/videos_generated\model(vcgpdm)-dataset(walking)-mode(ELBO)-parts(2)-dyn(23)-lvm(18)_final(2).mov,resources/videos_natural\training(1).mov,True,True,left,0,139,139,139,2018-11-02 12:28:01.751858,2018-11-02 12:28:05.839091,0:00:04.087233,4,left,1,0.4338747085791965,23,m,2,20,2018_Nov_02_1212,MP_PerceptionTuring2,59.93157373197858,
141,resources/videos_generated\model(vcgpdm)-dataset(walking)-mode(ELBO)-parts(2)-dyn(23)-lvm(22)_final(2).mov,resources/videos_natural\training(30).mov,False,True,left,0,140,140,140,2018-11-02 12:28:07.390180,2018-11-02 12:28:11.360407,0:00:03.970227,4,left,1,1.451312820163821,23,m,2,20,2018_Nov_02_1212,MP_PerceptionTuring2,59.93157373197858,
142,resources/videos_generated\model(vcgpdm)-dataset(walking)-mode(ELBO)-parts(2)-dyn(24)-lvm(17)_final(4).mov,resources/videos_natural\training(15).mov,True,False,right,0,141,141,141,2018-11-02 12:28:13.929554,2018-11-02 12:28:17.849778,0:00:03.920224,4,right,1,0.26721351318883535,23,m,2,20,2018_Nov_02_1212,MP_PerceptionTuring2,59.93157373197858,
143,resources/videos_generated\model(vcgpdm)-dataset(walking)-mode(ELBO)-parts(2)-dyn(22)-lvm(21)_final(6).mov,resources/videos_natural\training(40).mov,True,False,right,0,142,142,142,2018-11-02 12:28:19.233858,2018-11-02 12:28:23.171083,0:00:03.937225,4,right,1,0.31721906979669257,23,m,2,20,2018_Nov_02_1212,MP_PerceptionTuring2,59.93157373197858,
144,resources/videos_generated\model(vcgpdm)-dataset(walking)-mode(ELBO)-parts(2)-dyn(27)-lvm(20)_final(8).mov,resources/videos_natural\training(40).mov,False,True,left,0,143,143,143,2018-11-02 12:28:24.605165,2018-11-02 12:28:28.508388,0:00:03.903223,4,left,1,0.2338256779137282,23,m,2,20,2018_Nov_02_1212,MP_PerceptionTuring2,59.93157373197858,
145,resources/videos_generated\model(dmp)-dataset(walking)-npsi(60)_final(7).mov,resources/videos_natural\training(13).mov,True,False,right,0,144,144,144,2018-11-02 12:28:29.859465,2018-11-02 12:28:33.763689,0:00:03.904224,4,left,0,0.3003182475692938,23,m,2,20,2018_Nov_02_1212,MP_PerceptionTuring2,59.93157373197858,
146,resources/videos_generated\model(vcgpdm)-dataset(walking)-mode(ELBO)-parts(1)-dyn(25)-lvm(26)_final(1).mov,resources/videos_natural\training(25).mov,True,True,left,0,145,145,145,2018-11-02 12:28:35.180770,2018-11-02 12:28:39.067992,0:00:03.887222,4,left,1,0.4506258487379,23,m,2,20,2018_Nov_02_1212,MP_PerceptionTuring2,59.93157373197858,
147,resources/videos_generated\model(vcgpdm)-dataset(walking)-mode(ELBO)-parts(1)-dyn(26)-lvm(27)_final(4).mov,resources/videos_natural\training(35).mov,True,True,left,0,146,146,146,2018-11-02 12:28:40.636082,2018-11-02 12:28:44.739316,0:00:04.103234,4,left,1,2.168771200567562,23,m,2,20,2018_Nov_02_1212,MP_PerceptionTuring2,59.93157373197858,
148,resources/videos_generated\model(vcgpdm)-dataset(walking)-mode(ELBO)-parts(2)-dyn(27)-lvm(18)_final(2).mov,resources/videos_natural\training(20).mov,False,False,right,0,147,147,147,2018-11-02 12:28:48.025504,2018-11-02 12:28:52.145740,0:00:04.120236,4,right,1,0.6341830476173982,23,m,2,20,2018_Nov_02_1212,MP_PerceptionTuring2,59.93157373197858,
149,resources/videos_generated\model(vcgpdm)-dataset(walking)-mode(ELBO)-parts(2)-dyn(22)-lvm(21)_final(4).mov,resources/videos_natural\training(43).mov,False,True,left,0,148,148,148,2018-11-02 12:28:53.896840,2018-11-02 12:28:57.817064,0:00:03.920224,4,left,1,0.25047803393067625,23,m,2,20,2018_Nov_02_1212,MP_PerceptionTuring2,59.93157373197858,
150,resources/videos_generated\model(vcgpdm)-dataset(walking)-mode(ELBO)-parts(2)-dyn(26)-lvm(19)_final(8).mov,resources/videos_natural\training(24).mov,False,False,right,0,149,149,149,2018-11-02 12:28:59.185143,2018-11-02 12:29:03.088366,0:00:03.903223,4,right,1,0.35059666525216926,23,m,2,20,2018_Nov_02_1212,MP_PerceptionTuring2,59.93157373197858,
151,resources/videos_generated\model(vcgpdm)-dataset(walking)-mode(ELBO)-parts(2)-dyn(24)-lvm(17)_final(8).mov,resources/videos_natural\training(18).mov,True,False,right,0,150,150,150,2018-11-02 12:29:04.556450,2018-11-02 12:29:08.459673,0:00:03.903223,4,right,1,0.2671114161639707,23,m,2,20,2018_Nov_02_1212,MP_PerceptionTuring2,59.93157373197858,
152,resources/videos_generated\model(tmp)-dataset(walking)-numprim(13)_final(9).mov,resources/videos_natural\training(15).mov,False,False,right,0,151,151,151,2018-11-02 12:29:09.844752,2018-11-02 12:29:13.930986,0:00:04.086234,4,left,0,0.20037248849598654,23,m,2,20,2018_Nov_02_1212,MP_PerceptionTuring2,59.93157373197858,
153,resources/videos_generated\model(tmp)-dataset(walking)-numprim(11)_final(1).mov,resources/videos_natural\training(40).mov,False,False,right,0,152,152,152,2018-11-02 12:29:15.249061,2018-11-02 12:29:19.152285,0:00:03.903224,4,left,0,0.2839306210059931,23,m,2,20,2018_Nov_02_1212,MP_PerceptionTuring2,59.93157373197858,
154,resources/videos_generated\model(vcgpdm)-dataset(walking)-mode(ELBO)-parts(2)-dyn(28)-lvm(23)_final(4)_fail.mov,resources/videos_natural\training(48).mov,True,False,right,0,153,153,153,2018-11-02 12:29:20.553365,2018-11-02 12:29:24.673601,0:00:04.120236,4,right,1,0.4339789138020933,23,m,2,20,2018_Nov_02_1212,MP_PerceptionTuring2,59.93157373197858,
155,resources/videos_generated\model(vcgpdm)-dataset(walking)-mode(ELBO)-parts(2)-dyn(25)-lvm(20)_final(8).mov,resources/videos_natural\training(16).mov,True,False,right,0,154,154,154,2018-11-02 12:29:26.224689,2018-11-02 12:29:30.328924,0:00:04.104235,4,right,1,0.7176143870669875,23,m,2,20,2018_Nov_02_1212,MP_PerceptionTuring2,59.93157373197858,
156,resources/videos_generated\model(tmp)-dataset(walking)-numprim(11)_final(5).mov,resources/videos_natural\training(23).mov,False,True,left,0,155,155,155,2018-11-02 12:29:32.164029,2018-11-02 12:29:36.234262,0:00:04.070233,4,left,1,0.2838372579449242,23,m,2,20,2018_Nov_02_1212,MP_PerceptionTuring2,59.93157373197858,
157,resources/videos_generated\model(vcgpdm)-dataset(walking)-mode(ELBO)-parts(1)-dyn(24)-lvm(23)_final(1).mov,resources/videos_natural\training(31).mov,False,False,right,0,156,156,156,2018-11-02 12:29:37.635342,2018-11-02 12:29:41.721576,0:00:04.086234,4,right,1,0.26710388688479725,23,m,2,20,2018_Nov_02_1212,MP_PerceptionTuring2,59.93157373197858,
158,resources/videos_generated\model(vcgpdm)-dataset(walking)-mode(ELBO)-parts(1)-dyn(27)-lvm(28)_final(0).mov,resources/videos_natural\training(9).mov,False,True,left,0,157,157,157,2018-11-02 12:29:43.106655,2018-11-02 12:29:47.192889,0:00:04.086234,4,left,1,0.2670939482366066,23,m,2,20,2018_Nov_02_1212,MP_PerceptionTuring2,59.93157373197858,
159,resources/videos_generated\model(tmp)-dataset(walking)-numprim(13)_final(1).mov,resources/videos_natural\training(8).mov,True,True,left,0,158,158,158,2018-11-02 12:29:48.577968,2018-11-02 12:29:52.498192,0:00:03.920224,4,right,0,0.28370022506510395,23,m,2,20,2018_Nov_02_1212,MP_PerceptionTuring2,59.93157373197858,
160,resources/videos_generated\model(vcgpdm)-dataset(walking)-mode(ELBO)-parts(2)-dyn(25)-lvm(18)_final(4).mov,resources/videos_natural\training(16).mov,False,False,right,0,159,159,159,2018-11-02 12:29:53.899272,2018-11-02 12:29:57.835497,0:00:03.936225,4,right,1,0.3171597390773968,23,m,2,20,2018_Nov_02_1212,MP_PerceptionTuring2,59.93157373197858,
161,resources/videos_generated\model(vcgpdm)-dataset(walking)-mode(ELBO)-parts(2)-dyn(26)-lvm(17)_final(0).mov,resources/videos_natural\training(18).mov,False,False,right,0,160,160,160,2018-11-02 12:29:59.270579,2018-11-02 12:30:03.357813,0:00:04.087234,4,right,1,0.28395501587010585,23,m,2,20,2018_Nov_02_1212,MP_PerceptionTuring2,59.93157373197858,
162,resources/videos_generated\model(vcgpdm)-dataset(walking)-mode(ELBO)-parts(2)-dyn(25)-lvm(18)_final(0).mov,resources/videos_natural\training(20).mov,False,True,left,0,161,161,161,2018-11-02 12:30:04.758893,2018-11-02 12:30:08.879129,0:00:04.120236,4,left,1,0.3173985678106419,23,m,2,20,2018_Nov_02_1212,MP_PerceptionTuring2,59.93157373197858,
163,resources/videos_generated\model(dmp)-dataset(walking)-npsi(50)_final(1).mov,resources/videos_natural\training(33).mov,False,False,right,0,162,162,162,2018-11-02 12:30:10.313211,2018-11-02 12:30:14.233435,0:00:03.920224,4,left,0,0.7508980171191979,23,m,2,20,2018_Nov_02_1212,MP_PerceptionTuring2,59.93157373197858,
164,resources/videos_generated\model(dmp)-dataset(walking)-npsi(100)_final(3).mov,resources/videos_natural\training(14).mov,False,False,right,0,163,163,163,2018-11-02 12:30:16.101542,2018-11-02 12:30:20.021766,0:00:03.920224,4,left,0,0.46767032961065524,23,m,2,20,2018_Nov_02_1212,MP_PerceptionTuring2,59.93157373197858,
165,resources/videos_generated\model(vcgpdm)-dataset(walking)-mode(ELBO)-parts(2)-dyn(24)-lvm(19)_final(0).mov,resources/videos_natural\training(5).mov,True,False,right,0,164,164,164,2018-11-02 12:30:21.606857,2018-11-02 12:30:25.693091,0:00:04.086234,4,right,1,0.21718536874345773,23,m,2,20,2018_Nov_02_1212,MP_PerceptionTuring2,59.93157373197858,
166,resources/videos_generated\model(vcgpdm)-dataset(walking)-mode(ELBO)-parts(1)-dyn(25)-lvm(28)_final(7).mov,resources/videos_natural\training(4).mov,True,False,right,0,165,165,165,2018-11-02 12:30:27.028167,2018-11-02 12:30:31.114401,0:00:04.086234,4,right,1,0.33385636725529366,23,m,2,20,2018_Nov_02_1212,MP_PerceptionTuring2,59.93157373197858,
167,resources/videos_generated\model(vcgpdm)-dataset(walking)-mode(ELBO)-parts(2)-dyn(26)-lvm(21)_final(2).mov,resources/videos_natural\training(41).mov,False,False,right,0,166,166,166,2018-11-02 12:30:32.565484,2018-11-02 12:30:36.636717,0:00:04.071233,4,right,1,0.3507303852491077,23,m,2,20,2018_Nov_02_1212,MP_PerceptionTuring2,59.93157373197858,
168,resources/videos_generated\model(vcgpdm)-dataset(walking)-mode(ELBO)-parts(1)-dyn(22)-lvm(25)_final(7).mov,resources/videos_natural\training(43).mov,True,True,left,0,167,167,167,2018-11-02 12:30:38.103800,2018-11-02 12:30:42.208035,0:00:04.104235,4,left,1,0.25061928320678817,23,m,2,20,2018_Nov_02_1212,MP_PerceptionTuring2,59.93157373197858,
169,resources/videos_generated\model(vcgpdm)-dataset(walking)-mode(ELBO)-parts(2)-dyn(23)-lvm(20)_final(0).mov,resources/videos_natural\training(36).mov,False,False,right,0,168,168,168,2018-11-02 12:30:43.575113,2018-11-02 12:30:47.679348,0:00:04.104235,4,right,1,0.38384897350329084,23,m,2,20,2018_Nov_02_1212,MP_PerceptionTuring2,59.93157373197858,
170,resources/videos_generated\model(dmp)-dataset(walking)-npsi(70)_final(5).mov,resources/videos_natural\training(40).mov,True,False,right,0,169,169,169,2018-11-02 12:30:49.180434,2018-11-02 12:30:53.250667,0:00:04.070233,4,left,0,0.5674944155337016,23,m,2,20,2018_Nov_02_1212,MP_PerceptionTuring2,59.93157373197858,
171,resources/videos_generated\model(tmp)-dataset(walking)-numprim(11)_final(7).mov,resources/videos_natural\training(7).mov,False,False,right,0,170,170,170,2018-11-02 12:30:54.934763,2018-11-02 12:30:59.021997,0:00:04.087234,4,right,1,0.5339105178306909,23,m,2,20,2018_Nov_02_1212,MP_PerceptionTuring2,59.93157373197858,
172,resources/videos_generated\model(vcgpdm)-dataset(walking)-mode(ELBO)-parts(1)-dyn(24)-lvm(23)_final(7).mov,resources/videos_natural\training(36).mov,True,True,left,0,171,171,171,2018-11-02 12:31:00.673091,2018-11-02 12:31:04.760325,0:00:04.087234,4,right,0,0.634154436356539,23,m,2,20,2018_Nov_02_1212,MP_PerceptionTuring2,59.93157373197858,
173,resources/videos_generated\model(vcgpdm)-dataset(walking)-mode(ELBO)-parts(1)-dyn(26)-lvm(25)_final(0).mov,resources/videos_natural\training(27).mov,False,False,right,0,172,172,172,2018-11-02 12:31:06.511425,2018-11-02 12:31:10.416649,0:00:03.905224,4,right,1,0.2840553058679234,23,m,2,20,2018_Nov_02_1212,MP_PerceptionTuring2,59.93157373197858,
174,resources/videos_generated\model(vcgpdm)-dataset(walking)-mode(ELBO)-parts(1)-dyn(25)-lvm(24)_final(8).mov,resources/videos_natural\training(47).mov,False,True,left,0,173,173,173,2018-11-02 12:31:11.816729,2018-11-02 12:31:15.702951,0:00:03.886222,4,left,1,0.5508149541119565,23,m,2,20,2018_Nov_02_1212,MP_PerceptionTuring2,59.93157373197858,
175,resources/videos_generated\model(vcgpdm)-dataset(walking)-mode(ELBO)-parts(1)-dyn(25)-lvm(23)_final(2).mov,resources/videos_natural\training(17).mov,False,False,right,0,174,174,174,2018-11-02 12:31:17.371046,2018-11-02 12:31:21.375275,0:00:04.004229,4,right,1,0.3838688508001269,23,m,2,20,2018_Nov_02_1212,MP_PerceptionTuring2,59.93157373197858,
176,resources/videos_generated\model(vcgpdm)-dataset(walking)-mode(ELBO)-parts(1)-dyn(23)-lvm(26)_final(6)_hip-corrected.mov,resources/videos_natural\training(14).mov,True,False,right,0,175,175,175,2018-11-02 12:31:22.876361,2018-11-02 12:31:26.762584,0:00:03.886223,4,right,1,0.3340244207649903,23,m,2,20,2018_Nov_02_1212,MP_PerceptionTuring2,59.93157373197858,
177,resources/videos_generated\model(vcgpdm)-dataset(walking)-mode(ELBO)-parts(2)-dyn(28)-lvm(23)_final(2).mov,resources/videos_natural\training(29).mov,True,False,right,0,176,176,176,2018-11-02 12:31:28.213667,2018-11-02 12:31:32.133891,0:00:03.920224,4,right,1,0.35058853363079834,23,m,2,20,2018_Nov_02_1212,MP_PerceptionTuring2,59.93157373197858,
178,resources/videos_generated\model(tmp)-dataset(walking)-numprim(12)_final(5).mov,resources/videos_natural\training(48).mov,False,False,right,0,177,177,177,2018-11-02 12:31:33.601975,2018-11-02 12:31:37.522199,0:00:03.920224,4,right,1,1.0691482969823483,23,m,2,20,2018_Nov_02_1212,MP_PerceptionTuring2,59.93157373197858,
179,resources/videos_generated\model(vcgpdm)-dataset(walking)-mode(ELBO)-parts(2)-dyn(27)-lvm(20)_final(6).mov,resources/videos_natural\training(39).mov,True,False,right,0,178,178,178,2018-11-02 12:31:39.707324,2018-11-02 12:31:43.627548,0:00:03.920224,4,right,1,0.45075324414051465,23,m,2,20,2018_Nov_02_1212,MP_PerceptionTuring2,59.93157373197858,
180,resources/videos_generated\model(vcgpdm)-dataset(walking)-mode(ELBO)-parts(1)-dyn(27)-lvm(26)_final(0).mov,resources/videos_natural\training(33).mov,True,False,right,0,179,179,179,2018-11-02 12:31:45.195638,2018-11-02 12:31:49.098861,0:00:03.903223,4,right,1,0.5006058057970222,23,m,2,20,2018_Nov_02_1212,MP_PerceptionTuring2,59.93157373197858,
181,resources/videos_generated\model(vcgpdm)-dataset(walking)-mode(ELBO)-parts(1)-dyn(27)-lvm(24)_final(8).mov,resources/videos_natural\training(39).mov,False,False,right,0,180,180,180,2018-11-02 12:32:22.627779,2018-11-02 12:32:26.548003,0:00:03.920224,5,right,1,0.08365270025547034,23,m,2,20,2018_Nov_02_1212,MP_PerceptionTuring2,59.93157373197858,
182,resources/videos_generated\model(vcgpdm)-dataset(walking)-mode(ELBO)-parts(1)-dyn(27)-lvm(24)_final(4).mov,resources/videos_natural\training(15).mov,True,False,right,0,181,181,181,2018-11-02 12:32:27.749072,2018-11-02 12:32:31.702298,0:00:03.953226,5,right,1,0.2504578554624004,23,m,2,20,2018_Nov_02_1212,MP_PerceptionTuring2,59.93157373197858,
183,resources/videos_generated\model(vcgpdm)-dataset(walking)-mode(ELBO)-parts(1)-dyn(23)-lvm(22)_final(4)_fail.mov,resources/videos_natural\training(12).mov,False,True,left,0,182,182,182,2018-11-02 12:32:33.070376,2018-11-02 12:32:36.956598,0:00:03.886222,5,left,1,0.35045360894901023,23,m,2,20,2018_Nov_02_1212,MP_PerceptionTuring2,59.93157373197858,
184,resources/videos_generated\model(vcgpdm)-dataset(walking)-mode(ELBO)-parts(1)-dyn(27)-lvm(28)_final(4).mov,resources/videos_natural\training(20).mov,True,True,left,0,183,183,183,2018-11-02 12:32:38.424682,2018-11-02 12:32:42.327906,0:00:03.903224,5,right,0,0.283684865335772,23,m,2,20,2018_Nov_02_1212,MP_PerceptionTuring2,59.93157373197858,
185,resources/videos_generated\model(vcgpdm)-dataset(walking)-mode(ELBO)-parts(2)-dyn(24)-lvm(19)_final(6).mov,resources/videos_natural\training(28).mov,False,False,right,0,184,184,184,2018-11-02 12:32:43.728986,2018-11-02 12:32:47.816220,0:00:04.087234,5,left,0,0.18375205662255212,23,m,2,20,2018_Nov_02_1212,MP_PerceptionTuring2,59.93157373197858,
186,resources/videos_generated\model(tmp)-dataset(walking)-numprim(15)_final(5).mov,resources/videos_natural\training(5).mov,False,False,right,0,185,185,185,2018-11-02 12:32:49.117294,2018-11-02 12:32:53.037518,0:00:03.920224,5,left,0,0.33419669067120594,23,m,2,20,2018_Nov_02_1212,MP_PerceptionTuring2,59.93157373197858,
187,resources/videos_generated\model(tmp)-dataset(walking)-numprim(15)_final(3).mov,resources/videos_natural\training(5).mov,False,True,left,0,186,186,186,2018-11-02 12:32:54.488601,2018-11-02 12:32:58.592836,0:00:04.104235,5,right,0,0.06689252496198606,23,m,2,20,2018_Nov_02_1212,MP_PerceptionTuring2,59.93157373197858,
188,resources/videos_generated\model(vcgpdm)-dataset(walking)-mode(ELBO)-parts(2)-dyn(22)-lvm(23)_final(0).mov,resources/videos_natural\training(14).mov,False,True,left,0,187,187,187,2018-11-02 12:32:59.776904,2018-11-02 12:33:03.897139,0:00:04.120235,5,left,1,0.13378354406768267,23,m,2,20,2018_Nov_02_1212,MP_PerceptionTuring2,59.93157373197858,
189,resources/videos_generated\model(vcgpdm)-dataset(walking)-mode(ELBO)-parts(1)-dyn(24)-lvm(23)_final(5).mov,resources/videos_natural\training(42).mov,True,False,right,0,188,188,188,2018-11-02 12:33:05.148211,2018-11-02 12:33:09.218444,0:00:04.070233,5,right,1,0.4004380835756365,23,m,2,20,2018_Nov_02_1212,MP_PerceptionTuring2,59.93157373197858,
190,resources/videos_generated\model(vcgpdm)-dataset(walking)-mode(ELBO)-parts(2)-dyn(25)-lvm(22)_final(4).mov,resources/videos_natural\training(27).mov,True,True,left,0,189,189,189,2018-11-02 12:33:10.736531,2018-11-02 12:33:14.655755,0:00:03.919224,5,left,1,0.7339152763352104,23,m,2,20,2018_Nov_02_1212,MP_PerceptionTuring2,59.93157373197858,
191,resources/videos_generated\model(vcgpdm)-dataset(walking)-mode(ELBO)-parts(1)-dyn(24)-lvm(27)_final(9).mov,resources/videos_natural\training(22).mov,False,False,right,0,190,190,190,2018-11-02 12:33:16.507861,2018-11-02 12:33:20.411084,0:00:03.903223,5,right,1,0.40063956708445403,23,m,2,20,2018_Nov_02_1212,MP_PerceptionTuring2,59.93157373197858,
192,resources/videos_generated\model(dmp)-dataset(walking)-npsi(70)_final(9).mov,resources/videos_natural\training(10).mov,True,True,left,0,191,191,191,2018-11-02 12:33:21.929171,2018-11-02 12:33:25.865396,0:00:03.936225,5,left,1,0.5172611735254122,23,m,2,20,2018_Nov_02_1212,MP_PerceptionTuring2,59.93157373197858,
193,resources/videos_generated\model(vcgpdm)-dataset(walking)-mode(ELBO)-parts(2)-dyn(24)-lvm(17)_final(0).mov,resources/videos_natural\training(3).mov,False,False,right,0,192,192,192,2018-11-02 12:33:27.501489,2018-11-02 12:33:31.420714,0:00:03.919225,5,left,0,0.2837959974954174,23,m,2,20,2018_Nov_02_1212,MP_PerceptionTuring2,59.93157373197858,
194,resources/videos_generated\model(vcgpdm)-dataset(walking)-mode(ELBO)-parts(2)-dyn(28)-lvm(21)_final(8).mov,resources/videos_natural\training(15).mov,True,True,left,0,193,193,193,2018-11-02 12:33:32.821794,2018-11-02 12:33:36.742018,0:00:03.920224,5,left,1,0.33383408058921304,23,m,2,20,2018_Nov_02_1212,MP_PerceptionTuring2,59.93157373197858,
195,resources/videos_generated\model(vcgpdm)-dataset(walking)-mode(ELBO)-parts(2)-dyn(28)-lvm(19)_final(2).mov,resources/videos_natural\training(32).mov,False,False,right,0,194,194,194,2018-11-02 12:33:38.193101,2018-11-02 12:33:42.096324,0:00:03.903223,5,right,1,0.2670602170660459,23,m,2,20,2018_Nov_02_1212,MP_PerceptionTuring2,59.93157373197858,
196,resources/videos_generated\model(vcgpdm)-dataset(walking)-mode(ELBO)-parts(1)-dyn(23)-lvm(22)_final(2).mov,resources/videos_natural\training(45).mov,False,True,left,0,195,195,195,2018-11-02 12:33:43.481403,2018-11-02 12:33:47.400628,0:00:03.919225,5,left,1,0.3505912441712553,23,m,2,20,2018_Nov_02_1212,MP_PerceptionTuring2,59.93157373197858,
197,resources/videos_generated\model(vcgpdm)-dataset(walking)-mode(ELBO)-parts(1)-dyn(22)-lvm(23)_final(1).mov,resources/videos_natural\training(38).mov,True,True,left,0,196,196,196,2018-11-02 12:33:48.868712,2018-11-02 12:33:52.822938,0:00:03.954226,5,left,1,0.3171214903395594,23,m,2,20,2018_Nov_02_1212,MP_PerceptionTuring2,59.93157373197858,
198,resources/videos_generated\model(vcgpdm)-dataset(walking)-mode(ELBO)-parts(1)-dyn(27)-lvm(26)_final(8).mov,resources/videos_natural\training(12).mov,True,False,right,0,197,197,197,2018-11-02 12:33:54.257020,2018-11-02 12:33:58.143242,0:00:03.886222,5,right,1,0.3505036033623128,23,m,2,20,2018_Nov_02_1212,MP_PerceptionTuring2,59.93157373197858,
199,resources/videos_generated\model(vcgpdm)-dataset(walking)-mode(ELBO)-parts(1)-dyn(27)-lvm(22)_final(0).mov,resources/videos_natural\training(16).mov,False,False,right,0,198,198,198,2018-11-02 12:33:59.611326,2018-11-02 12:34:03.698560,0:00:04.087234,5,right,1,0.6840572935977889,23,m,2,20,2018_Nov_02_1212,MP_PerceptionTuring2,59.93157373197858,
200,resources/videos_generated\model(vcgpdm)-dataset(walking)-mode(ELBO)-parts(1)-dyn(26)-lvm(27)_final(2).mov,resources/videos_natural\training(47).mov,False,True,left,0,199,199,199,2018-11-02 12:34:05.499663,2018-11-02 12:34:09.603898,0:00:04.104235,5,right,0,0.3337563784289159,23,m,2,20,2018_Nov_02_1212,MP_PerceptionTuring2,59.93157373197858,
201,resources/videos_generated\model(tmp)-dataset(walking)-numprim(15)_final(9).mov,resources/videos_natural\training(32).mov,False,False,right,0,200,200,200,2018-11-02 12:34:11.054981,2018-11-02 12:34:15.142214,0:00:04.087233,5,right,1,0.2671282817491374,23,m,2,20,2018_Nov_02_1212,MP_PerceptionTuring2,59.93157373197858,
202,resources/videos_generated\model(vcgpdm)-dataset(walking)-mode(ELBO)-parts(1)-dyn(26)-lvm(27)_final(8).mov,resources/videos_natural\training(26).mov,True,False,right,0,201,201,201,2018-11-02 12:34:16.526294,2018-11-02 12:34:20.630528,0:00:04.104234,5,right,1,0.40057090005916507,23,m,2,20,2018_Nov_02_1212,MP_PerceptionTuring2,59.93157373197858,
203,resources/videos_generated\model(vcgpdm)-dataset(walking)-mode(ELBO)-parts(1)-dyn(22)-lvm(23)_final(3)_fail.mov,resources/videos_natural\training(31).mov,True,False,right,0,202,202,202,2018-11-02 12:34:22.147615,2018-11-02 12:34:26.234849,0:00:04.087234,5,right,1,0.2670544948139195,23,m,2,20,2018_Nov_02_1212,MP_PerceptionTuring2,59.93157373197858,
204,resources/videos_generated\model(vcgpdm)-dataset(walking)-mode(ELBO)-parts(1)-dyn(23)-lvm(28)_final(5).mov,resources/videos_natural\training(21).mov,False,True,left,0,203,203,203,2018-11-02 12:34:27.618928,2018-11-02 12:34:31.673160,0:00:04.054232,5,left,1,0.33407170463783586,23,m,2,20,2018_Nov_02_1212,MP_PerceptionTuring2,59.93157373197858,
205,resources/videos_generated\model(vcgpdm)-dataset(walking)-mode(ELBO)-parts(1)-dyn(28)-lvm(23)_final(4)_fail.mov,resources/videos_natural\training(32).mov,False,False,right,0,204,204,204,2018-11-02 12:34:33.124243,2018-11-02 12:34:37.044467,0:00:03.920224,5,right,1,0.2832897287682954,23,m,2,20,2018_Nov_02_1212,MP_PerceptionTuring2,59.93157373197858,
206,resources/videos_generated\model(vcgpdm)-dataset(walking)-mode(ELBO)-parts(1)-dyn(27)-lvm(24)_final(6).mov,resources/videos_natural\training(21).mov,True,False,right,0,205,205,205,2018-11-02 12:34:38.445547,2018-11-02 12:34:42.381772,0:00:03.936225,5,right,1,0.36714391253281065,23,m,2,20,2018_Nov_02_1212,MP_PerceptionTuring2,59.93157373197858,
207,resources/videos_generated\model(vcgpdm)-dataset(walking)-mode(ELBO)-parts(1)-dyn(25)-lvm(24)_final(4).mov,resources/videos_natural\training(46).mov,False,False,right,0,206,206,206,2018-11-02 12:34:43.866857,2018-11-02 12:34:47.820083,0:00:03.953226,5,left,0,0.20038965525236563,23,m,2,20,2018_Nov_02_1212,MP_PerceptionTuring2,59.93157373197858,
208,resources/videos_generated\model(vcgpdm)-dataset(walking)-mode(ELBO)-parts(2)-dyn(25)-lvm(20)_final(2).mov,resources/videos_natural\training(3).mov,False,True,left,0,207,207,207,2018-11-02 12:34:49.138159,2018-11-02 12:34:53.058383,0:00:03.920224,5,left,1,0.3003829993695035,23,m,2,20,2018_Nov_02_1212,MP_PerceptionTuring2,59.93157373197858,
209,resources/videos_generated\model(vcgpdm)-dataset(walking)-mode(ELBO)-parts(2)-dyn(27)-lvm(18)_final(4).mov,resources/videos_natural\training(23).mov,False,True,left,0,208,208,208,2018-11-02 12:34:54.475464,2018-11-02 12:34:58.579699,0:00:04.104235,5,left,1,0.3005176228800792,23,m,2,20,2018_Nov_02_1212,MP_PerceptionTuring2,59.93157373197858,
210,resources/videos_generated\model(tmp)-dataset(walking)-numprim(12)_final(7).mov,resources/videos_natural\training(11).mov,True,False,right,0,209,209,209,2018-11-02 12:34:59.996780,2018-11-02 12:35:04.084014,0:00:04.087234,5,right,1,0.3505797996670026,23,m,2,20,2018_Nov_02_1212,MP_PerceptionTuring2,59.93157373197858,
211,resources/videos_generated\model(tmp)-dataset(walking)-numprim(12)_final(3).mov,resources/videos_natural\training(20).mov,True,False,right,0,210,210,210,2018-11-02 12:35:05.552098,2018-11-02 12:35:09.689334,0:00:04.137236,5,left,0,0.2672364021971134,23,m,2,20,2018_Nov_02_1212,MP_PerceptionTuring2,59.93157373197858,
212,resources/videos_generated\model(vcgpdm)-dataset(walking)-mode(ELBO)-parts(1)-dyn(28)-lvm(24)_final(0).mov,resources/videos_natural\training(30).mov,True,True,left,0,211,211,211,2018-11-02 12:35:11.073413,2018-11-02 12:35:15.210650,0:00:04.137237,5,right,0,0.2836872747052439,23,m,2,20,2018_Nov_02_1212,MP_PerceptionTuring2,59.93157373197858,
213,resources/videos_generated\model(vcgpdm)-dataset(walking)-mode(ELBO)-parts(2)-dyn(22)-lvm(21)_final(0).mov,resources/videos_natural\training(12).mov,False,True,left,0,212,212,212,2018-11-02 12:35:16.611730,2018-11-02 12:35:20.731966,0:00:04.120236,5,left,1,0.40044109528730587,23,m,2,20,2018_Nov_02_1212,MP_PerceptionTuring2,59.93157373197858,
214,resources/videos_generated\model(vcgpdm)-dataset(walking)-mode(ELBO)-parts(1)-dyn(23)-lvm(28)_final(1).mov,resources/videos_natural\training(19).mov,True,False,right,0,213,213,213,2018-11-02 12:35:22.250053,2018-11-02 12:35:26.353287,0:00:04.103234,5,right,1,0.7175960156259862,23,m,2,20,2018_Nov_02_1212,MP_PerceptionTuring2,59.93157373197858,
215,resources/videos_generated\model(vcgpdm)-dataset(walking)-mode(ELBO)-parts(2)-dyn(24)-lvm(17)_final(6).mov,resources/videos_natural\training(21).mov,True,False,right,0,214,214,214,2018-11-02 12:35:28.188392,2018-11-02 12:35:32.275626,0:00:04.087234,5,right,1,0.417309993371191,23,m,2,20,2018_Nov_02_1212,MP_PerceptionTuring2,59.93157373197858,
216,resources/videos_generated\model(vcgpdm)-dataset(walking)-mode(ELBO)-parts(2)-dyn(22)-lvm(17)_final(2).mov,resources/videos_natural\training(17).mov,True,True,left,0,215,215,215,2018-11-02 12:35:33.809714,2018-11-02 12:35:37.896948,0:00:04.087234,5,left,1,0.5008922195743253,23,m,2,20,2018_Nov_02_1212,MP_PerceptionTuring2,59.93157373197858,
217,resources/videos_generated\model(vcgpdm)-dataset(walking)-mode(ELBO)-parts(2)-dyn(24)-lvm(23)_final(8).mov,resources/videos_natural\training(8).mov,True,False,right,0,216,216,216,2018-11-02 12:35:39.515040,2018-11-02 12:35:43.601274,0:00:04.086234,5,right,1,0.4506767466648398,23,m,2,20,2018_Nov_02_1212,MP_PerceptionTuring2,59.93157373197858,
218,resources/videos_generated\model(dmp)-dataset(walking)-npsi(50)_final(3).mov,resources/videos_natural\training(41).mov,False,True,left,0,217,217,217,2018-11-02 12:35:45.170364,2018-11-02 12:35:49.256597,0:00:04.086233,5,right,0,0.6006759485612747,23,m,2,20,2018_Nov_02_1212,MP_PerceptionTuring2,59.93157373197858,
219,resources/videos_generated\model(tmp)-dataset(walking)-numprim(11)_final(3).mov,resources/videos_natural\training(9).mov,True,False,right,0,218,218,218,2018-11-02 12:35:50.974696,2018-11-02 12:35:54.894920,0:00:03.920224,5,right,1,0.40055162510452647,23,m,2,20,2018_Nov_02_1212,MP_PerceptionTuring2,59.93157373197858,
220,resources/videos_generated\model(vcgpdm)-dataset(walking)-mode(ELBO)-parts(1)-dyn(24)-lvm(27)_final(5).mov,resources/videos_natural\training(44).mov,True,True,left,0,219,219,219,2018-11-02 12:35:56.413007,2018-11-02 12:36:00.499240,0:00:04.086233,5,left,1,0.38401160593184613,23,m,2,20,2018_Nov_02_1212,MP_PerceptionTuring2,59.93157373197858,
221,resources/videos_generated\model(vcgpdm)-dataset(walking)-mode(ELBO)-parts(2)-dyn(24)-lvm(19)_final(4).mov,resources/videos_natural\training(1).mov,False,False,right,0,220,220,220,2018-11-02 12:36:02.001326,2018-11-02 12:36:05.937552,0:00:03.936226,5,right,1,0.3172302131297329,23,m,2,20,2018_Nov_02_1212,MP_PerceptionTuring2,59.93157373197858,
222,resources/videos_generated\model(vcgpdm)-dataset(walking)-mode(ELBO)-parts(2)-dyn(26)-lvm(23)_final(4).mov,resources/videos_natural\training(48).mov,False,True,left,0,221,221,221,2018-11-02 12:36:07.371634,2018-11-02 12:36:11.475868,0:00:04.104234,5,left,1,0.45056320513594983,23,m,2,20,2018_Nov_02_1212,MP_PerceptionTuring2,59.93157373197858,
223,resources/videos_generated\model(vcgpdm)-dataset(walking)-mode(ELBO)-parts(1)-dyn(22)-lvm(27)_final(9)_hip-corrected.mov,resources/videos_natural\training(13).mov,False,False,right,0,222,222,222,2018-11-02 12:36:13.043958,2018-11-02 12:36:17.131192,0:00:04.087234,5,right,1,0.28374811128060173,23,m,2,20,2018_Nov_02_1212,MP_PerceptionTuring2,59.93157373197858,
224,resources/videos_generated\model(vcgpdm)-dataset(walking)-mode(ELBO)-parts(1)-dyn(28)-lvm(24)_final(5).mov,resources/videos_natural\training(37).mov,True,True,left,0,223,223,223,2018-11-02 12:36:18.532272,2018-11-02 12:36:22.635507,0:00:04.103235,5,left,1,0.3170820369168723,23,m,2,20,2018_Nov_02_1212,MP_PerceptionTuring2,59.93157373197858,
225,resources/videos_generated\model(vcgpdm)-dataset(walking)-mode(ELBO)-parts(1)-dyn(22)-lvm(25)_final(9).mov,resources/videos_natural\training(26).mov,False,True,left,0,224,224,224,2018-11-02 12:36:24.069589,2018-11-02 12:36:28.173823,0:00:04.104234,5,left,1,0.38394595061845394,23,m,2,20,2018_Nov_02_1212,MP_PerceptionTuring2,59.93157373197858,
226,resources/videos_generated\model(vcgpdm)-dataset(walking)-mode(ELBO)-parts(2)-dyn(25)-lvm(22)_final(2).mov,resources/videos_natural\training(35).mov,False,True,left,0,225,225,225,2018-11-02 12:37:02.169768,2018-11-02 12:37:06.273002,0:00:04.103234,6,left,1,0.21699713676571264,23,m,2,20,2018_Nov_02_1212,MP_PerceptionTuring2,59.93157373197858,
227,resources/videos_generated\model(vcgpdm)-dataset(walking)-mode(ELBO)-parts(1)-dyn(23)-lvm(24)_final(6).mov,resources/videos_natural\training(33).mov,False,True,left,0,226,226,226,2018-11-02 12:37:07.608079,2018-11-02 12:37:11.711314,0:00:04.103235,6,left,1,0.3675116425242777,23,m,2,20,2018_Nov_02_1212,MP_PerceptionTuring2,59.93157373197858,
228,resources/videos_generated\model(tmp)-dataset(walking)-numprim(15)_final(7).mov,resources/videos_natural\training(13).mov,False,False,right,0,227,227,227,2018-11-02 12:37:13.195398,2018-11-02 12:37:17.115623,0:00:03.920225,6,left,0,0.30040257549535454,23,m,2,20,2018_Nov_02_1212,MP_PerceptionTuring2,59.93157373197858,
229,resources/videos_generated\model(vcgpdm)-dataset(walking)-mode(ELBO)-parts(2)-dyn(25)-lvm(20)_final(0).mov,resources/videos_natural\training(21).mov,True,False,right,0,228,228,228,2018-11-02 12:37:18.533704,2018-11-02 12:37:22.470929,0:00:03.937225,6,right,1,0.35064274444039256,23,m,2,20,2018_Nov_02_1212,MP_PerceptionTuring2,59.93157373197858,
230,resources/videos_generated\model(vcgpdm)-dataset(walking)-mode(ELBO)-parts(1)-dyn(23)-lvm(22)_final(6)_fail.mov,resources/videos_natural\training(15).mov,False,True,left,0,229,229,229,2018-11-02 12:37:23.938013,2018-11-02 12:37:28.058249,0:00:04.120236,6,left,1,0.5509004867226395,23,m,2,20,2018_Nov_02_1212,MP_PerceptionTuring2,59.93157373197858,
231,resources/videos_generated\model(vcgpdm)-dataset(walking)-mode(ELBO)-parts(2)-dyn(28)-lvm(23)_final(8).mov,resources/videos_natural\training(5).mov,True,False,right,0,230,230,230,2018-11-02 12:37:29.726344,2018-11-02 12:37:33.830579,0:00:04.104235,6,right,1,0.3838110259362111,23,m,2,20,2018_Nov_02_1212,MP_PerceptionTuring2,59.93157373197858,
232,resources/videos_generated\model(vcgpdm)-dataset(walking)-mode(ELBO)-parts(2)-dyn(22)-lvm(21)_final(2).mov,resources/videos_natural\training(37).mov,False,True,left,0,231,231,231,2018-11-02 12:37:35.331665,2018-11-02 12:37:39.418898,0:00:04.087233,6,left,1,0.4508803383719169,23,m,2,20,2018_Nov_02_1212,MP_PerceptionTuring2,59.93157373197858,
233,resources/videos_generated\model(vcgpdm)-dataset(walking)-mode(ELBO)-parts(1)-dyn(25)-lvm(28)_final(3).mov,resources/videos_natural\training(29).mov,True,False,right,0,232,232,232,2018-11-02 12:37:40.985988,2018-11-02 12:37:45.073222,0:00:04.087234,6,right,1,1.00110830988433,23,m,2,20,2018_Nov_02_1212,MP_PerceptionTuring2,59.93157373197858,
234,resources/videos_generated\model(vcgpdm)-dataset(walking)-mode(ELBO)-parts(2)-dyn(25)-lvm(22)_final(0).mov,resources/videos_natural\training(17).mov,False,False,right,0,233,233,233,2018-11-02 12:37:47.192343,2018-11-02 12:37:51.278577,0:00:04.086234,6,right,1,0.4506719279261233,23,m,2,20,2018_Nov_02_1212,MP_PerceptionTuring2,59.93157373197858,
235,resources/videos_generated\model(vcgpdm)-dataset(walking)-mode(ELBO)-parts(2)-dyn(23)-lvm(22)_final(6).mov,resources/videos_natural\training(25).mov,False,False,right,0,234,234,234,2018-11-02 12:37:52.846666,2018-11-02 12:37:56.966902,0:00:04.120236,6,right,1,0.9510250511161757,23,m,2,20,2018_Nov_02_1212,MP_PerceptionTuring2,59.93157373197858,
236,resources/videos_generated\model(tmp)-dataset(walking)-numprim(13)_final(5).mov,resources/videos_natural\training(24).mov,True,False,right,0,235,235,235,2018-11-02 12:37:59.035020,2018-11-02 12:38:03.140255,0:00:04.105235,6,left,0,0.4673992755629115,23,m,2,20,2018_Nov_02_1212,MP_PerceptionTuring2,59.93157373197858,
237,resources/videos_generated\model(tmp)-dataset(walking)-numprim(13)_final(7).mov,resources/videos_natural\training(42).mov,True,True,left,0,236,236,236,2018-11-02 12:38:04.723346,2018-11-02 12:38:08.827580,0:00:04.104234,6,right,0,0.4005483122214173,23,m,2,20,2018_Nov_02_1212,MP_PerceptionTuring2,59.93157373197858,
238,resources/videos_generated\model(vcgpdm)-dataset(walking)-mode(ELBO)-parts(1)-dyn(23)-lvm(28)_final(3)_hip-corrected.mov,resources/videos_natural\training(0).mov,False,True,left,0,237,237,237,2018-11-02 12:38:10.345667,2018-11-02 12:38:14.265891,0:00:03.920224,6,left,1,0.15022297207133306,23,m,2,20,2018_Nov_02_1212,MP_PerceptionTuring2,59.93157373197858,
239,resources/videos_generated\model(vcgpdm)-dataset(walking)-mode(ELBO)-parts(2)-dyn(28)-lvm(19)_final(4).mov,resources/videos_natural\training(30).mov,False,True,left,0,238,238,238,2018-11-02 12:38:15.532964,2018-11-02 12:38:19.620198,0:00:04.087234,6,left,1,0.6177442219559452,23,m,2,20,2018_Nov_02_1212,MP_PerceptionTuring2,59.93157373197858,
240,resources/videos_generated\model(tmp)-dataset(walking)-numprim(14)_final(5).mov,resources/videos_natural\training(2).mov,False,True,left,0,239,239,239,2018-11-02 12:38:21.354297,2018-11-02 12:38:25.308523,0:00:03.954226,6,right,0,0.2504409898774611,23,m,2,20,2018_Nov_02_1212,MP_PerceptionTuring2,59.93157373197858,
241,resources/videos_generated\model(vcgpdm)-dataset(walking)-mode(ELBO)-parts(2)-dyn(28)-lvm(21)_final(6).mov,resources/videos_natural\training(5).mov,True,True,left,0,240,240,240,2018-11-02 12:38:26.675601,2018-11-02 12:38:30.779836,0:00:04.104235,6,left,1,0.30044022189076713,23,m,2,20,2018_Nov_02_1212,MP_PerceptionTuring2,59.93157373197858,
242,resources/videos_generated\model(vcgpdm)-dataset(walking)-mode(ELBO)-parts(1)-dyn(24)-lvm(25)_final(3).mov,resources/videos_natural\training(2).mov,True,True,left,0,241,241,241,2018-11-02 12:38:32.197917,2018-11-02 12:38:36.284151,0:00:04.086234,6,left,1,0.550686655195932,23,m,2,20,2018_Nov_02_1212,MP_PerceptionTuring2,59.93157373197858,
243,resources/videos_generated\model(vcgpdm)-dataset(walking)-mode(ELBO)-parts(2)-dyn(28)-lvm(21)_final(0).mov,resources/videos_natural\training(41).mov,True,False,right,0,242,242,242,2018-11-02 12:38:37.952246,2018-11-02 12:38:42.039480,0:00:04.087234,6,right,1,0.6007331710820836,23,m,2,20,2018_Nov_02_1212,MP_PerceptionTuring2,59.93157373197858,
244,resources/videos_generated\model(tmp)-dataset(walking)-numprim(12)_final(9).mov,resources/videos_natural\training(39).mov,True,False,right,0,243,243,243,2018-11-02 12:38:43.757578,2018-11-02 12:38:47.860813,0:00:04.103235,6,left,0,0.36721498892757154,23,m,2,20,2018_Nov_02_1212,MP_PerceptionTuring2,59.93157373197858,
245,resources/videos_generated\model(vcgpdm)-dataset(walking)-mode(ELBO)-parts(2)-dyn(28)-lvm(17)_final(0).mov,resources/videos_natural\training(2).mov,True,False,right,0,244,244,244,2018-11-02 12:38:49.345898,2018-11-02 12:38:53.282123,0:00:03.936225,6,right,1,0.3005600880142083,23,m,2,20,2018_Nov_02_1212,MP_PerceptionTuring2,59.93157373197858,
246,resources/videos_generated\model(dmp)-dataset(walking)-npsi(80)_final(1).mov,resources/videos_natural\training(28).mov,False,True,left,0,245,245,245,2018-11-02 12:38:54.700204,2018-11-02 12:38:58.637429,0:00:03.937225,6,left,1,0.03364051788184952,23,m,2,20,2018_Nov_02_1212,MP_PerceptionTuring2,59.93157373197858,
247,resources/videos_generated\model(vcgpdm)-dataset(walking)-mode(ELBO)-parts(2)-dyn(22)-lvm(17)_final(6).mov,resources/videos_natural\training(11).mov,False,True,left,0,246,246,246,2018-11-02 12:38:59.787495,2018-11-02 12:39:03.874729,0:00:04.087234,6,right,0,1.4681762971667922,23,m,2,20,2018_Nov_02_1212,MP_PerceptionTuring2,59.93157373197858,
248,resources/videos_generated\model(dmp)-dataset(walking)-npsi(80)_final(9).mov,resources/videos_natural\training(45).mov,False,False,right,0,247,247,247,2018-11-02 12:39:06.459877,2018-11-02 12:39:10.564112,0:00:04.104235,6,right,1,0.23374165115865253,23,m,2,20,2018_Nov_02_1212,MP_PerceptionTuring2,59.93157373197858,
249,resources/videos_generated\model(dmp)-dataset(walking)-npsi(90)_final(9).mov,resources/videos_natural\training(29).mov,True,True,left,0,248,248,248,2018-11-02 12:39:11.915189,2018-11-02 12:39:16.035424,0:00:04.120235,6,right,0,0.3673267234294144,23,m,2,20,2018_Nov_02_1212,MP_PerceptionTuring2,59.93157373197858,
250,resources/videos_generated\model(vcgpdm)-dataset(walking)-mode(ELBO)-parts(1)-dyn(28)-lvm(27)_final(0).mov,resources/videos_natural\training(25).mov,False,True,left,0,249,249,249,2018-11-02 12:39:17.519509,2018-11-02 12:39:21.639745,0:00:04.120236,6,left,1,0.7176791388674246,23,m,2,20,2018_Nov_02_1212,MP_PerceptionTuring2,59.93157373197858,
251,resources/videos_generated\model(vcgpdm)-dataset(walking)-mode(ELBO)-parts(2)-dyn(27)-lvm(22)_final(4).mov,resources/videos_natural\training(44).mov,False,True,left,0,250,250,250,2018-11-02 12:39:23.474850,2018-11-02 12:39:27.412075,0:00:03.937225,6,left,1,0.4342978540648801,23,m,2,20,2018_Nov_02_1212,MP_PerceptionTuring2,59.93157373197858,
252,resources/videos_generated\model(vcgpdm)-dataset(walking)-mode(ELBO)-parts(2)-dyn(27)-lvm(18)_final(6).mov,resources/videos_natural\training(29).mov,True,True,left,0,251,251,251,2018-11-02 12:39:28.963164,2018-11-02 12:39:33.083400,0:00:04.120236,6,left,1,0.7509070522542061,23,m,2,20,2018_Nov_02_1212,MP_PerceptionTuring2,59.93157373197858,
253,resources/videos_generated\model(tmp)-dataset(walking)-numprim(15)_final(1).mov,resources/videos_natural\training(2).mov,False,False,right,0,252,252,252,2018-11-02 12:39:34.951506,2018-11-02 12:39:39.038740,0:00:04.087234,6,left,0,0.4006181839317833,23,m,2,20,2018_Nov_02_1212,MP_PerceptionTuring2,59.93157373197858,
254,resources/videos_generated\model(vcgpdm)-dataset(walking)-mode(ELBO)-parts(1)-dyn(28)-lvm(23)_final(0).mov,resources/videos_natural\training(21).mov,True,False,right,0,253,253,253,2018-11-02 12:39:40.556827,2018-11-02 12:39:44.677063,0:00:04.120236,6,right,1,0.23376213079791341,23,m,2,20,2018_Nov_02_1212,MP_PerceptionTuring2,59.93157373197858,
255,resources/videos_generated\model(dmp)-dataset(walking)-npsi(80)_final(7).mov,resources/videos_natural\training(45).mov,True,False,right,0,254,254,254,2018-11-02 12:39:46.028140,2018-11-02 12:39:49.948364,0:00:03.920224,6,right,1,0.35054064741552793,23,m,2,20,2018_Nov_02_1212,MP_PerceptionTuring2,59.93157373197858,
256,resources/videos_generated\model(vcgpdm)-dataset(walking)-mode(ELBO)-parts(2)-dyn(24)-lvm(21)_final(2).mov,resources/videos_natural\training(47).mov,True,False,right,0,255,255,255,2018-11-02 12:39:51.416448,2018-11-02 12:39:55.486681,0:00:04.070233,6,right,1,0.4005724059147724,23,m,2,20,2018_Nov_02_1212,MP_PerceptionTuring2,59.93157373197858,
257,resources/videos_generated\model(vcgpdm)-dataset(walking)-mode(ELBO)-parts(2)-dyn(28)-lvm(19)_final(6).mov,resources/videos_natural\training(32).mov,True,True,left,0,256,256,256,2018-11-02 12:39:57.003768,2018-11-02 12:40:01.124003,0:00:04.120235,6,left,1,0.14995914613155037,23,m,2,20,2018_Nov_02_1212,MP_PerceptionTuring2,59.93157373197858,
258,resources/videos_generated\model(vcgpdm)-dataset(walking)-mode(ELBO)-parts(2)-dyn(22)-lvm(17)_final(4).mov,resources/videos_natural\training(43).mov,False,True,left,0,257,257,257,2018-11-02 12:40:02.392076,2018-11-02 12:40:06.479310,0:00:04.087234,6,left,1,0.3005510528796549,23,m,2,20,2018_Nov_02_1212,MP_PerceptionTuring2,59.93157373197858,
259,resources/videos_generated\model(vcgpdm)-dataset(walking)-mode(ELBO)-parts(1)-dyn(27)-lvm(26)_final(4).mov,resources/videos_natural\training(22).mov,False,False,right,0,258,258,258,2018-11-02 12:40:07.897391,2018-11-02 12:40:11.866618,0:00:03.969227,6,right,1,0.3172034088961482,23,m,2,20,2018_Nov_02_1212,MP_PerceptionTuring2,59.93157373197858,
260,resources/videos_generated\model(vcgpdm)-dataset(walking)-mode(ELBO)-parts(2)-dyn(28)-lvm(21)_final(2).mov,resources/videos_natural\training(10).mov,True,True,left,0,259,259,259,2018-11-02 12:40:13.301700,2018-11-02 12:40:17.387934,0:00:04.086234,6,left,1,0.3171392594381359,23,m,2,20,2018_Nov_02_1212,MP_PerceptionTuring2,59.93157373197858,
261,resources/videos_generated\model(vcgpdm)-dataset(walking)-mode(ELBO)-parts(2)-dyn(26)-lvm(19)_final(4).mov,resources/videos_natural\training(29).mov,False,True,left,0,260,260,260,2018-11-02 12:40:18.823016,2018-11-02 12:40:22.743240,0:00:03.920224,6,left,1,0.30066188386763315,23,m,2,20,2018_Nov_02_1212,MP_PerceptionTuring2,59.93157373197858,
262,resources/videos_generated\model(vcgpdm)-dataset(walking)-mode(ELBO)-parts(2)-dyn(23)-lvm(20)_final(8).mov,resources/videos_natural\training(20).mov,False,False,right,0,261,261,261,2018-11-02 12:40:24.161321,2018-11-02 12:40:28.064544,0:00:03.903223,6,right,1,0.30042486216143516,23,m,2,20,2018_Nov_02_1212,MP_PerceptionTuring2,59.93157373197858,
263,resources/videos_generated\model(vcgpdm)-dataset(walking)-mode(ELBO)-parts(2)-dyn(26)-lvm(21)_final(6).mov,resources/videos_natural\training(44).mov,True,True,left,0,262,262,262,2018-11-02 12:40:29.482625,2018-11-02 12:40:33.602861,0:00:04.120236,6,left,1,0.5172506325347968,23,m,2,20,2018_Nov_02_1212,MP_PerceptionTuring2,59.93157373197858,
264,resources/videos_generated\model(tmp)-dataset(walking)-numprim(14)_final(9).mov,resources/videos_natural\training(37).mov,False,False,right,0,263,263,263,2018-11-02 12:40:35.236955,2018-11-02 12:40:39.307187,0:00:04.070232,6,left,0,0.45059964684651277,23,m,2,20,2018_Nov_02_1212,MP_PerceptionTuring2,59.93157373197858,
265,resources/videos_generated\model(vcgpdm)-dataset(walking)-mode(ELBO)-parts(2)-dyn(24)-lvm(23)_final(4).mov,resources/videos_natural\training(5).mov,True,True,left,0,264,264,264,2018-11-02 12:40:40.875277,2018-11-02 12:40:44.995513,0:00:04.120236,6,left,1,0.6507116222851437,23,m,2,20,2018_Nov_02_1212,MP_PerceptionTuring2,59.93157373197858,
266,resources/videos_generated\model(vcgpdm)-dataset(walking)-mode(ELBO)-parts(2)-dyn(26)-lvm(19)_final(0).mov,resources/videos_natural\training(16).mov,True,False,right,0,265,265,265,2018-11-02 12:40:46.763614,2018-11-02 12:40:50.850848,0:00:04.087234,6,right,1,0.2504801421287084,23,m,2,20,2018_Nov_02_1212,MP_PerceptionTuring2,59.93157373197858,
267,resources/videos_generated\model(vcgpdm)-dataset(walking)-mode(ELBO)-parts(1)-dyn(26)-lvm(23)_final(4)_fail.mov,resources/videos_natural\training(37).mov,True,False,right,0,266,266,266,2018-11-02 12:40:52.218926,2018-11-02 12:40:56.305160,0:00:04.086234,6,right,1,0.26709455057880405,23,m,2,20,2018_Nov_02_1212,MP_PerceptionTuring2,59.93157373197858,
268,resources/videos_generated\model(dmp)-dataset(walking)-npsi(50)_final(7).mov,resources/videos_natural\training(10).mov,False,True,left,0,267,267,267,2018-11-02 12:40:57.690239,2018-11-02 12:41:01.593462,0:00:03.903223,6,left,1,0.2838234040714269,23,m,2,20,2018_Nov_02_1212,MP_PerceptionTuring2,59.93157373197858,
269,resources/videos_generated\model(vcgpdm)-dataset(walking)-mode(ELBO)-parts(2)-dyn(25)-lvm(20)_final(6).mov,resources/videos_natural\training(8).mov,True,True,left,0,268,268,268,2018-11-02 12:41:02.994542,2018-11-02 12:41:06.897765,0:00:03.903223,6,left,1,0.2838860476736045,23,m,2,20,2018_Nov_02_1212,MP_PerceptionTuring2,59.93157373197858,
270,resources/videos_generated\model(vcgpdm)-dataset(walking)-mode(ELBO)-parts(2)-dyn(24)-lvm(19)_final(8).mov,resources/videos_natural\training(32).mov,True,False,right,0,269,269,269,2018-11-02 12:41:08.298846,2018-11-02 12:41:12.219070,0:00:03.920224,6,right,1,0.13365976271916225,23,m,2,20,2018_Nov_02_1212,MP_PerceptionTuring2,59.93157373197858,
271,resources/videos_generated\model(vcgpdm)-dataset(walking)-mode(ELBO)-parts(1)-dyn(27)-lvm(22)_final(8).mov,resources/videos_natural\training(8).mov,False,True,left,0,270,270,270,2018-11-02 12:41:45.180955,2018-11-02 12:41:49.118180,0:00:03.937225,7,left,1,0.2503873814102917,23,m,2,20,2018_Nov_02_1212,MP_PerceptionTuring2,59.93157373197858,
272,resources/videos_generated\model(vcgpdm)-dataset(walking)-mode(ELBO)-parts(1)-dyn(26)-lvm(25)_final(8).mov,resources/videos_natural\training(16).mov,False,False,right,0,271,271,271,2018-11-02 12:41:50.485259,2018-11-02 12:41:54.405483,0:00:03.920224,7,right,1,0.4839010459977544,23,m,2,20,2018_Nov_02_1212,MP_PerceptionTuring2,59.93157373197858,
273,resources/videos_generated\model(vcgpdm)-dataset(walking)-mode(ELBO)-parts(2)-dyn(26)-lvm(17)_final(4).mov,resources/videos_natural\training(10).mov,True,False,right,0,272,272,272,2018-11-02 12:41:56.006574,2018-11-02 12:41:59.910798,0:00:03.904224,7,right,1,0.5007509702982134,23,m,2,20,2018_Nov_02_1212,MP_PerceptionTuring2,59.93157373197858,
274,resources/videos_generated\model(vcgpdm)-dataset(walking)-mode(ELBO)-parts(1)-dyn(23)-lvm(22)_final(8)_fail.mov,resources/videos_natural\training(40).mov,False,False,right,0,273,273,273,2018-11-02 12:42:01.528890,2018-11-02 12:42:05.632125,0:00:04.103235,7,right,1,0.2671436414789241,23,m,2,20,2018_Nov_02_1212,MP_PerceptionTuring2,59.93157373197858,
275,resources/videos_generated\model(vcgpdm)-dataset(walking)-mode(ELBO)-parts(1)-dyn(27)-lvm(22)_final(6).mov,resources/videos_natural\training(12).mov,True,False,right,0,274,274,274,2018-11-02 12:42:07.016204,2018-11-02 12:42:11.120439,0:00:04.104235,7,right,1,0.2673291629162122,23,m,2,20,2018_Nov_02_1212,MP_PerceptionTuring2,59.93157373197858,
276,resources/videos_generated\model(vcgpdm)-dataset(walking)-mode(ELBO)-parts(2)-dyn(24)-lvm(17)_final(2).mov,resources/videos_natural\training(17).mov,False,False,right,0,275,275,275,2018-11-02 12:42:12.504518,2018-11-02 12:42:16.591752,0:00:04.087234,7,right,1,0.18368640130893255,23,m,2,20,2018_Nov_02_1212,MP_PerceptionTuring2,59.93157373197858,
277,resources/videos_generated\model(vcgpdm)-dataset(walking)-mode(ELBO)-parts(1)-dyn(27)-lvm(28)_final(8).mov,resources/videos_natural\training(27).mov,False,False,right,0,276,276,276,2018-11-02 12:42:17.892826,2018-11-02 12:42:21.996061,0:00:04.103235,7,right,1,0.2504295453732084,23,m,2,20,2018_Nov_02_1212,MP_PerceptionTuring2,59.93157373197858,
278,resources/videos_generated\model(vcgpdm)-dataset(walking)-mode(ELBO)-parts(1)-dyn(23)-lvm(24)_final(2).mov,resources/videos_natural\training(44).mov,True,False,right,0,277,277,277,2018-11-02 12:42:23.364139,2018-11-02 12:42:27.467374,0:00:04.103235,7,right,1,0.7509311459471064,23,m,2,20,2018_Nov_02_1212,MP_PerceptionTuring2,59.93157373197858,
279,resources/videos_generated\model(vcgpdm)-dataset(walking)-mode(ELBO)-parts(1)-dyn(27)-lvm(26)_final(6).mov,resources/videos_natural\training(27).mov,True,True,left,0,278,278,278,2018-11-02 12:42:29.335481,2018-11-02 12:42:33.439715,0:00:04.104234,7,left,1,0.3339930989641289,23,m,2,20,2018_Nov_02_1212,MP_PerceptionTuring2,59.93157373197858,
280,resources/videos_generated\model(vcgpdm)-dataset(walking)-mode(ELBO)-parts(1)-dyn(22)-lvm(25)_final(5).mov,resources/videos_natural\training(19).mov,True,True,left,0,279,279,279,2018-11-02 12:42:34.890798,2018-11-02 12:42:38.811023,0:00:03.920225,7,left,1,0.25043075005805804,23,m,2,20,2018_Nov_02_1212,MP_PerceptionTuring2,59.93157373197858,
281,resources/videos_generated\model(vcgpdm)-dataset(walking)-mode(ELBO)-parts(1)-dyn(25)-lvm(26)_final(5).mov,resources/videos_natural\training(38).mov,True,True,left,0,280,280,280,2018-11-02 12:42:40.178101,2018-11-02 12:42:44.115326,0:00:03.937225,7,right,0,0.4339737938921644,23,m,2,20,2018_Nov_02_1212,MP_PerceptionTuring2,59.93157373197858,
282,resources/videos_generated\model(vcgpdm)-dataset(walking)-mode(ELBO)-parts(2)-dyn(25)-lvm(18)_final(2).mov,resources/videos_natural\training(31).mov,False,True,left,0,281,281,281,2018-11-02 12:42:45.666415,2018-11-02 12:42:49.770649,0:00:04.104234,7,left,1,0.4675501623164564,23,m,2,20,2018_Nov_02_1212,MP_PerceptionTuring2,59.93157373197858,
283,resources/videos_generated\model(vcgpdm)-dataset(walking)-mode(ELBO)-parts(1)-dyn(26)-lvm(22)_final(2).mov,resources/videos_natural\training(18).mov,True,True,left,0,282,282,282,2018-11-02 12:42:51.354740,2018-11-02 12:42:55.474976,0:00:04.120236,7,right,0,0.1335483293883044,23,m,2,20,2018_Nov_02_1212,MP_PerceptionTuring2,59.93157373197858,
284,resources/videos_generated\model(vcgpdm)-dataset(walking)-mode(ELBO)-parts(2)-dyn(22)-lvm(19)_final(8).mov,resources/videos_natural\training(7).mov,True,False,right,0,283,283,283,2018-11-02 12:42:56.726047,2018-11-02 12:43:00.629271,0:00:03.903224,7,right,1,0.2503265448349339,23,m,2,20,2018_Nov_02_1212,MP_PerceptionTuring2,59.93157373197858,
285,resources/videos_generated\model(dmp)-dataset(walking)-npsi(80)_final(5).mov,resources/videos_natural\training(13).mov,True,False,right,0,284,284,284,2018-11-02 12:43:01.997349,2018-11-02 12:43:06.117584,0:00:04.120235,7,left,0,0.18372434887533018,23,m,2,20,2018_Nov_02_1212,MP_PerceptionTuring2,59.93157373197858,
286,resources/videos_generated\model(vcgpdm)-dataset(walking)-mode(ELBO)-parts(1)-dyn(23)-lvm(24)_final(0).mov,resources/videos_natural\training(39).mov,False,False,right,0,285,285,285,2018-11-02 12:43:07.418659,2018-11-02 12:43:11.505893,0:00:04.087234,7,right,1,0.300441125404177,23,m,2,20,2018_Nov_02_1212,MP_PerceptionTuring2,59.93157373197858,
287,resources/videos_generated\model(vcgpdm)-dataset(walking)-mode(ELBO)-parts(1)-dyn(26)-lvm(23)_final(6)_fail.mov,resources/videos_natural\training(27).mov,True,False,right,0,286,286,286,2018-11-02 12:43:12.923974,2018-11-02 12:43:17.027208,0:00:04.103234,7,right,1,0.3005760500859651,23,m,2,20,2018_Nov_02_1212,MP_PerceptionTuring2,59.93157373197858,
288,resources/videos_generated\model(dmp)-dataset(walking)-npsi(100)_final(1).mov,resources/videos_natural\training(15).mov,False,True,left,0,287,287,287,2018-11-02 12:43:18.445290,2018-11-02 12:43:22.531523,0:00:04.086233,7,right,0,0.3671791495589787,23,m,2,20,2018_Nov_02_1212,MP_PerceptionTuring2,59.93157373197858,
289,resources/videos_generated\model(vcgpdm)-dataset(walking)-mode(ELBO)-parts(1)-dyn(23)-lvm(26)_final(4)_hip-corrected.mov,resources/videos_natural\training(19).mov,False,True,left,0,288,288,288,2018-11-02 12:43:24.016608,2018-11-02 12:43:28.136844,0:00:04.120236,7,left,1,0.31732749141565364,23,m,2,20,2018_Nov_02_1212,MP_PerceptionTuring2,59.93157373197858,
290,resources/videos_generated\model(vcgpdm)-dataset(walking)-mode(ELBO)-parts(2)-dyn(24)-lvm(21)_final(8).mov,resources/videos_natural\training(0).mov,True,True,left,0,289,289,289,2018-11-02 12:43:29.570926,2018-11-02 12:43:33.491150,0:00:03.920224,7,left,1,0.23371544926749266,23,m,2,20,2018_Nov_02_1212,MP_PerceptionTuring2,59.93157373197858,
291,resources/videos_generated\model(dmp)-dataset(walking)-npsi(60)_final(9).mov,resources/videos_natural\training(42).mov,False,True,left,0,290,290,290,2018-11-02 12:43:34.842227,2018-11-02 12:43:38.946462,0:00:04.104235,7,right,0,0.26696414346452,23,m,2,20,2018_Nov_02_1212,MP_PerceptionTuring2,59.93157373197858,
