n_trial,mov_file_generated,mov_file_natural,mirrored,switch_stim_pos,correct_answer,trials.thisRepN,trials.thisTrialN,trials.thisN,trials.thisIndex,stimulus_onset,stimulus_off,stimulus_length,block,response.keys,response.corr,response.rt,age,gender,condition,participant,date,expName,frameRate,
1,resources/videos_generated\model(vcgpdm)-dataset(walking)-mode(ELBO)-parts(2)-dyn(28)-lvm(21)_final(3).mov,resources/videos_natural\training(22).mov,False,True,left,0,0,0,0,2018-11-02 15:10:55.106684,2018-11-02 15:10:59.743950,0:00:04.637266,1,right,0,3.1527927402635214,24,m,1,21,2018_Nov_02_1509,MP_PerceptionTuring2,59.950834530955156,
2,resources/videos_generated\model(vcgpdm)-dataset(walking)-mode(ELBO)-parts(2)-dyn(28)-lvm(17)_final(7).mov,resources/videos_natural\training(41).mov,False,True,left,0,1,1,1,2018-11-02 15:11:04.014194,2018-11-02 15:11:07.951419,0:00:03.937225,1,left,1,0.8343914073889209,24,m,1,21,2018_Nov_02_1509,MP_PerceptionTuring2,59.950834530955156,
3,resources/videos_generated\model(vcgpdm)-dataset(walking)-mode(ELBO)-parts(2)-dyn(27)-lvm(20)_final(1).mov,resources/videos_natural\training(36).mov,False,False,right,0,2,2,2,2018-11-02 15:11:09.902531,2018-11-02 15:11:13.855757,0:00:03.953226,1,right,1,0.584018629412185,24,m,1,21,2018_Nov_02_1509,MP_PerceptionTuring2,59.950834530955156,
4,resources/videos_generated\model(tmp)-dataset(walking)-numprim(12)_final(4).mov,resources/videos_natural\training(17).mov,True,True,left,0,3,3,3,2018-11-02 15:11:15.557854,2018-11-02 15:11:19.644088,0:00:04.086234,1,left,1,0.8675172218754597,24,m,1,21,2018_Nov_02_1509,MP_PerceptionTuring2,59.950834530955156,
5,resources/videos_generated\model(vcgpdm)-dataset(walking)-mode(ELBO)-parts(2)-dyn(26)-lvm(17)_final(3).mov,resources/videos_natural\training(13).mov,False,True,left,0,4,4,4,2018-11-02 15:11:21.629201,2018-11-02 15:11:25.716435,0:00:04.087234,1,left,1,0.6674001254687028,24,m,1,21,2018_Nov_02_1509,MP_PerceptionTuring2,59.950834530955156,
6,resources/videos_generated\model(vcgpdm)-dataset(walking)-mode(ELBO)-parts(1)-dyn(23)-lvm(26)_final(7).mov,resources/videos_natural\training(39).mov,True,False,right,0,5,5,5,2018-11-02 15:11:27.501537,2018-11-02 15:11:31.571770,0:00:04.070233,1,right,1,0.5840517585393172,24,m,1,21,2018_Nov_02_1509,MP_PerceptionTuring2,59.950834530955156,
7,resources/videos_generated\model(vcgpdm)-dataset(walking)-mode(ELBO)-parts(1)-dyn(25)-lvm(26)_final(8).mov,resources/videos_natural\training(23).mov,False,True,left,0,6,6,6,2018-11-02 15:11:33.272867,2018-11-02 15:11:37.343100,0:00:04.070233,1,right,0,0.6842417691441369,24,m,1,21,2018_Nov_02_1509,MP_PerceptionTuring2,59.950834530955156,
8,resources/videos_generated\model(vcgpdm)-dataset(walking)-mode(ELBO)-parts(2)-dyn(22)-lvm(17)_final(5).mov,resources/videos_natural\training(35).mov,False,False,right,0,7,7,7,2018-11-02 15:11:39.144203,2018-11-02 15:11:43.248438,0:00:04.104235,1,left,0,0.6007328765326747,24,m,1,21,2018_Nov_02_1509,MP_PerceptionTuring2,59.950834530955156,
9,resources/videos_generated\model(vcgpdm)-dataset(walking)-mode(ELBO)-parts(2)-dyn(28)-lvm(17)_final(9).mov,resources/videos_natural\training(46).mov,False,True,left,0,8,8,8,2018-11-02 15:11:44.966536,2018-11-02 15:11:49.052770,0:00:04.086234,1,left,1,0.5339553979547418,24,m,1,21,2018_Nov_02_1509,MP_PerceptionTuring2,59.950834530955156,
10,resources/videos_generated\model(vcgpdm)-dataset(walking)-mode(ELBO)-parts(2)-dyn(27)-lvm(22)_final(5).mov,resources/videos_natural\training(33).mov,True,False,right,0,9,9,9,2018-11-02 15:11:50.704864,2018-11-02 15:11:54.791098,0:00:04.086234,1,right,1,0.5173384299987447,24,m,1,21,2018_Nov_02_1509,MP_PerceptionTuring2,59.950834530955156,
11,resources/videos_generated\model(vcgpdm)-dataset(walking)-mode(ELBO)-parts(1)-dyn(23)-lvm(28)_final(6)_hip-corrected.mov,resources/videos_natural\training(9).mov,True,True,left,0,10,10,10,2018-11-02 15:11:56.426192,2018-11-02 15:12:00.479423,0:00:04.053231,1,left,1,0.6006964344924199,24,m,1,21,2018_Nov_02_1509,MP_PerceptionTuring2,59.950834530955156,
12,resources/videos_generated\model(vcgpdm)-dataset(walking)-mode(ELBO)-parts(1)-dyn(25)-lvm(25)_final(2).mov,resources/videos_natural\training(7).mov,True,True,left,0,11,11,11,2018-11-02 15:12:02.197522,2018-11-02 15:12:06.284755,0:00:04.087233,1,left,1,0.3672478218350079,24,m,1,21,2018_Nov_02_1509,MP_PerceptionTuring2,59.950834530955156,
13,resources/videos_generated\model(tmp)-dataset(walking)-numprim(12)_final(6).mov,resources/videos_natural\training(24).mov,True,False,right,0,12,12,12,2018-11-02 15:12:07.768840,2018-11-02 15:12:11.839073,0:00:04.070233,1,left,0,0.4839258979727674,24,m,1,21,2018_Nov_02_1509,MP_PerceptionTuring2,59.950834530955156,
14,resources/videos_generated\model(vcgpdm)-dataset(walking)-mode(ELBO)-parts(2)-dyn(28)-lvm(21)_final(5).mov,resources/videos_natural\training(10).mov,True,True,left,0,13,13,13,2018-11-02 15:12:13.441165,2018-11-02 15:12:17.527398,0:00:04.086233,1,right,0,0.3839343609588468,24,m,1,21,2018_Nov_02_1509,MP_PerceptionTuring2,59.950834530955156,
15,resources/videos_generated\model(vcgpdm)-dataset(walking)-mode(ELBO)-parts(1)-dyn(23)-lvm(26)_final(5)_hip-corrected.mov,resources/videos_natural\training(5).mov,False,False,right,0,14,14,14,2018-11-02 15:12:19.029484,2018-11-02 15:12:22.932708,0:00:03.903224,1,right,1,0.3838684038782958,24,m,1,21,2018_Nov_02_1509,MP_PerceptionTuring2,59.950834530955156,
16,resources/videos_generated\model(vcgpdm)-dataset(walking)-mode(ELBO)-parts(2)-dyn(23)-lvm(18)_final(5).mov,resources/videos_natural\training(32).mov,True,True,left,0,15,15,15,2018-11-02 15:12:24.433794,2018-11-02 15:12:28.521027,0:00:04.087233,1,right,0,0.5507133152887036,24,m,1,21,2018_Nov_02_1509,MP_PerceptionTuring2,59.950834530955156,
17,resources/videos_generated\model(vcgpdm)-dataset(walking)-mode(ELBO)-parts(2)-dyn(28)-lvm(17)_final(3).mov,resources/videos_natural\training(31).mov,True,True,left,0,16,16,16,2018-11-02 15:12:30.189123,2018-11-02 15:12:34.292357,0:00:04.103234,1,left,1,0.4339512116375772,24,m,1,21,2018_Nov_02_1509,MP_PerceptionTuring2,59.950834530955156,
18,resources/videos_generated\model(vcgpdm)-dataset(walking)-mode(ELBO)-parts(1)-dyn(22)-lvm(28)_final(0).mov,resources/videos_natural\training(30).mov,False,False,right,0,17,17,17,2018-11-02 15:12:35.843446,2018-11-02 15:12:39.947681,0:00:04.104235,1,right,1,0.2838491588663601,24,m,1,21,2018_Nov_02_1509,MP_PerceptionTuring2,59.950834530955156,
19,resources/videos_generated\model(vcgpdm)-dataset(walking)-mode(ELBO)-parts(1)-dyn(22)-lvm(27)_final(0)_hip-correted.mov,resources/videos_natural\training(22).mov,True,False,right,0,18,18,18,2018-11-02 15:12:41.348761,2018-11-02 15:12:45.334989,0:00:03.986228,1,left,0,0.8010047763164039,24,m,1,21,2018_Nov_02_1509,MP_PerceptionTuring2,59.950834530955156,
20,resources/videos_generated\model(vcgpdm)-dataset(walking)-mode(ELBO)-parts(1)-dyn(23)-lvm(22)_final(1)_fail.mov,resources/videos_natural\training(19).mov,True,False,right,0,19,19,19,2018-11-02 15:12:47.253099,2018-11-02 15:12:51.340332,0:00:04.087233,1,right,1,0.3005926198547968,24,m,1,21,2018_Nov_02_1509,MP_PerceptionTuring2,59.950834530955156,
21,resources/videos_generated\model(dmp)-dataset(walking)-npsi(80)_final(8).mov,resources/videos_natural\training(11).mov,True,False,right,0,20,20,20,2018-11-02 15:12:52.758414,2018-11-02 15:12:56.678638,0:00:03.920224,1,right,1,0.8175925304058183,24,m,1,21,2018_Nov_02_1509,MP_PerceptionTuring2,59.950834530955156,
22,resources/videos_generated\model(vcgpdm)-dataset(walking)-mode(ELBO)-parts(1)-dyn(27)-lvm(28)_final(9).mov,resources/videos_natural\training(46).mov,False,False,right,0,21,21,21,2018-11-02 15:12:58.612748,2018-11-02 15:13:02.549974,0:00:03.937226,1,right,1,0.43386989468854154,24,m,1,21,2018_Nov_02_1509,MP_PerceptionTuring2,59.950834530955156,
23,resources/videos_generated\model(vcgpdm)-dataset(walking)-mode(ELBO)-parts(1)-dyn(22)-lvm(22)_final(8).mov,resources/videos_natural\training(5).mov,False,True,left,0,22,22,22,2018-11-02 15:13:04.101062,2018-11-02 15:13:08.171295,0:00:04.070233,1,left,1,0.5172098287494009,24,m,1,21,2018_Nov_02_1509,MP_PerceptionTuring2,59.950834530955156,
24,resources/videos_generated\model(vcgpdm)-dataset(walking)-mode(ELBO)-parts(1)-dyn(23)-lvm(24)_final(1).mov,resources/videos_natural\training(11).mov,True,False,right,0,23,23,23,2018-11-02 15:13:09.806389,2018-11-02 15:13:13.692611,0:00:03.886222,1,right,1,0.33390215041163174,24,m,1,21,2018_Nov_02_1509,MP_PerceptionTuring2,59.950834530955156,
25,resources/videos_generated\model(vcgpdm)-dataset(walking)-mode(ELBO)-parts(2)-dyn(28)-lvm(23)_final(5).mov,resources/videos_natural\training(28).mov,False,False,right,0,24,24,24,2018-11-02 15:13:15.144694,2018-11-02 15:13:19.214927,0:00:04.070233,1,right,1,0.4337717120015441,24,m,1,21,2018_Nov_02_1509,MP_PerceptionTuring2,59.950834530955156,
26,resources/videos_generated\model(vcgpdm)-dataset(walking)-mode(ELBO)-parts(2)-dyn(23)-lvm(22)_final(7).mov,resources/videos_natural\training(1).mov,False,True,left,0,25,25,25,2018-11-02 15:13:20.766016,2018-11-02 15:13:24.702241,0:00:03.936225,1,left,1,0.40090430470900174,24,m,1,21,2018_Nov_02_1509,MP_PerceptionTuring2,59.950834530955156,
27,resources/videos_generated\model(vcgpdm)-dataset(walking)-mode(ELBO)-parts(1)-dyn(28)-lvm(23)_final(1).mov,resources/videos_natural\training(38).mov,False,False,right,0,26,26,26,2018-11-02 15:13:26.220327,2018-11-02 15:13:30.323562,0:00:04.103235,1,right,1,0.3003625230057878,24,m,1,21,2018_Nov_02_1509,MP_PerceptionTuring2,59.950834530955156,
28,resources/videos_generated\model(vcgpdm)-dataset(walking)-mode(ELBO)-parts(2)-dyn(25)-lvm(22)_final(7).mov,resources/videos_natural\training(26).mov,False,True,left,0,27,27,27,2018-11-02 15:13:31.741643,2018-11-02 15:13:35.828877,0:00:04.087234,1,left,1,0.23368714237494714,24,m,1,21,2018_Nov_02_1509,MP_PerceptionTuring2,59.950834530955156,
29,resources/videos_generated\model(vcgpdm)-dataset(walking)-mode(ELBO)-parts(2)-dyn(26)-lvm(19)_final(9).mov,resources/videos_natural\training(30).mov,True,True,left,0,28,28,28,2018-11-02 15:13:37.179954,2018-11-02 15:13:41.117180,0:00:03.937226,1,left,1,0.3005706341609766,24,m,1,21,2018_Nov_02_1509,MP_PerceptionTuring2,59.950834530955156,
30,resources/videos_generated\model(vcgpdm)-dataset(walking)-mode(ELBO)-parts(2)-dyn(26)-lvm(23)_final(1).mov,resources/videos_natural\training(1).mov,False,True,left,0,29,29,29,2018-11-02 15:13:42.534261,2018-11-02 15:13:46.604493,0:00:04.070232,1,left,1,0.3838735238341542,24,m,1,21,2018_Nov_02_1509,MP_PerceptionTuring2,59.950834530955156,
31,resources/videos_generated\model(vcgpdm)-dataset(walking)-mode(ELBO)-parts(1)-dyn(26)-lvm(27)_final(9).mov,resources/videos_natural\training(7).mov,True,False,right,0,30,30,30,2018-11-02 15:13:48.105579,2018-11-02 15:13:52.125809,0:00:04.020230,1,left,0,0.4340457802381934,24,m,1,21,2018_Nov_02_1509,MP_PerceptionTuring2,59.950834530955156,
32,resources/videos_generated\model(vcgpdm)-dataset(walking)-mode(ELBO)-parts(1)-dyn(28)-lvm(25)_final(7).mov,resources/videos_natural\training(48).mov,True,False,right,0,31,31,31,2018-11-02 15:13:53.677898,2018-11-02 15:13:57.581121,0:00:03.903223,1,left,0,0.3339280513655467,24,m,1,21,2018_Nov_02_1509,MP_PerceptionTuring2,59.950834530955156,
33,resources/videos_generated\model(vcgpdm)-dataset(walking)-mode(ELBO)-parts(2)-dyn(23)-lvm(18)_final(9).mov,resources/videos_natural\training(27).mov,False,False,right,0,32,32,32,2018-11-02 15:13:59.032204,2018-11-02 15:14:03.102437,0:00:04.070233,1,left,0,0.2835756929789568,24,m,1,21,2018_Nov_02_1509,MP_PerceptionTuring2,59.950834530955156,
34,resources/videos_generated\model(vcgpdm)-dataset(walking)-mode(ELBO)-parts(1)-dyn(27)-lvm(22)_final(3).mov,resources/videos_natural\training(42).mov,True,False,right,0,33,33,33,2018-11-02 15:14:04.503517,2018-11-02 15:14:08.623753,0:00:04.120236,1,left,0,0.28373923039816873,24,m,1,21,2018_Nov_02_1509,MP_PerceptionTuring2,59.950834530955156,
35,resources/videos_generated\model(vcgpdm)-dataset(walking)-mode(ELBO)-parts(2)-dyn(24)-lvm(23)_final(5).mov,resources/videos_natural\training(24).mov,True,True,left,0,34,34,34,2018-11-02 15:14:10.024833,2018-11-02 15:14:14.012061,0:00:03.987228,1,left,1,0.31716531524944,24,m,1,21,2018_Nov_02_1509,MP_PerceptionTuring2,59.950834530955156,
36,resources/videos_generated\model(vcgpdm)-dataset(walking)-mode(ELBO)-parts(1)-dyn(25)-lvm(22)_final(8).mov,resources/videos_natural\training(35).mov,False,False,right,0,35,35,35,2018-11-02 15:14:15.446143,2018-11-02 15:14:19.550378,0:00:04.104235,1,right,1,0.30107720863634313,24,m,1,21,2018_Nov_02_1509,MP_PerceptionTuring2,59.950834530955156,
37,resources/videos_generated\model(vcgpdm)-dataset(walking)-mode(ELBO)-parts(2)-dyn(23)-lvm(20)_final(9).mov,resources/videos_natural\training(26).mov,False,True,left,0,36,36,36,2018-11-02 15:14:20.967459,2018-11-02 15:14:24.904684,0:00:03.937225,1,left,1,0.3505067702380984,24,m,1,21,2018_Nov_02_1509,MP_PerceptionTuring2,59.950834530955156,
38,resources/videos_generated\model(tmp)-dataset(walking)-numprim(13)_final(8).mov,resources/videos_natural\training(10).mov,True,False,right,0,37,37,37,2018-11-02 15:14:26.372768,2018-11-02 15:14:30.308993,0:00:03.936225,1,left,0,0.3505658003196004,24,m,1,21,2018_Nov_02_1509,MP_PerceptionTuring2,59.950834530955156,
39,resources/videos_generated\model(dmp)-dataset(walking)-npsi(100)_final(6).mov,resources/videos_natural\training(16).mov,True,True,left,0,38,38,38,2018-11-02 15:14:31.777077,2018-11-02 15:14:35.864311,0:00:04.087234,1,right,0,0.4339692820713026,24,m,1,21,2018_Nov_02_1509,MP_PerceptionTuring2,59.950834530955156,
40,resources/videos_generated\model(vcgpdm)-dataset(walking)-mode(ELBO)-parts(1)-dyn(24)-lvm(25)_final(6).mov,resources/videos_natural\training(23).mov,True,True,left,0,39,39,39,2018-11-02 15:14:37.415400,2018-11-02 15:14:41.518634,0:00:04.103234,1,right,0,0.36745713768596033,24,m,1,21,2018_Nov_02_1509,MP_PerceptionTuring2,59.950834530955156,
41,resources/videos_generated\model(vcgpdm)-dataset(walking)-mode(ELBO)-parts(2)-dyn(22)-lvm(21)_final(1).mov,resources/videos_natural\training(42).mov,True,True,left,0,40,40,40,2018-11-02 15:14:43.003719,2018-11-02 15:14:47.039950,0:00:04.036231,1,left,1,0.484032513528291,24,m,1,21,2018_Nov_02_1509,MP_PerceptionTuring2,59.950834530955156,
42,resources/videos_generated\model(vcgpdm)-dataset(walking)-mode(ELBO)-parts(2)-dyn(25)-lvm(20)_final(9).mov,resources/videos_natural\training(26).mov,False,False,right,0,41,41,41,2018-11-02 15:14:48.642042,2018-11-02 15:14:52.745276,0:00:04.103234,1,right,1,0.21704909224717994,24,m,1,21,2018_Nov_02_1509,MP_PerceptionTuring2,59.950834530955156,
43,resources/videos_generated\model(vcgpdm)-dataset(walking)-mode(ELBO)-parts(2)-dyn(28)-lvm(23)_final(1).mov,resources/videos_natural\training(15).mov,True,True,left,0,42,42,42,2018-11-02 15:14:54.080353,2018-11-02 15:14:58.016578,0:00:03.936225,1,left,1,0.267173160828861,24,m,1,21,2018_Nov_02_1509,MP_PerceptionTuring2,59.950834530955156,
44,resources/videos_generated\model(tmp)-dataset(walking)-numprim(12)_final(2).mov,resources/videos_natural\training(31).mov,False,False,right,0,43,43,43,2018-11-02 15:14:59.400657,2018-11-02 15:15:03.320881,0:00:03.920224,1,right,1,0.21702439598811907,24,m,1,21,2018_Nov_02_1509,MP_PerceptionTuring2,59.950834530955156,
45,resources/videos_generated\model(vcgpdm)-dataset(walking)-mode(ELBO)-parts(2)-dyn(28)-lvm(21)_final(9).mov,resources/videos_natural\training(24).mov,True,False,right,0,44,44,44,2018-11-02 15:15:04.655958,2018-11-02 15:15:08.642186,0:00:03.986228,1,left,0,0.3006911037145983,24,m,1,21,2018_Nov_02_1509,MP_PerceptionTuring2,59.950834530955156,
46,resources/videos_generated\model(vcgpdm)-dataset(walking)-mode(ELBO)-parts(1)-dyn(27)-lvm(28)_final(1).mov,resources/videos_natural\training(25).mov,True,False,right,0,45,45,45,2018-11-02 15:15:42.922146,2018-11-02 15:15:47.025381,0:00:04.103235,2,right,1,0.3505242383234872,24,m,1,21,2018_Nov_02_1509,MP_PerceptionTuring2,59.950834530955156,
47,resources/videos_generated\model(vcgpdm)-dataset(walking)-mode(ELBO)-parts(1)-dyn(28)-lvm(27)_final(7).mov,resources/videos_natural\training(48).mov,True,True,left,0,46,46,46,2018-11-02 15:15:48.493465,2018-11-02 15:15:52.446691,0:00:03.953226,2,left,1,0.45051366712050367,24,m,1,21,2018_Nov_02_1509,MP_PerceptionTuring2,59.950834530955156,
48,resources/videos_generated\model(vcgpdm)-dataset(walking)-mode(ELBO)-parts(1)-dyn(27)-lvm(24)_final(9).mov,resources/videos_natural\training(40).mov,False,True,left,0,47,47,47,2018-11-02 15:15:54.014781,2018-11-02 15:15:57.952006,0:00:03.937225,2,left,1,0.2837386280507417,24,m,1,21,2018_Nov_02_1509,MP_PerceptionTuring2,59.950834530955156,
49,resources/videos_generated\model(vcgpdm)-dataset(walking)-mode(ELBO)-parts(1)-dyn(22)-lvm(23)_final(0).mov,resources/videos_natural\training(4).mov,True,False,right,0,48,48,48,2018-11-02 15:15:59.353086,2018-11-02 15:16:03.406318,0:00:04.053232,2,right,1,0.35060856701147713,24,m,1,21,2018_Nov_02_1509,MP_PerceptionTuring2,59.950834530955156,
50,resources/videos_generated\model(vcgpdm)-dataset(walking)-mode(ELBO)-parts(2)-dyn(23)-lvm(20)_final(3).mov,resources/videos_natural\training(6).mov,True,True,left,0,49,49,49,2018-11-02 15:16:04.874402,2018-11-02 15:16:08.978637,0:00:04.104235,2,left,1,0.3170186435663709,24,m,1,21,2018_Nov_02_1509,MP_PerceptionTuring2,59.950834530955156,
51,resources/videos_generated\model(vcgpdm)-dataset(walking)-mode(ELBO)-parts(2)-dyn(28)-lvm(23)_final(9).mov,resources/videos_natural\training(17).mov,True,False,right,0,50,50,50,2018-11-02 15:16:10.412719,2018-11-02 15:16:14.348944,0:00:03.936225,2,right,1,0.2838756621686116,24,m,1,21,2018_Nov_02_1509,MP_PerceptionTuring2,59.950834530955156,
52,resources/videos_generated\model(tmp)-dataset(walking)-numprim(11)_final(2).mov,resources/videos_natural\training(45).mov,False,False,right,0,51,51,51,2018-11-02 15:16:15.751024,2018-11-02 15:16:19.854259,0:00:04.103235,2,right,1,0.4006326458638796,24,m,1,21,2018_Nov_02_1509,MP_PerceptionTuring2,59.950834530955156,
53,resources/videos_generated\model(vcgpdm)-dataset(walking)-mode(ELBO)-parts(2)-dyn(25)-lvm(22)_final(9).mov,resources/videos_natural\training(22).mov,True,False,right,0,52,52,52,2018-11-02 15:16:21.372346,2018-11-02 15:16:25.458579,0:00:04.086233,2,right,1,0.2671550903960451,24,m,1,21,2018_Nov_02_1509,MP_PerceptionTuring2,59.950834530955156,
54,resources/videos_generated\model(vcgpdm)-dataset(walking)-mode(ELBO)-parts(2)-dyn(23)-lvm(18)_final(7).mov,resources/videos_natural\training(12).mov,True,True,left,0,53,53,53,2018-11-02 15:16:26.843659,2018-11-02 15:16:30.929892,0:00:04.086233,2,left,1,0.35050767376014846,24,m,1,21,2018_Nov_02_1509,MP_PerceptionTuring2,59.950834530955156,
55,resources/videos_generated\model(vcgpdm)-dataset(walking)-mode(ELBO)-parts(1)-dyn(22)-lvm(23)_final(4)_fail.mov,resources/videos_natural\training(43).mov,True,True,left,0,54,54,54,2018-11-02 15:16:32.397976,2018-11-02 15:16:36.502211,0:00:04.104235,2,left,1,0.4172456985588724,24,m,1,21,2018_Nov_02_1509,MP_PerceptionTuring2,59.950834530955156,
56,resources/videos_generated\model(vcgpdm)-dataset(walking)-mode(ELBO)-parts(2)-dyn(24)-lvm(23)_final(3).mov,resources/videos_natural\training(44).mov,True,True,left,0,55,55,55,2018-11-02 15:16:38.036299,2018-11-02 15:16:42.140533,0:00:04.104234,2,left,1,0.25047547827125527,24,m,1,21,2018_Nov_02_1509,MP_PerceptionTuring2,59.950834530955156,
57,resources/videos_generated\model(vcgpdm)-dataset(walking)-mode(ELBO)-parts(1)-dyn(28)-lvm(25)_final(5).mov,resources/videos_natural\training(12).mov,False,True,left,0,56,56,56,2018-11-02 15:16:43.507612,2018-11-02 15:16:47.427836,0:00:03.920224,2,right,0,0.2838045851312927,24,m,1,21,2018_Nov_02_1509,MP_PerceptionTuring2,59.950834530955156,
58,resources/videos_generated\model(vcgpdm)-dataset(walking)-mode(ELBO)-parts(1)-dyn(27)-lvm(24)_final(7).mov,resources/videos_natural\training(24).mov,True,False,right,0,57,57,57,2018-11-02 15:16:48.828916,2018-11-02 15:16:52.766141,0:00:03.937225,2,right,1,0.28375639730984403,24,m,1,21,2018_Nov_02_1509,MP_PerceptionTuring2,59.950834530955156,
59,resources/videos_generated\model(vcgpdm)-dataset(walking)-mode(ELBO)-parts(1)-dyn(22)-lvm(25)_final(8).mov,resources/videos_natural\training(14).mov,False,False,right,0,58,58,58,2018-11-02 15:16:54.167221,2018-11-02 15:16:58.120447,0:00:03.953226,2,right,1,0.31715929177153157,24,m,1,21,2018_Nov_02_1509,MP_PerceptionTuring2,59.950834530955156,
60,resources/videos_generated\model(vcgpdm)-dataset(walking)-mode(ELBO)-parts(2)-dyn(28)-lvm(23)_final(3).mov,resources/videos_natural\training(34).mov,True,False,right,0,59,59,59,2018-11-02 15:16:59.555530,2018-11-02 15:17:03.641763,0:00:04.086233,2,right,1,0.3171767598569204,24,m,1,21,2018_Nov_02_1509,MP_PerceptionTuring2,59.950834530955156,
61,resources/videos_generated\model(vcgpdm)-dataset(walking)-mode(ELBO)-parts(2)-dyn(26)-lvm(21)_final(9).mov,resources/videos_natural\training(28).mov,True,True,left,0,60,60,60,2018-11-02 15:17:05.076845,2018-11-02 15:17:09.063073,0:00:03.986228,2,right,0,0.3171267649922811,24,m,1,21,2018_Nov_02_1509,MP_PerceptionTuring2,59.950834530955156,
62,resources/videos_generated\model(vcgpdm)-dataset(walking)-mode(ELBO)-parts(2)-dyn(24)-lvm(19)_final(1).mov,resources/videos_natural\training(8).mov,True,False,right,0,61,61,61,2018-11-02 15:17:10.498155,2018-11-02 15:17:14.534386,0:00:04.036231,2,right,1,0.3504871939358054,24,m,1,21,2018_Nov_02_1509,MP_PerceptionTuring2,59.950834530955156,
63,resources/videos_generated\model(vcgpdm)-dataset(walking)-mode(ELBO)-parts(1)-dyn(24)-lvm(25)_final(4).mov,resources/videos_natural\training(21).mov,True,True,left,0,62,62,62,2018-11-02 15:17:16.002470,2018-11-02 15:17:20.106705,0:00:04.104235,2,left,1,0.3005085923405204,24,m,1,21,2018_Nov_02_1509,MP_PerceptionTuring2,59.950834530955156,
64,resources/videos_generated\model(vcgpdm)-dataset(walking)-mode(ELBO)-parts(1)-dyn(25)-lvm(22)_final(4).mov,resources/videos_natural\training(36).mov,False,False,right,0,63,63,63,2018-11-02 15:17:21.523786,2018-11-02 15:17:25.628021,0:00:04.104235,2,right,1,0.28368020031757624,24,m,1,21,2018_Nov_02_1509,MP_PerceptionTuring2,59.950834530955156,
65,resources/videos_generated\model(vcgpdm)-dataset(walking)-mode(ELBO)-parts(1)-dyn(27)-lvm(22)_final(5).mov,resources/videos_natural\training(21).mov,False,True,left,0,64,64,64,2018-11-02 15:17:27.029101,2018-11-02 15:17:30.965326,0:00:03.936225,2,left,1,0.2506248605186556,24,m,1,21,2018_Nov_02_1509,MP_PerceptionTuring2,59.950834530955156,
66,resources/videos_generated\model(vcgpdm)-dataset(walking)-mode(ELBO)-parts(1)-dyn(22)-lvm(22)_final(6).mov,resources/videos_natural\training(1).mov,False,True,left,0,65,65,65,2018-11-02 15:17:32.333404,2018-11-02 15:17:36.403637,0:00:04.070233,2,left,1,0.46732127814630076,24,m,1,21,2018_Nov_02_1509,MP_PerceptionTuring2,59.950834530955156,
67,resources/videos_generated\model(tmp)-dataset(walking)-numprim(13)_final(4).mov,resources/videos_natural\training(2).mov,False,False,right,0,66,66,66,2018-11-02 15:17:37.988728,2018-11-02 15:17:42.091963,0:00:04.103235,2,left,0,0.4172155811711491,24,m,1,21,2018_Nov_02_1509,MP_PerceptionTuring2,59.950834530955156,
68,resources/videos_generated\model(vcgpdm)-dataset(walking)-mode(ELBO)-parts(2)-dyn(25)-lvm(18)_final(1).mov,resources/videos_natural\training(0).mov,True,True,left,0,67,67,67,2018-11-02 15:17:43.626050,2018-11-02 15:17:47.713284,0:00:04.087234,2,left,1,0.3672146927083304,24,m,1,21,2018_Nov_02_1509,MP_PerceptionTuring2,59.950834530955156,
69,resources/videos_generated\model(vcgpdm)-dataset(walking)-mode(ELBO)-parts(1)-dyn(23)-lvm(26)_final(1)_hip-corrected.mov,resources/videos_natural\training(17).mov,True,False,right,0,68,68,68,2018-11-02 15:17:49.198369,2018-11-02 15:17:53.201598,0:00:04.003229,2,right,1,0.3837897974935913,24,m,1,21,2018_Nov_02_1509,MP_PerceptionTuring2,59.950834530955156,
70,resources/videos_generated\model(vcgpdm)-dataset(walking)-mode(ELBO)-parts(2)-dyn(24)-lvm(21)_final(5).mov,resources/videos_natural\training(16).mov,False,False,right,0,69,69,69,2018-11-02 15:17:54.702684,2018-11-02 15:17:58.622908,0:00:03.920224,2,right,1,0.2670758816639136,24,m,1,21,2018_Nov_02_1509,MP_PerceptionTuring2,59.950834530955156,
71,resources/videos_generated\model(vcgpdm)-dataset(walking)-mode(ELBO)-parts(2)-dyn(24)-lvm(21)_final(7).mov,resources/videos_natural\training(21).mov,False,False,right,0,70,70,70,2018-11-02 15:18:00.006987,2018-11-02 15:18:03.944212,0:00:03.937225,2,left,0,0.38399007812677155,24,m,1,21,2018_Nov_02_1509,MP_PerceptionTuring2,59.950834530955156,
72,resources/videos_generated\model(dmp)-dataset(walking)-npsi(60)_final(2).mov,resources/videos_natural\training(4).mov,False,True,left,0,71,71,71,2018-11-02 15:18:05.445298,2018-11-02 15:18:09.532532,0:00:04.087234,2,right,0,0.283835003693639,24,m,1,21,2018_Nov_02_1509,MP_PerceptionTuring2,59.950834530955156,
73,resources/videos_generated\model(vcgpdm)-dataset(walking)-mode(ELBO)-parts(1)-dyn(23)-lvm(28)_final(4)_hip-corrected.mov,resources/videos_natural\training(21).mov,True,True,left,0,72,72,72,2018-11-02 15:18:10.933612,2018-11-02 15:18:14.836835,0:00:03.903223,2,right,0,0.4172469032555455,24,m,1,21,2018_Nov_02_1509,MP_PerceptionTuring2,59.950834530955156,
74,resources/videos_generated\model(vcgpdm)-dataset(walking)-mode(ELBO)-parts(2)-dyn(23)-lvm(18)_final(3).mov,resources/videos_natural\training(33).mov,False,True,left,0,73,73,73,2018-11-02 15:18:16.371923,2018-11-02 15:18:20.308148,0:00:03.936225,2,left,1,0.2503694650640682,24,m,1,21,2018_Nov_02_1509,MP_PerceptionTuring2,59.950834530955156,
75,resources/videos_generated\model(vcgpdm)-dataset(walking)-mode(ELBO)-parts(1)-dyn(24)-lvm(23)_final(8).mov,resources/videos_natural\training(1).mov,True,True,left,0,74,74,74,2018-11-02 15:18:21.676227,2018-11-02 15:18:25.679456,0:00:04.003229,2,left,1,0.3839708029991016,24,m,1,21,2018_Nov_02_1509,MP_PerceptionTuring2,59.950834530955156,
76,resources/videos_generated\model(vcgpdm)-dataset(walking)-mode(ELBO)-parts(2)-dyn(25)-lvm(20)_final(5).mov,resources/videos_natural\training(44).mov,True,False,right,0,75,75,75,2018-11-02 15:18:27.180541,2018-11-02 15:18:31.084765,0:00:03.904224,2,left,0,0.2504284951455702,24,m,1,21,2018_Nov_02_1509,MP_PerceptionTuring2,59.950834530955156,
77,resources/videos_generated\model(vcgpdm)-dataset(walking)-mode(ELBO)-parts(1)-dyn(22)-lvm(25)_final(4).mov,resources/videos_natural\training(2).mov,True,False,right,0,76,76,76,2018-11-02 15:18:32.451843,2018-11-02 15:18:36.372067,0:00:03.920224,2,right,1,0.3839000271364057,24,m,1,21,2018_Nov_02_1509,MP_PerceptionTuring2,59.950834530955156,
78,resources/videos_generated\model(vcgpdm)-dataset(walking)-mode(ELBO)-parts(1)-dyn(22)-lvm(23)_final(8).mov,resources/videos_natural\training(23).mov,True,False,right,0,77,77,77,2018-11-02 15:18:37.873153,2018-11-02 15:18:41.810378,0:00:03.937225,2,right,1,0.31720657607183966,24,m,1,21,2018_Nov_02_1509,MP_PerceptionTuring2,59.950834530955156,
79,resources/videos_generated\model(vcgpdm)-dataset(walking)-mode(ELBO)-parts(2)-dyn(22)-lvm(21)_final(9).mov,resources/videos_natural\training(13).mov,False,True,left,0,78,78,78,2018-11-02 15:18:43.244460,2018-11-02 15:18:47.231688,0:00:03.987228,2,right,0,0.5673890121524892,24,m,1,21,2018_Nov_02_1509,MP_PerceptionTuring2,59.950834530955156,
80,resources/videos_generated\model(vcgpdm)-dataset(walking)-mode(ELBO)-parts(1)-dyn(27)-lvm(26)_final(7).mov,resources/videos_natural\training(48).mov,False,False,right,0,79,79,79,2018-11-02 15:18:48.916785,2018-11-02 15:18:52.837009,0:00:03.920224,2,right,1,0.41729900633708894,24,m,1,21,2018_Nov_02_1509,MP_PerceptionTuring2,59.950834530955156,
81,resources/videos_generated\model(vcgpdm)-dataset(walking)-mode(ELBO)-parts(2)-dyn(26)-lvm(17)_final(5).mov,resources/videos_natural\training(14).mov,False,True,left,0,80,80,80,2018-11-02 15:18:54.371097,2018-11-02 15:18:58.291321,0:00:03.920224,2,left,1,0.5341023708115245,24,m,1,21,2018_Nov_02_1509,MP_PerceptionTuring2,59.950834530955156,
82,resources/videos_generated\model(vcgpdm)-dataset(walking)-mode(ELBO)-parts(1)-dyn(23)-lvm(26)_final(3)_hip-corrected.mov,resources/videos_natural\training(41).mov,True,False,right,0,81,81,81,2018-11-02 15:18:59.942415,2018-11-02 15:19:03.895641,0:00:03.953226,2,right,1,0.3338632989807593,24,m,1,21,2018_Nov_02_1509,MP_PerceptionTuring2,59.950834530955156,
83,resources/videos_generated\model(dmp)-dataset(walking)-npsi(70)_final(0).mov,resources/videos_natural\training(4).mov,True,False,right,0,82,82,82,2018-11-02 15:19:05.346724,2018-11-02 15:19:09.450959,0:00:04.104235,2,right,1,0.3172110936793615,24,m,1,21,2018_Nov_02_1509,MP_PerceptionTuring2,59.950834530955156,
84,resources/videos_generated\model(dmp)-dataset(walking)-npsi(90)_final(0).mov,resources/videos_natural\training(34).mov,True,True,left,0,83,83,83,2018-11-02 15:19:10.885041,2018-11-02 15:19:14.789264,0:00:03.904223,2,left,1,0.23373984780482715,24,m,1,21,2018_Nov_02_1509,MP_PerceptionTuring2,59.950834530955156,
85,resources/videos_generated\model(vcgpdm)-dataset(walking)-mode(ELBO)-parts(1)-dyn(24)-lvm(25)_final(0).mov,resources/videos_natural\training(3).mov,True,False,right,0,84,84,84,2018-11-02 15:19:16.140342,2018-11-02 15:19:20.226575,0:00:04.086233,2,left,0,0.3170912264731669,24,m,1,21,2018_Nov_02_1509,MP_PerceptionTuring2,59.950834530955156,
86,resources/videos_generated\model(vcgpdm)-dataset(walking)-mode(ELBO)-parts(2)-dyn(27)-lvm(18)_final(5).mov,resources/videos_natural\training(14).mov,True,False,right,0,85,85,85,2018-11-02 15:19:21.661658,2018-11-02 15:19:25.547880,0:00:03.886222,2,right,1,0.31732734679917485,24,m,1,21,2018_Nov_02_1509,MP_PerceptionTuring2,59.950834530955156,
87,resources/videos_generated\model(vcgpdm)-dataset(walking)-mode(ELBO)-parts(2)-dyn(22)-lvm(19)_final(7).mov,resources/videos_natural\training(40).mov,True,False,right,0,86,86,86,2018-11-02 15:19:26.982962,2018-11-02 15:19:30.903186,0:00:03.920224,2,right,1,0.25042006227613456,24,m,1,21,2018_Nov_02_1509,MP_PerceptionTuring2,59.950834530955156,
88,resources/videos_generated\model(vcgpdm)-dataset(walking)-mode(ELBO)-parts(1)-dyn(22)-lvm(27)_final(6)_fail.mov,resources/videos_natural\training(29).mov,True,False,right,0,87,87,87,2018-11-02 15:19:32.270264,2018-11-02 15:19:36.190489,0:00:03.920225,2,right,1,0.2670575100564747,24,m,1,21,2018_Nov_02_1509,MP_PerceptionTuring2,59.950834530955156,
89,resources/videos_generated\model(vcgpdm)-dataset(walking)-mode(ELBO)-parts(2)-dyn(26)-lvm(17)_final(1).mov,resources/videos_natural\training(19).mov,False,False,right,0,88,88,88,2018-11-02 15:19:37.574568,2018-11-02 15:19:41.494792,0:00:03.920224,2,right,1,0.2338286941012484,24,m,1,21,2018_Nov_02_1509,MP_PerceptionTuring2,59.950834530955156,
90,resources/videos_generated\model(vcgpdm)-dataset(walking)-mode(ELBO)-parts(2)-dyn(28)-lvm(19)_final(3).mov,resources/videos_natural\training(2).mov,False,False,right,0,89,89,89,2018-11-02 15:19:42.845869,2018-11-02 15:19:46.783094,0:00:03.937225,2,right,1,0.4007591388954097,24,m,1,21,2018_Nov_02_1509,MP_PerceptionTuring2,59.950834530955156,
91,resources/videos_generated\model(vcgpdm)-dataset(walking)-mode(ELBO)-parts(2)-dyn(22)-lvm(23)_final(1).mov,resources/videos_natural\training(44).mov,False,False,right,0,90,90,90,2018-11-02 15:20:23.281182,2018-11-02 15:20:27.201406,0:00:03.920224,3,right,1,0.26721743339021486,24,m,1,21,2018_Nov_02_1509,MP_PerceptionTuring2,59.950834530955156,
92,resources/videos_generated\model(vcgpdm)-dataset(walking)-mode(ELBO)-parts(1)-dyn(25)-lvm(24)_final(3).mov,resources/videos_natural\training(3).mov,False,True,left,0,91,91,91,2018-11-02 15:20:28.585485,2018-11-02 15:20:32.689720,0:00:04.104235,3,left,1,0.2671650291340484,24,m,1,21,2018_Nov_02_1509,MP_PerceptionTuring2,59.950834530955156,
93,resources/videos_generated\model(vcgpdm)-dataset(walking)-mode(ELBO)-parts(1)-dyn(25)-lvm(26)_final(6)_fail.mov,resources/videos_natural\training(32).mov,True,False,right,0,92,92,92,2018-11-02 15:20:34.073799,2018-11-02 15:20:37.961022,0:00:03.887223,3,right,1,0.3172014561159813,24,m,1,21,2018_Nov_02_1509,MP_PerceptionTuring2,59.950834530955156,
94,resources/videos_generated\model(dmp)-dataset(walking)-npsi(60)_final(8).mov,resources/videos_natural\training(6).mov,False,False,right,0,93,93,93,2018-11-02 15:20:39.395104,2018-11-02 15:20:43.332329,0:00:03.937225,3,right,1,0.4506479906731329,24,m,1,21,2018_Nov_02_1509,MP_PerceptionTuring2,59.950834530955156,
95,resources/videos_generated\model(vcgpdm)-dataset(walking)-mode(ELBO)-parts(2)-dyn(27)-lvm(20)_final(9).mov,resources/videos_natural\training(45).mov,True,True,left,0,94,94,94,2018-11-02 15:20:44.900419,2018-11-02 15:20:48.836644,0:00:03.936225,3,right,0,0.21702921477117343,24,m,1,21,2018_Nov_02_1509,MP_PerceptionTuring2,59.950834530955156,
96,resources/videos_generated\model(vcgpdm)-dataset(walking)-mode(ELBO)-parts(1)-dyn(27)-lvm(22)_final(9).mov,resources/videos_natural\training(22).mov,False,False,right,0,95,95,95,2018-11-02 15:20:50.171720,2018-11-02 15:20:54.074943,0:00:03.903223,3,left,0,0.35050586671604833,24,m,1,21,2018_Nov_02_1509,MP_PerceptionTuring2,59.950834530955156,
97,resources/videos_generated\model(vcgpdm)-dataset(walking)-mode(ELBO)-parts(1)-dyn(25)-lvm(28)_final(0).mov,resources/videos_natural\training(7).mov,True,False,right,0,96,96,96,2018-11-02 15:20:55.542027,2018-11-02 15:20:59.479252,0:00:03.937225,3,right,1,0.25032940893743216,24,m,1,21,2018_Nov_02_1509,MP_PerceptionTuring2,59.950834530955156,
98,resources/videos_generated\model(vcgpdm)-dataset(walking)-mode(ELBO)-parts(2)-dyn(26)-lvm(23)_final(7).mov,resources/videos_natural\training(42).mov,False,True,left,0,97,97,97,2018-11-02 15:21:00.847331,2018-11-02 15:21:04.750554,0:00:03.903223,3,left,1,0.40051006809244427,24,m,1,21,2018_Nov_02_1509,MP_PerceptionTuring2,59.950834530955156,
99,resources/videos_generated\model(vcgpdm)-dataset(walking)-mode(ELBO)-parts(2)-dyn(27)-lvm(22)_final(7).mov,resources/videos_natural\training(20).mov,True,False,right,0,98,98,98,2018-11-02 15:21:06.268641,2018-11-02 15:21:10.221867,0:00:03.953226,3,right,1,0.2672099040428293,24,m,1,21,2018_Nov_02_1509,MP_PerceptionTuring2,59.950834530955156,
100,resources/videos_generated\model(vcgpdm)-dataset(walking)-mode(ELBO)-parts(1)-dyn(27)-lvm(22)_final(7).mov,resources/videos_natural\training(3).mov,True,True,left,0,99,99,99,2018-11-02 15:21:11.605946,2018-11-02 15:21:15.493168,0:00:03.887222,3,left,1,0.28370670361891825,24,m,1,21,2018_Nov_02_1509,MP_PerceptionTuring2,59.950834530955156,
101,resources/videos_generated\model(vcgpdm)-dataset(walking)-mode(ELBO)-parts(2)-dyn(22)-lvm(23)_final(9).mov,resources/videos_natural\training(35).mov,False,False,right,0,100,100,100,2018-11-02 15:21:16.894249,2018-11-02 15:21:20.831474,0:00:03.937225,3,right,1,0.6172760568861122,24,m,1,21,2018_Nov_02_1509,MP_PerceptionTuring2,59.950834530955156,
102,resources/videos_generated\model(vcgpdm)-dataset(walking)-mode(ELBO)-parts(1)-dyn(24)-lvm(25)_final(8).mov,resources/videos_natural\training(6).mov,False,False,right,0,101,101,101,2018-11-02 15:21:22.565573,2018-11-02 15:21:26.669808,0:00:04.104235,3,right,1,0.25037940380207147,24,m,1,21,2018_Nov_02_1509,MP_PerceptionTuring2,59.950834530955156,
103,resources/videos_generated\model(vcgpdm)-dataset(walking)-mode(ELBO)-parts(1)-dyn(25)-lvm(23)_final(7).mov,resources/videos_natural\training(35).mov,True,True,left,0,102,102,102,2018-11-02 15:21:28.036886,2018-11-02 15:21:31.991112,0:00:03.954226,3,left,1,0.3339280513664562,24,m,1,21,2018_Nov_02_1509,MP_PerceptionTuring2,59.950834530955156,
104,resources/videos_generated\model(dmp)-dataset(walking)-npsi(70)_final(6).mov,resources/videos_natural\training(11).mov,False,True,left,0,103,103,103,2018-11-02 15:21:33.442195,2018-11-02 15:21:37.345418,0:00:03.903223,3,left,1,0.26723700969250785,24,m,1,21,2018_Nov_02_1509,MP_PerceptionTuring2,59.950834530955156,
105,resources/videos_generated\model(vcgpdm)-dataset(walking)-mode(ELBO)-parts(2)-dyn(25)-lvm(18)_final(5).mov,resources/videos_natural\training(3).mov,True,True,left,0,104,104,104,2018-11-02 15:21:38.729497,2018-11-02 15:21:42.649722,0:00:03.920225,3,left,1,0.334056953788604,24,m,1,21,2018_Nov_02_1509,MP_PerceptionTuring2,59.950834530955156,
106,resources/videos_generated\model(vcgpdm)-dataset(walking)-mode(ELBO)-parts(1)-dyn(27)-lvm(28)_final(3).mov,resources/videos_natural\training(28).mov,False,True,left,0,105,105,105,2018-11-02 15:21:44.100805,2018-11-02 15:21:47.988027,0:00:03.887222,3,right,0,0.2004248961175108,24,m,1,21,2018_Nov_02_1509,MP_PerceptionTuring2,59.950834530955156,
107,resources/videos_generated\model(vcgpdm)-dataset(walking)-mode(ELBO)-parts(2)-dyn(24)-lvm(19)_final(9).mov,resources/videos_natural\training(37).mov,False,True,left,0,106,106,106,2018-11-02 15:21:49.306102,2018-11-02 15:21:53.342333,0:00:04.036231,3,left,1,0.4172324469082014,24,m,1,21,2018_Nov_02_1509,MP_PerceptionTuring2,59.950834530955156,
108,resources/videos_generated\model(vcgpdm)-dataset(walking)-mode(ELBO)-parts(2)-dyn(22)-lvm(23)_final(5).mov,resources/videos_natural\training(41).mov,False,True,left,0,107,107,107,2018-11-02 15:21:54.877421,2018-11-02 15:21:58.847648,0:00:03.970227,3,left,1,0.3675131560275986,24,m,1,21,2018_Nov_02_1509,MP_PerceptionTuring2,59.950834530955156,
109,resources/videos_generated\model(tmp)-dataset(walking)-numprim(15)_final(0).mov,resources/videos_natural\training(7).mov,True,False,right,0,108,108,108,2018-11-02 15:22:00.331733,2018-11-02 15:22:04.434968,0:00:04.103235,3,left,0,0.25074743829009094,24,m,1,21,2018_Nov_02_1509,MP_PerceptionTuring2,59.950834530955156,
110,resources/videos_generated\model(tmp)-dataset(walking)-numprim(11)_final(6).mov,resources/videos_natural\training(33).mov,False,False,right,0,109,109,109,2018-11-02 15:22:05.803046,2018-11-02 15:22:09.723270,0:00:03.920224,3,right,1,0.30081307913860655,24,m,1,21,2018_Nov_02_1509,MP_PerceptionTuring2,59.950834530955156,
111,resources/videos_generated\model(dmp)-dataset(walking)-npsi(50)_final(6).mov,resources/videos_natural\training(45).mov,False,True,left,0,110,110,110,2018-11-02 15:22:11.141351,2018-11-02 15:22:15.111578,0:00:03.970227,3,right,0,0.2837070047926318,24,m,1,21,2018_Nov_02_1509,MP_PerceptionTuring2,59.950834530955156,
112,resources/videos_generated\model(vcgpdm)-dataset(walking)-mode(ELBO)-parts(2)-dyn(27)-lvm(20)_final(3).mov,resources/videos_natural\training(29).mov,True,True,left,0,111,111,111,2018-11-02 15:22:16.512658,2018-11-02 15:22:20.582891,0:00:04.070233,3,right,0,0.41723335043025145,24,m,1,21,2018_Nov_02_1509,MP_PerceptionTuring2,59.950834530955156,
113,resources/videos_generated\model(vcgpdm)-dataset(walking)-mode(ELBO)-parts(1)-dyn(26)-lvm(23)_final(1).mov,resources/videos_natural\training(48).mov,False,False,right,0,112,112,112,2018-11-02 15:22:22.116979,2018-11-02 15:22:26.171211,0:00:04.054232,3,right,1,0.2671273823989395,24,m,1,21,2018_Nov_02_1509,MP_PerceptionTuring2,59.950834530955156,
114,resources/videos_generated\model(vcgpdm)-dataset(walking)-mode(ELBO)-parts(1)-dyn(24)-lvm(23)_final(4)_fail.mov,resources/videos_natural\training(43).mov,True,True,left,0,113,113,113,2018-11-02 15:22:27.555290,2018-11-02 15:22:31.475514,0:00:03.920224,3,left,1,0.5673281750277965,24,m,1,21,2018_Nov_02_1509,MP_PerceptionTuring2,59.950834530955156,
115,resources/videos_generated\model(vcgpdm)-dataset(walking)-mode(ELBO)-parts(2)-dyn(26)-lvm(19)_final(3).mov,resources/videos_natural\training(14).mov,False,True,left,0,114,114,114,2018-11-02 15:22:33.160611,2018-11-02 15:22:37.163840,0:00:04.003229,3,left,1,0.28392505468491436,24,m,1,21,2018_Nov_02_1509,MP_PerceptionTuring2,59.950834530955156,
116,resources/videos_generated\model(tmp)-dataset(walking)-numprim(14)_final(8).mov,resources/videos_natural\training(47).mov,True,False,right,0,115,115,115,2018-11-02 15:22:38.564920,2018-11-02 15:22:42.668154,0:00:04.103234,3,right,1,0.35055465688674303,24,m,1,21,2018_Nov_02_1509,MP_PerceptionTuring2,59.950834530955156,
117,resources/videos_generated\model(vcgpdm)-dataset(walking)-mode(ELBO)-parts(2)-dyn(27)-lvm(20)_final(7).mov,resources/videos_natural\training(15).mov,False,True,left,0,116,116,116,2018-11-02 15:22:44.136238,2018-11-02 15:22:48.240473,0:00:04.104235,3,left,1,0.3338476379385611,24,m,1,21,2018_Nov_02_1509,MP_PerceptionTuring2,59.950834530955156,
118,resources/videos_generated\model(vcgpdm)-dataset(walking)-mode(ELBO)-parts(1)-dyn(25)-lvm(26)_final(2).mov,resources/videos_natural\training(47).mov,True,True,left,0,117,117,117,2018-11-02 15:22:49.691556,2018-11-02 15:22:53.627781,0:00:03.936225,3,left,1,0.25042006227613456,24,m,1,21,2018_Nov_02_1509,MP_PerceptionTuring2,59.950834530955156,
119,resources/videos_generated\model(tmp)-dataset(walking)-numprim(11)_final(4).mov,resources/videos_natural\training(4).mov,False,False,right,0,118,118,118,2018-11-02 15:22:54.995860,2018-11-02 15:22:58.883082,0:00:03.887222,3,right,1,0.3006350853720505,24,m,1,21,2018_Nov_02_1509,MP_PerceptionTuring2,59.950834530955156,
120,resources/videos_generated\model(tmp)-dataset(walking)-numprim(15)_final(8).mov,resources/videos_natural\training(42).mov,False,True,left,0,119,119,119,2018-11-02 15:23:00.300163,2018-11-02 15:23:04.237388,0:00:03.937225,3,left,1,0.2672165298681648,24,m,1,21,2018_Nov_02_1509,MP_PerceptionTuring2,59.950834530955156,
121,resources/videos_generated\model(dmp)-dataset(walking)-npsi(70)_final(4).mov,resources/videos_natural\training(18).mov,False,False,right,0,120,120,120,2018-11-02 15:23:05.621467,2018-11-02 15:23:09.725702,0:00:04.104235,3,right,1,0.2504206646253806,24,m,1,21,2018_Nov_02_1509,MP_PerceptionTuring2,59.950834530955156,
122,resources/videos_generated\model(vcgpdm)-dataset(walking)-mode(ELBO)-parts(2)-dyn(24)-lvm(17)_final(5).mov,resources/videos_natural\training(11).mov,True,False,right,0,121,121,121,2018-11-02 15:23:11.092780,2018-11-02 15:23:15.163013,0:00:04.070233,3,right,1,0.21707318615790427,24,m,1,21,2018_Nov_02_1509,MP_PerceptionTuring2,59.950834530955156,
123,resources/videos_generated\model(tmp)-dataset(walking)-numprim(11)_final(0).mov,resources/videos_natural\training(27).mov,True,False,right,0,122,122,122,2018-11-02 15:23:16.498089,2018-11-02 15:23:20.618325,0:00:04.120236,3,left,0,0.3839250245682706,24,m,1,21,2018_Nov_02_1509,MP_PerceptionTuring2,59.950834530955156,
124,resources/videos_generated\model(tmp)-dataset(walking)-numprim(15)_final(6).mov,resources/videos_natural\training(27).mov,True,False,right,0,123,123,123,2018-11-02 15:23:22.119411,2018-11-02 15:23:26.155642,0:00:04.036231,3,left,0,0.417391767893605,24,m,1,21,2018_Nov_02_1509,MP_PerceptionTuring2,59.950834530955156,
125,resources/videos_generated\model(vcgpdm)-dataset(walking)-mode(ELBO)-parts(1)-dyn(26)-lvm(27)_final(1).mov,resources/videos_natural\training(43).mov,False,False,right,0,124,124,124,2018-11-02 15:23:27.690730,2018-11-02 15:23:31.593953,0:00:03.903223,3,right,1,0.25042759162352013,24,m,1,21,2018_Nov_02_1509,MP_PerceptionTuring2,59.950834530955156,
126,resources/videos_generated\model(tmp)-dataset(walking)-numprim(11)_final(8).mov,resources/videos_natural\training(25).mov,True,False,right,0,125,125,125,2018-11-02 15:23:32.962031,2018-11-02 15:23:36.915257,0:00:03.953226,3,right,1,0.28387234925594385,24,m,1,21,2018_Nov_02_1509,MP_PerceptionTuring2,59.950834530955156,
127,resources/videos_generated\model(vcgpdm)-dataset(walking)-mode(ELBO)-parts(2)-dyn(27)-lvm(22)_final(9).mov,resources/videos_natural\training(25).mov,True,False,right,0,126,126,126,2018-11-02 15:23:38.316337,2018-11-02 15:23:42.370569,0:00:04.054232,3,right,1,0.38384400879294844,24,m,1,21,2018_Nov_02_1509,MP_PerceptionTuring2,59.950834530955156,
128,resources/videos_generated\model(vcgpdm)-dataset(walking)-mode(ELBO)-parts(1)-dyn(22)-lvm(27)_final(4)_fail.mov,resources/videos_natural\training(19).mov,True,True,left,0,127,127,127,2018-11-02 15:23:43.871655,2018-11-02 15:23:47.774878,0:00:03.903223,3,left,1,0.2838536764747914,24,m,1,21,2018_Nov_02_1509,MP_PerceptionTuring2,59.950834530955156,
129,resources/videos_generated\model(vcgpdm)-dataset(walking)-mode(ELBO)-parts(2)-dyn(22)-lvm(19)_final(5).mov,resources/videos_natural\training(36).mov,False,False,right,0,128,128,128,2018-11-02 15:23:49.175959,2018-11-02 15:23:53.146186,0:00:03.970227,3,right,1,0.6675353525442915,24,m,1,21,2018_Nov_02_1509,MP_PerceptionTuring2,59.950834530955156,
130,resources/videos_generated\model(vcgpdm)-dataset(walking)-mode(ELBO)-parts(2)-dyn(28)-lvm(19)_final(5).mov,resources/videos_natural\training(23).mov,True,True,left,0,129,129,129,2018-11-02 15:23:54.931288,2018-11-02 15:23:58.834511,0:00:03.903223,3,left,1,0.300404386176524,24,m,1,21,2018_Nov_02_1509,MP_PerceptionTuring2,59.950834530955156,
131,resources/videos_generated\model(vcgpdm)-dataset(walking)-mode(ELBO)-parts(1)-dyn(28)-lvm(27)_final(5).mov,resources/videos_natural\training(39).mov,True,True,left,0,130,130,130,2018-11-02 15:24:00.252592,2018-11-02 15:24:04.155815,0:00:03.903223,3,right,0,0.2504444573614819,24,m,1,21,2018_Nov_02_1509,MP_PerceptionTuring2,59.950834530955156,
132,resources/videos_generated\model(vcgpdm)-dataset(walking)-mode(ELBO)-parts(1)-dyn(22)-lvm(25)_final(2).mov,resources/videos_natural\training(21).mov,False,False,right,0,131,131,131,2018-11-02 15:24:05.523894,2018-11-02 15:24:09.477120,0:00:03.953226,3,right,1,0.7007204982865005,24,m,1,21,2018_Nov_02_1509,MP_PerceptionTuring2,59.950834530955156,
133,resources/videos_generated\model(vcgpdm)-dataset(walking)-mode(ELBO)-parts(1)-dyn(27)-lvm(26)_final(9).mov,resources/videos_natural\training(20).mov,True,True,left,0,132,132,132,2018-11-02 15:24:11.295224,2018-11-02 15:24:15.315454,0:00:04.020230,3,left,1,0.3839286386546519,24,m,1,21,2018_Nov_02_1509,MP_PerceptionTuring2,59.950834530955156,
134,resources/videos_generated\model(vcgpdm)-dataset(walking)-mode(ELBO)-parts(2)-dyn(28)-lvm(21)_final(1).mov,resources/videos_natural\training(24).mov,False,False,right,0,133,133,133,2018-11-02 15:24:16.816539,2018-11-02 15:24:20.786767,0:00:03.970228,3,right,1,0.4839099357568557,24,m,1,21,2018_Nov_02_1509,MP_PerceptionTuring2,59.950834530955156,
135,resources/videos_generated\model(vcgpdm)-dataset(walking)-mode(ELBO)-parts(1)-dyn(25)-lvm(28)_final(2).mov,resources/videos_natural\training(1).mov,False,False,right,0,134,134,134,2018-11-02 15:24:22.387858,2018-11-02 15:24:26.508094,0:00:04.120236,3,right,1,0.3170782759971189,24,m,1,21,2018_Nov_02_1509,MP_PerceptionTuring2,59.950834530955156,
136,resources/videos_generated\model(vcgpdm)-dataset(walking)-mode(ELBO)-parts(1)-dyn(28)-lvm(25)_final(1).mov,resources/videos_natural\training(30).mov,True,True,left,0,135,135,135,2018-11-02 15:25:03.557213,2018-11-02 15:25:07.460436,0:00:03.903223,4,right,0,0.23377930158403615,24,m,1,21,2018_Nov_02_1509,MP_PerceptionTuring2,59.950834530955156,
137,resources/videos_generated\model(dmp)-dataset(walking)-npsi(100)_final(8).mov,resources/videos_natural\training(0).mov,True,True,left,0,136,136,136,2018-11-02 15:25:08.811513,2018-11-02 15:25:12.764740,0:00:03.953227,4,right,0,0.20052819876036665,24,m,1,21,2018_Nov_02_1509,MP_PerceptionTuring2,59.950834530955156,
138,resources/videos_generated\model(dmp)-dataset(walking)-npsi(80)_final(2).mov,resources/videos_natural\training(0).mov,False,False,right,0,137,137,137,2018-11-02 15:25:14.082815,2018-11-02 15:25:18.020040,0:00:03.937225,4,left,0,0.25042909749299724,24,m,1,21,2018_Nov_02_1509,MP_PerceptionTuring2,59.950834530955156,
139,resources/videos_generated\model(vcgpdm)-dataset(walking)-mode(ELBO)-parts(2)-dyn(22)-lvm(21)_final(5).mov,resources/videos_natural\training(24).mov,True,False,right,0,138,138,138,2018-11-02 15:25:19.387118,2018-11-02 15:25:23.407348,0:00:04.020230,4,left,0,0.28384464125883824,24,m,1,21,2018_Nov_02_1509,MP_PerceptionTuring2,59.950834530955156,
140,resources/videos_generated\model(vcgpdm)-dataset(walking)-mode(ELBO)-parts(1)-dyn(27)-lvm(26)_final(3).mov,resources/videos_natural\training(40).mov,False,True,left,0,139,139,139,2018-11-02 15:25:24.808428,2018-11-02 15:25:28.862660,0:00:04.054232,4,left,1,0.41718335556470265,24,m,1,21,2018_Nov_02_1509,MP_PerceptionTuring2,59.950834530955156,
141,resources/videos_generated\model(vcgpdm)-dataset(walking)-mode(ELBO)-parts(1)-dyn(28)-lvm(24)_final(7).mov,resources/videos_natural\training(45).mov,True,False,right,0,140,140,140,2018-11-02 15:25:30.396748,2018-11-02 15:25:34.333973,0:00:03.937225,4,right,1,0.4006943865106223,24,m,1,21,2018_Nov_02_1509,MP_PerceptionTuring2,59.950834530955156,
142,resources/videos_generated\model(dmp)-dataset(walking)-npsi(100)_final(4).mov,resources/videos_natural\training(4).mov,True,False,right,0,141,141,141,2018-11-02 15:25:35.852060,2018-11-02 15:25:39.805286,0:00:03.953226,4,right,1,0.2503905472358383,24,m,1,21,2018_Nov_02_1509,MP_PerceptionTuring2,59.950834530955156,
143,resources/videos_generated\model(vcgpdm)-dataset(walking)-mode(ELBO)-parts(2)-dyn(26)-lvm(17)_final(7).mov,resources/videos_natural\training(21).mov,True,True,left,0,142,142,142,2018-11-02 15:25:41.173364,2018-11-02 15:25:45.276599,0:00:04.103235,4,left,1,0.3338373980268443,24,m,1,21,2018_Nov_02_1509,MP_PerceptionTuring2,59.950834530955156,
144,resources/videos_generated\model(vcgpdm)-dataset(walking)-mode(ELBO)-parts(1)-dyn(26)-lvm(27)_final(7).mov,resources/videos_natural\training(30).mov,True,False,right,0,143,143,143,2018-11-02 15:25:46.727682,2018-11-02 15:25:50.630905,0:00:03.903223,4,left,0,0.3171400166429521,24,m,1,21,2018_Nov_02_1509,MP_PerceptionTuring2,59.950834530955156,
145,resources/videos_generated\model(dmp)-dataset(walking)-npsi(90)_final(2).mov,resources/videos_natural\training(19).mov,False,True,left,0,144,144,144,2018-11-02 15:25:52.065987,2018-11-02 15:25:56.102218,0:00:04.036231,4,right,0,0.2007221547419249,24,m,1,21,2018_Nov_02_1509,MP_PerceptionTuring2,59.950834530955156,
146,resources/videos_generated\model(vcgpdm)-dataset(walking)-mode(ELBO)-parts(1)-dyn(27)-lvm(26)_final(1).mov,resources/videos_natural\training(19).mov,True,True,left,0,145,145,145,2018-11-02 15:25:57.420294,2018-11-02 15:26:01.523528,0:00:04.103234,4,left,1,0.7008268126683106,24,m,1,21,2018_Nov_02_1509,MP_PerceptionTuring2,59.950834530955156,
147,resources/videos_generated\model(dmp)-dataset(walking)-npsi(60)_final(6).mov,resources/videos_natural\training(0).mov,False,False,right,0,146,146,146,2018-11-02 15:26:03.341632,2018-11-02 15:26:07.295859,0:00:03.954227,4,right,1,0.3005606954220639,24,m,1,21,2018_Nov_02_1509,MP_PerceptionTuring2,59.950834530955156,
148,resources/videos_generated\model(vcgpdm)-dataset(walking)-mode(ELBO)-parts(1)-dyn(24)-lvm(27)_final(0).mov,resources/videos_natural\training(40).mov,True,True,left,0,147,147,147,2018-11-02 15:26:08.712940,2018-11-02 15:26:12.633164,0:00:03.920224,4,left,1,0.2671258765294624,24,m,1,21,2018_Nov_02_1509,MP_PerceptionTuring2,59.950834530955156,
149,resources/videos_generated\model(vcgpdm)-dataset(walking)-mode(ELBO)-parts(2)-dyn(24)-lvm(23)_final(9).mov,resources/videos_natural\training(26).mov,True,False,right,0,148,148,148,2018-11-02 15:26:14.018243,2018-11-02 15:26:17.938467,0:00:03.920224,4,left,0,0.4341138455356486,24,m,1,21,2018_Nov_02_1509,MP_PerceptionTuring2,59.950834530955156,
150,resources/videos_generated\model(vcgpdm)-dataset(walking)-mode(ELBO)-parts(1)-dyn(27)-lvm(28)_final(5).mov,resources/videos_natural\training(34).mov,False,True,left,0,149,149,149,2018-11-02 15:26:19.489556,2018-11-02 15:26:23.576790,0:00:04.087234,4,right,0,0.3172192253750836,24,m,1,21,2018_Nov_02_1509,MP_PerceptionTuring2,59.950834530955156,
151,resources/videos_generated\model(dmp)-dataset(walking)-npsi(100)_final(0).mov,resources/videos_natural\training(32).mov,False,False,right,0,150,150,150,2018-11-02 15:26:25.010872,2018-11-02 15:26:29.114106,0:00:04.103234,4,right,1,0.31712194620922673,24,m,1,21,2018_Nov_02_1509,MP_PerceptionTuring2,59.950834530955156,
152,resources/videos_generated\model(vcgpdm)-dataset(walking)-mode(ELBO)-parts(1)-dyn(23)-lvm(24)_final(5).mov,resources/videos_natural\training(10).mov,False,True,left,0,151,151,151,2018-11-02 15:26:30.549189,2018-11-02 15:26:34.485414,0:00:03.936225,4,left,1,0.3673237176544717,24,m,1,21,2018_Nov_02_1509,MP_PerceptionTuring2,59.950834530955156,
153,resources/videos_generated\model(dmp)-dataset(walking)-npsi(50)_final(0).mov,resources/videos_natural\training(6).mov,False,True,left,0,152,152,152,2018-11-02 15:26:35.970499,2018-11-02 15:26:39.906724,0:00:03.936225,4,left,1,0.4506931667565368,24,m,1,21,2018_Nov_02_1509,MP_PerceptionTuring2,59.950834530955156,
154,resources/videos_generated\model(vcgpdm)-dataset(walking)-mode(ELBO)-parts(2)-dyn(25)-lvm(20)_final(7).mov,resources/videos_natural\training(18).mov,False,False,right,0,153,153,153,2018-11-02 15:26:41.474813,2018-11-02 15:26:45.412039,0:00:03.937226,4,right,1,0.383864789791005,24,m,1,21,2018_Nov_02_1509,MP_PerceptionTuring2,59.950834530955156,
155,resources/videos_generated\model(vcgpdm)-dataset(walking)-mode(ELBO)-parts(2)-dyn(27)-lvm(18)_final(7).mov,resources/videos_natural\training(47).mov,False,True,left,0,154,154,154,2018-11-02 15:26:46.913125,2018-11-02 15:26:50.833349,0:00:03.920224,4,left,1,0.9510589424398859,24,m,1,21,2018_Nov_02_1509,MP_PerceptionTuring2,59.950834530955156,
156,resources/videos_generated\model(vcgpdm)-dataset(walking)-mode(ELBO)-parts(2)-dyn(27)-lvm(22)_final(3).mov,resources/videos_natural\training(17).mov,False,False,right,0,155,155,155,2018-11-02 15:26:52.901467,2018-11-02 15:26:56.838692,0:00:03.937225,4,right,1,0.317158388250391,24,m,1,21,2018_Nov_02_1509,MP_PerceptionTuring2,59.950834530955156,
157,resources/videos_generated\model(vcgpdm)-dataset(walking)-mode(ELBO)-parts(2)-dyn(28)-lvm(19)_final(1).mov,resources/videos_natural\training(39).mov,True,False,right,0,156,156,156,2018-11-02 15:26:58.272774,2018-11-02 15:27:02.192998,0:00:03.920224,4,right,1,0.26706052179542894,24,m,1,21,2018_Nov_02_1509,MP_PerceptionTuring2,59.950834530955156,
158,resources/videos_generated\model(tmp)-dataset(walking)-numprim(14)_final(6).mov,resources/videos_natural\training(18).mov,False,True,left,0,157,157,157,2018-11-02 15:27:03.578078,2018-11-02 15:27:07.714314,0:00:04.136236,4,right,0,0.2671337070505615,24,m,1,21,2018_Nov_02_1509,MP_PerceptionTuring2,59.950834530955156,
159,resources/videos_generated\model(vcgpdm)-dataset(walking)-mode(ELBO)-parts(2)-dyn(22)-lvm(23)_final(3).mov,resources/videos_natural\training(38).mov,True,False,right,0,158,158,158,2018-11-02 15:27:09.098393,2018-11-02 15:27:13.019618,0:00:03.921225,4,right,1,0.38384671935818915,24,m,1,21,2018_Nov_02_1509,MP_PerceptionTuring2,59.950834530955156,
160,resources/videos_generated\model(vcgpdm)-dataset(walking)-mode(ELBO)-parts(1)-dyn(23)-lvm(22)_final(5)_fail.mov,resources/videos_natural\training(9).mov,True,True,left,0,159,159,159,2018-11-02 15:27:14.520704,2018-11-02 15:27:18.623938,0:00:04.103234,4,left,1,0.28368803083776584,24,m,1,21,2018_Nov_02_1509,MP_PerceptionTuring2,59.950834530955156,
161,resources/videos_generated\model(vcgpdm)-dataset(walking)-mode(ELBO)-parts(2)-dyn(24)-lvm(17)_final(1).mov,resources/videos_natural\training(23).mov,True,True,left,0,160,160,160,2018-11-02 15:27:20.025018,2018-11-02 15:27:23.978245,0:00:03.953227,4,left,1,0.38395845486957114,24,m,1,21,2018_Nov_02_1509,MP_PerceptionTuring2,59.950834530955156,
162,resources/videos_generated\model(vcgpdm)-dataset(walking)-mode(ELBO)-parts(2)-dyn(22)-lvm(23)_final(7).mov,resources/videos_natural\training(2).mov,False,True,left,0,161,161,161,2018-11-02 15:27:25.479330,2018-11-02 15:27:29.399555,0:00:03.920225,4,left,1,0.2503914507569789,24,m,1,21,2018_Nov_02_1509,MP_PerceptionTuring2,59.950834530955156,
163,resources/videos_generated\model(vcgpdm)-dataset(walking)-mode(ELBO)-parts(1)-dyn(27)-lvm(28)_final(7).mov,resources/videos_natural\training(3).mov,False,True,left,0,162,162,162,2018-11-02 15:27:30.767633,2018-11-02 15:27:34.770862,0:00:04.003229,4,left,1,0.2670915427061118,24,m,1,21,2018_Nov_02_1509,MP_PerceptionTuring2,59.950834530955156,
164,resources/videos_generated\model(vcgpdm)-dataset(walking)-mode(ELBO)-parts(1)-dyn(22)-lvm(27)_final(2)_hip-corrected.mov,resources/videos_natural\training(15).mov,True,False,right,0,163,163,163,2018-11-02 15:27:36.155941,2018-11-02 15:27:40.259176,0:00:04.103235,4,left,0,0.30043962352010567,24,m,1,21,2018_Nov_02_1509,MP_PerceptionTuring2,59.950834530955156,
165,resources/videos_generated\model(vcgpdm)-dataset(walking)-mode(ELBO)-parts(1)-dyn(25)-lvm(28)_final(4).mov,resources/videos_natural\training(11).mov,True,False,right,0,164,164,164,2018-11-02 15:27:41.677257,2018-11-02 15:27:45.730489,0:00:04.053232,4,left,0,0.3005350956418624,24,m,1,21,2018_Nov_02_1509,MP_PerceptionTuring2,59.950834530955156,
166,resources/videos_generated\model(vcgpdm)-dataset(walking)-mode(ELBO)-parts(2)-dyn(26)-lvm(21)_final(1).mov,resources/videos_natural\training(34).mov,False,True,left,0,165,165,165,2018-11-02 15:27:47.148570,2018-11-02 15:27:51.051793,0:00:03.903223,4,left,1,0.3006555651963936,24,m,1,21,2018_Nov_02_1509,MP_PerceptionTuring2,59.950834530955156,
167,resources/videos_generated\model(vcgpdm)-dataset(walking)-mode(ELBO)-parts(1)-dyn(22)-lvm(25)_final(6).mov,resources/videos_natural\training(7).mov,False,True,left,0,166,166,166,2018-11-02 15:27:52.469874,2018-11-02 15:27:56.390098,0:00:03.920224,4,left,1,0.5006964646099732,24,m,1,21,2018_Nov_02_1509,MP_PerceptionTuring2,59.950834530955156,
168,resources/videos_generated\model(vcgpdm)-dataset(walking)-mode(ELBO)-parts(1)-dyn(27)-lvm(24)_final(1).mov,resources/videos_natural\training(45).mov,False,False,right,0,167,167,167,2018-11-02 15:27:58.008191,2018-11-02 15:28:01.928415,0:00:03.920224,4,right,1,0.25051463087675074,24,m,1,21,2018_Nov_02_1509,MP_PerceptionTuring2,59.950834530955156,
169,resources/videos_generated\model(vcgpdm)-dataset(walking)-mode(ELBO)-parts(2)-dyn(24)-lvm(19)_final(7).mov,resources/videos_natural\training(40).mov,False,True,left,0,168,168,168,2018-11-02 15:28:03.295493,2018-11-02 15:28:07.215718,0:00:03.920225,4,left,1,0.40052000683044753,24,m,1,21,2018_Nov_02_1509,MP_PerceptionTuring2,59.950834530955156,
170,resources/videos_generated\model(vcgpdm)-dataset(walking)-mode(ELBO)-parts(1)-dyn(26)-lvm(23)_final(9).mov,resources/videos_natural\training(8).mov,False,True,left,0,169,169,169,2018-11-02 15:28:08.733804,2018-11-02 15:28:12.754034,0:00:04.020230,4,right,0,0.2837280869644019,24,m,1,21,2018_Nov_02_1509,MP_PerceptionTuring2,59.950834530955156,
171,resources/videos_generated\model(vcgpdm)-dataset(walking)-mode(ELBO)-parts(1)-dyn(22)-lvm(23)_final(2).mov,resources/videos_natural\training(20).mov,False,True,left,0,170,170,170,2018-11-02 15:28:14.155114,2018-11-02 15:28:18.225347,0:00:04.070233,4,left,1,0.2676652789577929,24,m,1,21,2018_Nov_02_1509,MP_PerceptionTuring2,59.950834530955156,
172,resources/videos_generated\model(vcgpdm)-dataset(walking)-mode(ELBO)-parts(1)-dyn(28)-lvm(24)_final(2).mov,resources/videos_natural\training(26).mov,True,True,left,0,171,171,171,2018-11-02 15:28:19.609426,2018-11-02 15:28:23.646657,0:00:04.037231,4,left,1,0.26711864835579036,24,m,1,21,2018_Nov_02_1509,MP_PerceptionTuring2,59.950834530955156,
173,resources/videos_generated\model(vcgpdm)-dataset(walking)-mode(ELBO)-parts(1)-dyn(25)-lvm(24)_final(9).mov,resources/videos_natural\training(38).mov,True,False,right,0,172,172,172,2018-11-02 15:28:25.031737,2018-11-02 15:28:29.084968,0:00:04.053231,4,right,1,0.2837898276102351,24,m,1,21,2018_Nov_02_1509,MP_PerceptionTuring2,59.950834530955156,
174,resources/videos_generated\model(vcgpdm)-dataset(walking)-mode(ELBO)-parts(2)-dyn(23)-lvm(20)_final(5).mov,resources/videos_natural\training(32).mov,True,True,left,0,173,173,173,2018-11-02 15:28:30.486049,2018-11-02 15:28:34.389272,0:00:03.903223,4,left,1,0.3338518543723694,24,m,1,21,2018_Nov_02_1509,MP_PerceptionTuring2,59.950834530955156,
175,resources/videos_generated\model(vcgpdm)-dataset(walking)-mode(ELBO)-parts(2)-dyn(26)-lvm(23)_final(9).mov,resources/videos_natural\training(26).mov,False,False,right,0,174,174,174,2018-11-02 15:28:35.840355,2018-11-02 15:28:39.743578,0:00:03.903223,4,right,1,0.300589005767506,24,m,1,21,2018_Nov_02_1509,MP_PerceptionTuring2,59.950834530955156,
176,resources/videos_generated\model(vcgpdm)-dataset(walking)-mode(ELBO)-parts(2)-dyn(24)-lvm(17)_final(9).mov,resources/videos_natural\training(36).mov,True,False,right,0,175,175,175,2018-11-02 15:28:41.161659,2018-11-02 15:28:45.164888,0:00:04.003229,4,right,1,0.4674691545233145,24,m,1,21,2018_Nov_02_1509,MP_PerceptionTuring2,59.950834530955156,
177,resources/videos_generated\model(vcgpdm)-dataset(walking)-mode(ELBO)-parts(1)-dyn(22)-lvm(23)_final(6)_fail.mov,resources/videos_natural\training(25).mov,False,True,left,0,176,176,176,2018-11-02 15:28:46.749979,2018-11-02 15:28:50.803211,0:00:04.053232,4,left,1,0.3005745494219809,24,m,1,21,2018_Nov_02_1509,MP_PerceptionTuring2,59.950834530955156,
178,resources/videos_generated\model(dmp)-dataset(walking)-npsi(70)_final(8).mov,resources/videos_natural\training(15).mov,False,False,right,0,177,177,177,2018-11-02 15:28:52.221292,2018-11-02 15:28:56.141516,0:00:03.920224,4,left,0,0.2504971627913619,24,m,1,21,2018_Nov_02_1509,MP_PerceptionTuring2,59.950834530955156,
179,resources/videos_generated\model(vcgpdm)-dataset(walking)-mode(ELBO)-parts(2)-dyn(24)-lvm(21)_final(1).mov,resources/videos_natural\training(13).mov,False,False,right,0,178,178,178,2018-11-02 15:28:57.509594,2018-11-02 15:29:01.546825,0:00:04.037231,4,right,1,0.250504993312461,24,m,1,21,2018_Nov_02_1509,MP_PerceptionTuring2,59.950834530955156,
180,resources/videos_generated\model(dmp)-dataset(walking)-npsi(100)_final(2).mov,resources/videos_natural\training(35).mov,True,True,left,0,179,179,179,2018-11-02 15:29:02.913903,2018-11-02 15:29:06.851128,0:00:03.937225,4,left,1,0.36712042528142774,24,m,1,21,2018_Nov_02_1509,MP_PerceptionTuring2,59.950834530955156,
181,resources/videos_generated\model(vcgpdm)-dataset(walking)-mode(ELBO)-parts(1)-dyn(28)-lvm(27)_final(1).mov,resources/videos_natural\training(20).mov,True,False,right,0,180,180,180,2018-11-02 15:29:41.931135,2018-11-02 15:29:46.001368,0:00:04.070233,5,right,1,0.2673113996424945,24,m,1,21,2018_Nov_02_1509,MP_PerceptionTuring2,59.950834530955156,
182,resources/videos_generated\model(vcgpdm)-dataset(walking)-mode(ELBO)-parts(1)-dyn(27)-lvm(26)_final(5).mov,resources/videos_natural\training(27).mov,False,True,left,0,181,181,181,2018-11-02 15:29:47.385447,2018-11-02 15:29:51.455680,0:00:04.070233,5,left,1,0.2672099040428293,24,m,1,21,2018_Nov_02_1509,MP_PerceptionTuring2,59.950834530955156,
183,resources/videos_generated\model(dmp)-dataset(walking)-npsi(90)_final(6).mov,resources/videos_natural\training(13).mov,False,False,right,0,182,182,182,2018-11-02 15:29:52.840759,2018-11-02 15:29:56.760983,0:00:03.920224,5,left,0,0.2170879436780524,24,m,1,21,2018_Nov_02_1509,MP_PerceptionTuring2,59.950834530955156,
184,resources/videos_generated\model(vcgpdm)-dataset(walking)-mode(ELBO)-parts(1)-dyn(28)-lvm(23)_final(7).mov,resources/videos_natural\training(18).mov,True,False,right,0,183,183,183,2018-11-02 15:29:58.095059,2018-11-02 15:30:01.998283,0:00:03.903224,5,left,0,0.2838702410381302,24,m,1,21,2018_Nov_02_1509,MP_PerceptionTuring2,59.950834530955156,
185,resources/videos_generated\model(vcgpdm)-dataset(walking)-mode(ELBO)-parts(1)-dyn(23)-lvm(28)_final(0).mov,resources/videos_natural\training(10).mov,False,True,left,0,184,184,184,2018-11-02 15:30:03.399363,2018-11-02 15:30:07.303586,0:00:03.904223,5,left,1,0.25063991921342677,24,m,1,21,2018_Nov_02_1509,MP_PerceptionTuring2,59.950834530955156,
186,resources/videos_generated\model(vcgpdm)-dataset(walking)-mode(ELBO)-parts(1)-dyn(26)-lvm(22)_final(0).mov,resources/videos_natural\training(34).mov,True,True,left,0,185,185,185,2018-11-02 15:30:08.670664,2018-11-02 15:30:12.573888,0:00:03.903224,5,left,1,0.267258995386328,24,m,1,21,2018_Nov_02_1509,MP_PerceptionTuring2,59.950834530955156,
187,resources/videos_generated\model(vcgpdm)-dataset(walking)-mode(ELBO)-parts(2)-dyn(26)-lvm(21)_final(7).mov,resources/videos_natural\training(44).mov,True,True,left,0,186,186,186,2018-11-02 15:30:13.958967,2018-11-02 15:30:17.879191,0:00:03.920224,5,left,1,0.26713581526655616,24,m,1,21,2018_Nov_02_1509,MP_PerceptionTuring2,59.950834530955156,
188,resources/videos_generated\model(vcgpdm)-dataset(walking)-mode(ELBO)-parts(2)-dyn(23)-lvm(22)_final(5).mov,resources/videos_natural\training(5).mov,False,True,left,0,187,187,187,2018-11-02 15:30:19.263270,2018-11-02 15:30:23.166493,0:00:03.903223,5,left,1,0.3171216450364227,24,m,1,21,2018_Nov_02_1509,MP_PerceptionTuring2,59.950834530955156,
189,resources/videos_generated\model(dmp)-dataset(walking)-npsi(70)_final(2).mov,resources/videos_natural\training(46).mov,True,True,left,0,188,188,188,2018-11-02 15:30:24.601576,2018-11-02 15:30:28.521800,0:00:03.920224,5,left,1,0.21722738718654,24,m,1,21,2018_Nov_02_1509,MP_PerceptionTuring2,59.950834530955156,
190,resources/videos_generated\model(vcgpdm)-dataset(walking)-mode(ELBO)-parts(2)-dyn(22)-lvm(17)_final(7).mov,resources/videos_natural\training(41).mov,True,True,left,0,189,189,189,2018-11-02 15:30:29.855876,2018-11-02 15:30:33.759099,0:00:03.903223,5,left,1,0.3504516554166912,24,m,1,21,2018_Nov_02_1509,MP_PerceptionTuring2,59.950834530955156,
191,resources/videos_generated\model(vcgpdm)-dataset(walking)-mode(ELBO)-parts(1)-dyn(26)-lvm(25)_final(5).mov,resources/videos_natural\training(0).mov,True,False,right,0,190,190,190,2018-11-02 15:30:35.227183,2018-11-02 15:30:39.164409,0:00:03.937226,5,right,1,0.33384161446065264,24,m,1,21,2018_Nov_02_1509,MP_PerceptionTuring2,59.950834530955156,
192,resources/videos_generated\model(dmp)-dataset(walking)-npsi(80)_final(4).mov,resources/videos_natural\training(14).mov,False,True,left,0,191,191,191,2018-11-02 15:30:40.615492,2018-11-02 15:30:44.518715,0:00:03.903223,5,right,0,0.26721743339021486,24,m,1,21,2018_Nov_02_1509,MP_PerceptionTuring2,59.950834530955156,
193,resources/videos_generated\model(vcgpdm)-dataset(walking)-mode(ELBO)-parts(2)-dyn(26)-lvm(19)_final(7).mov,resources/videos_natural\training(13).mov,True,False,right,0,192,192,192,2018-11-02 15:30:45.902794,2018-11-02 15:30:49.808017,0:00:03.905223,5,right,1,0.2337654475850286,24,m,1,21,2018_Nov_02_1509,MP_PerceptionTuring2,59.950834530955156,
194,resources/videos_generated\model(vcgpdm)-dataset(walking)-mode(ELBO)-parts(1)-dyn(24)-lvm(27)_final(4).mov,resources/videos_natural\training(23).mov,True,True,left,0,193,193,193,2018-11-02 15:30:51.158095,2018-11-02 15:30:55.077319,0:00:03.919224,5,left,1,0.283782298263759,24,m,1,21,2018_Nov_02_1509,MP_PerceptionTuring2,59.950834530955156,
195,resources/videos_generated\model(vcgpdm)-dataset(walking)-mode(ELBO)-parts(1)-dyn(23)-lvm(24)_final(7).mov,resources/videos_natural\training(12).mov,True,False,right,0,194,194,194,2018-11-02 15:30:56.479399,2018-11-02 15:31:00.398623,0:00:03.919224,5,right,1,0.3672529417908663,24,m,1,21,2018_Nov_02_1509,MP_PerceptionTuring2,59.950834530955156,
196,resources/videos_generated\model(vcgpdm)-dataset(walking)-mode(ELBO)-parts(1)-dyn(28)-lvm(27)_final(9).mov,resources/videos_natural\training(36).mov,False,True,left,0,195,195,195,2018-11-02 15:31:01.883708,2018-11-02 15:31:05.803932,0:00:03.920224,5,right,0,0.3838620792266738,24,m,1,21,2018_Nov_02_1509,MP_PerceptionTuring2,59.950834530955156,
197,resources/videos_generated\model(tmp)-dataset(walking)-numprim(12)_final(0).mov,resources/videos_natural\training(35).mov,False,True,left,0,196,196,196,2018-11-02 15:31:07.305018,2018-11-02 15:31:11.225242,0:00:03.920224,5,right,0,0.30052214516490494,24,m,1,21,2018_Nov_02_1509,MP_PerceptionTuring2,59.950834530955156,
198,resources/videos_generated\model(vcgpdm)-dataset(walking)-mode(ELBO)-parts(1)-dyn(23)-lvm(22)_final(9)_fail.mov,resources/videos_natural\training(43).mov,False,False,right,0,197,197,197,2018-11-02 15:31:12.643323,2018-11-02 15:31:16.746558,0:00:04.103235,5,right,1,0.367255652356107,24,m,1,21,2018_Nov_02_1509,MP_PerceptionTuring2,59.950834530955156,
199,resources/videos_generated\model(vcgpdm)-dataset(walking)-mode(ELBO)-parts(1)-dyn(26)-lvm(25)_final(1).mov,resources/videos_natural\training(20).mov,False,False,right,0,198,198,198,2018-11-02 15:31:18.230643,2018-11-02 15:31:22.134866,0:00:03.904223,5,right,1,0.45094253873321577,24,m,1,21,2018_Nov_02_1509,MP_PerceptionTuring2,59.950834530955156,
200,resources/videos_generated\model(vcgpdm)-dataset(walking)-mode(ELBO)-parts(1)-dyn(24)-lvm(27)_final(6).mov,resources/videos_natural\training(31).mov,True,True,left,0,199,199,199,2018-11-02 15:31:23.702956,2018-11-02 15:31:27.806191,0:00:04.103235,5,left,1,0.30050648412270675,24,m,1,21,2018_Nov_02_1509,MP_PerceptionTuring2,59.950834530955156,
201,resources/videos_generated\model(vcgpdm)-dataset(walking)-mode(ELBO)-parts(1)-dyn(25)-lvm(28)_final(8).mov,resources/videos_natural\training(4).mov,True,True,left,0,200,200,200,2018-11-02 15:31:29.224272,2018-11-02 15:31:33.127495,0:00:03.903223,5,left,1,0.2671602103519035,24,m,1,21,2018_Nov_02_1509,MP_PerceptionTuring2,59.950834530955156,
202,resources/videos_generated\model(vcgpdm)-dataset(walking)-mode(ELBO)-parts(2)-dyn(22)-lvm(21)_final(3).mov,resources/videos_natural\training(8).mov,True,True,left,0,201,201,201,2018-11-02 15:31:34.511574,2018-11-02 15:31:38.398797,0:00:03.887223,5,left,1,0.23368292594022932,24,m,1,21,2018_Nov_02_1509,MP_PerceptionTuring2,59.950834530955156,
203,resources/videos_generated\model(vcgpdm)-dataset(walking)-mode(ELBO)-parts(2)-dyn(22)-lvm(19)_final(9).mov,resources/videos_natural\training(8).mov,True,True,left,0,202,202,202,2018-11-02 15:31:39.749874,2018-11-02 15:31:43.720101,0:00:03.970227,5,left,1,0.28381060860920115,24,m,1,21,2018_Nov_02_1509,MP_PerceptionTuring2,59.950834530955156,
204,resources/videos_generated\model(dmp)-dataset(walking)-npsi(90)_final(8).mov,resources/videos_natural\training(20).mov,True,False,right,0,203,203,203,2018-11-02 15:31:45.121181,2018-11-02 15:31:49.208415,0:00:04.087234,5,right,1,0.26719635121844476,24,m,1,21,2018_Nov_02_1509,MP_PerceptionTuring2,59.950834530955156,
205,resources/videos_generated\model(vcgpdm)-dataset(walking)-mode(ELBO)-parts(2)-dyn(26)-lvm(17)_final(9).mov,resources/videos_natural\training(42).mov,False,True,left,0,204,204,204,2018-11-02 15:31:50.592494,2018-11-02 15:31:54.562721,0:00:03.970227,5,left,1,0.25047397240268765,24,m,1,21,2018_Nov_02_1509,MP_PerceptionTuring2,59.950834530955156,
206,resources/videos_generated\model(vcgpdm)-dataset(walking)-mode(ELBO)-parts(2)-dyn(25)-lvm(20)_final(1).mov,resources/videos_natural\training(37).mov,True,False,right,0,205,205,205,2018-11-02 15:31:55.930799,2018-11-02 15:31:59.851024,0:00:03.920225,5,left,0,0.3671029571960389,24,m,1,21,2018_Nov_02_1509,MP_PerceptionTuring2,59.950834530955156,
207,resources/videos_generated\model(tmp)-dataset(walking)-numprim(15)_final(4).mov,resources/videos_natural\training(16).mov,False,True,left,0,206,206,206,2018-11-02 15:32:01.335108,2018-11-02 15:32:05.422342,0:00:04.087234,5,right,0,0.28387265042965737,24,m,1,21,2018_Nov_02_1509,MP_PerceptionTuring2,59.950834530955156,
208,resources/videos_generated\model(vcgpdm)-dataset(walking)-mode(ELBO)-parts(1)-dyn(24)-lvm(25)_final(2).mov,resources/videos_natural\training(46).mov,False,False,right,0,207,207,207,2018-11-02 15:32:06.823422,2018-11-02 15:32:10.876654,0:00:04.053232,5,left,0,0.23386061853307183,24,m,1,21,2018_Nov_02_1509,MP_PerceptionTuring2,59.950834530955156,
209,resources/videos_generated\model(vcgpdm)-dataset(walking)-mode(ELBO)-parts(1)-dyn(24)-lvm(23)_final(0).mov,resources/videos_natural\training(48).mov,True,True,left,0,208,208,208,2018-11-02 15:32:12.227731,2018-11-02 15:32:16.264962,0:00:04.037231,5,left,1,0.23373834193535004,24,m,1,21,2018_Nov_02_1509,MP_PerceptionTuring2,59.950834530955156,
210,resources/videos_generated\model(vcgpdm)-dataset(walking)-mode(ELBO)-parts(2)-dyn(24)-lvm(21)_final(9).mov,resources/videos_natural\training(30).mov,True,False,right,0,209,209,209,2018-11-02 15:32:17.616040,2018-11-02 15:32:21.552265,0:00:03.936225,5,right,1,0.2338377293172016,24,m,1,21,2018_Nov_02_1509,MP_PerceptionTuring2,59.950834530955156,
211,resources/videos_generated\model(vcgpdm)-dataset(walking)-mode(ELBO)-parts(2)-dyn(27)-lvm(18)_final(3).mov,resources/videos_natural\training(5).mov,False,True,left,0,210,210,210,2018-11-02 15:32:22.903342,2018-11-02 15:32:26.973575,0:00:04.070233,5,left,1,0.35065374309397157,24,m,1,21,2018_Nov_02_1509,MP_PerceptionTuring2,59.950834530955156,
212,resources/videos_generated\model(vcgpdm)-dataset(walking)-mode(ELBO)-parts(1)-dyn(26)-lvm(23)_final(3)_fail.mov,resources/videos_natural\training(39).mov,True,False,right,0,211,211,211,2018-11-02 15:32:28.441659,2018-11-02 15:32:32.378884,0:00:03.937225,5,right,1,0.3340976122635766,24,m,1,21,2018_Nov_02_1509,MP_PerceptionTuring2,59.950834530955156,
213,resources/videos_generated\model(vcgpdm)-dataset(walking)-mode(ELBO)-parts(2)-dyn(22)-lvm(17)_final(1).mov,resources/videos_natural\training(18).mov,True,True,left,0,212,212,212,2018-11-02 15:32:33.829967,2018-11-02 15:32:37.750191,0:00:03.920224,5,left,1,0.2673348912057918,24,m,1,21,2018_Nov_02_1509,MP_PerceptionTuring2,59.950834530955156,
214,resources/videos_generated\model(vcgpdm)-dataset(walking)-mode(ELBO)-parts(2)-dyn(24)-lvm(19)_final(5).mov,resources/videos_natural\training(0).mov,True,True,left,0,213,213,213,2018-11-02 15:32:39.134270,2018-11-02 15:32:43.254506,0:00:04.120236,5,left,1,0.16706687656460417,24,m,1,21,2018_Nov_02_1509,MP_PerceptionTuring2,59.950834530955156,
215,resources/videos_generated\model(vcgpdm)-dataset(walking)-mode(ELBO)-parts(1)-dyn(26)-lvm(27)_final(3).mov,resources/videos_natural\training(19).mov,False,True,left,0,214,214,214,2018-11-02 15:32:44.539580,2018-11-02 15:32:48.458804,0:00:03.919224,5,left,1,0.1837790154686445,24,m,1,21,2018_Nov_02_1509,MP_PerceptionTuring2,59.950834530955156,
216,resources/videos_generated\model(vcgpdm)-dataset(walking)-mode(ELBO)-parts(1)-dyn(24)-lvm(27)_final(8).mov,resources/videos_natural\training(28).mov,True,True,left,0,215,215,215,2018-11-02 15:32:49.759878,2018-11-02 15:32:53.864113,0:00:04.104235,5,left,1,0.3839180975692216,24,m,1,21,2018_Nov_02_1509,MP_PerceptionTuring2,59.950834530955156,
217,resources/videos_generated\model(vcgpdm)-dataset(walking)-mode(ELBO)-parts(1)-dyn(22)-lvm(28)_final(7).mov,resources/videos_natural\training(11).mov,True,False,right,0,216,216,216,2018-11-02 15:32:55.365199,2018-11-02 15:32:59.452433,0:00:04.087234,5,left,0,0.3838780414425855,24,m,1,21,2018_Nov_02_1509,MP_PerceptionTuring2,59.950834530955156,
218,resources/videos_generated\model(vcgpdm)-dataset(walking)-mode(ELBO)-parts(1)-dyn(22)-lvm(22)_final(0).mov,resources/videos_natural\training(9).mov,True,False,right,0,217,217,217,2018-11-02 15:33:00.953518,2018-11-02 15:33:04.856742,0:00:03.903224,5,left,0,0.3672800474405449,24,m,1,21,2018_Nov_02_1509,MP_PerceptionTuring2,59.950834530955156,
219,resources/videos_generated\model(vcgpdm)-dataset(walking)-mode(ELBO)-parts(2)-dyn(25)-lvm(18)_final(7).mov,resources/videos_natural\training(6).mov,False,True,left,0,218,218,218,2018-11-02 15:33:06.340827,2018-11-02 15:33:10.261051,0:00:03.920224,5,left,1,0.2337853250610351,24,m,1,21,2018_Nov_02_1509,MP_PerceptionTuring2,59.950834530955156,
220,resources/videos_generated\model(vcgpdm)-dataset(walking)-mode(ELBO)-parts(1)-dyn(28)-lvm(23)_final(9).mov,resources/videos_natural\training(38).mov,False,False,right,0,219,219,219,2018-11-02 15:33:11.612128,2018-11-02 15:33:15.732364,0:00:04.120236,5,right,1,0.2671900265668228,24,m,1,21,2018_Nov_02_1509,MP_PerceptionTuring2,59.950834530955156,
221,resources/videos_generated\model(vcgpdm)-dataset(walking)-mode(ELBO)-parts(1)-dyn(25)-lvm(26)_final(0).mov,resources/videos_natural\training(32).mov,False,True,left,0,220,220,220,2018-11-02 15:33:17.117443,2018-11-02 15:33:21.053668,0:00:03.936225,5,left,1,0.2503550087167241,24,m,1,21,2018_Nov_02_1509,MP_PerceptionTuring2,59.950834530955156,
222,resources/videos_generated\model(vcgpdm)-dataset(walking)-mode(ELBO)-parts(2)-dyn(24)-lvm(23)_final(7).mov,resources/videos_natural\training(29).mov,True,True,left,0,221,221,221,2018-11-02 15:33:22.421746,2018-11-02 15:33:26.308969,0:00:03.887223,5,left,1,0.2672945339045327,24,m,1,21,2018_Nov_02_1509,MP_PerceptionTuring2,59.950834530955156,
223,resources/videos_generated\model(vcgpdm)-dataset(walking)-mode(ELBO)-parts(2)-dyn(25)-lvm(20)_final(3).mov,resources/videos_natural\training(12).mov,False,False,right,0,222,222,222,2018-11-02 15:33:27.693048,2018-11-02 15:33:31.763281,0:00:04.070233,5,right,1,0.2672228545206963,24,m,1,21,2018_Nov_02_1509,MP_PerceptionTuring2,59.950834530955156,
224,resources/videos_generated\model(vcgpdm)-dataset(walking)-mode(ELBO)-parts(2)-dyn(25)-lvm(22)_final(5).mov,resources/videos_natural\training(14).mov,True,True,left,0,223,223,223,2018-11-02 15:33:33.147360,2018-11-02 15:33:37.067584,0:00:03.920224,5,left,1,0.23370581515609956,24,m,1,21,2018_Nov_02_1509,MP_PerceptionTuring2,59.950834530955156,
225,resources/videos_generated\model(dmp)-dataset(walking)-npsi(50)_final(4).mov,resources/videos_natural\training(0).mov,True,True,left,0,224,224,224,2018-11-02 15:33:38.418661,2018-11-02 15:33:42.372887,0:00:03.954226,5,left,1,0.3003757746573683,24,m,1,21,2018_Nov_02_1509,MP_PerceptionTuring2,59.950834530955156,
226,resources/videos_generated\model(vcgpdm)-dataset(walking)-mode(ELBO)-parts(1)-dyn(25)-lvm(24)_final(7).mov,resources/videos_natural\training(18).mov,True,False,right,0,225,225,225,2018-11-02 15:34:15.418778,2018-11-02 15:34:19.521012,0:00:04.102234,6,right,1,0.28371995526958926,24,m,1,21,2018_Nov_02_1509,MP_PerceptionTuring2,59.950834530955156,
227,resources/videos_generated\model(vcgpdm)-dataset(walking)-mode(ELBO)-parts(2)-dyn(27)-lvm(18)_final(9).mov,resources/videos_natural\training(13).mov,False,True,left,0,226,226,226,2018-11-02 15:34:20.922092,2018-11-02 15:34:24.909320,0:00:03.987228,6,left,1,0.2838229567387316,24,m,1,21,2018_Nov_02_1509,MP_PerceptionTuring2,59.950834530955156,
228,resources/videos_generated\model(vcgpdm)-dataset(walking)-mode(ELBO)-parts(1)-dyn(22)-lvm(22)_final(2).mov,resources/videos_natural\training(46).mov,True,False,right,0,227,227,227,2018-11-02 15:34:26.310401,2018-11-02 15:34:30.230625,0:00:03.920224,6,right,1,0.2837557949615075,24,m,1,21,2018_Nov_02_1509,MP_PerceptionTuring2,59.950834530955156,
229,resources/videos_generated\model(vcgpdm)-dataset(walking)-mode(ELBO)-parts(2)-dyn(24)-lvm(17)_final(3).mov,resources/videos_natural\training(9).mov,False,True,left,0,228,228,228,2018-11-02 15:34:31.631705,2018-11-02 15:34:35.551929,0:00:03.920224,6,left,1,0.25049625926931185,24,m,1,21,2018_Nov_02_1509,MP_PerceptionTuring2,59.950834530955156,
230,resources/videos_generated\model(tmp)-dataset(walking)-numprim(14)_final(0).mov,resources/videos_natural\training(43).mov,True,False,right,0,229,229,229,2018-11-02 15:34:36.920007,2018-11-02 15:34:40.823231,0:00:03.903224,6,left,0,0.21716895945337455,24,m,1,21,2018_Nov_02_1509,MP_PerceptionTuring2,59.950834530955156,
231,resources/videos_generated\model(vcgpdm)-dataset(walking)-mode(ELBO)-parts(2)-dyn(24)-lvm(21)_final(3).mov,resources/videos_natural\training(34).mov,False,True,left,0,230,230,230,2018-11-02 15:34:42.157307,2018-11-02 15:34:46.110533,0:00:03.953226,6,left,1,0.33399069553342997,24,m,1,21,2018_Nov_02_1509,MP_PerceptionTuring2,59.950834530955156,
232,resources/videos_generated\model(vcgpdm)-dataset(walking)-mode(ELBO)-parts(1)-dyn(23)-lvm(27)_final(2).mov,resources/videos_natural\training(0).mov,False,False,right,0,231,231,231,2018-11-02 15:34:47.561616,2018-11-02 15:34:51.481840,0:00:03.920224,6,left,0,0.2509413942725587,24,m,1,21,2018_Nov_02_1509,MP_PerceptionTuring2,59.950834530955156,
233,resources/videos_generated\model(vcgpdm)-dataset(walking)-mode(ELBO)-parts(1)-dyn(24)-lvm(27)_final(2).mov,resources/videos_natural\training(47).mov,False,True,left,0,232,232,232,2018-11-02 15:34:52.849918,2018-11-02 15:34:56.753142,0:00:03.903224,6,left,1,0.5007386289535134,24,m,1,21,2018_Nov_02_1509,MP_PerceptionTuring2,59.950834530955156,
234,resources/videos_generated\model(vcgpdm)-dataset(walking)-mode(ELBO)-parts(1)-dyn(22)-lvm(27)_final(8)_fail.mov,resources/videos_natural\training(37).mov,True,False,right,0,233,233,233,2018-11-02 15:34:58.371234,2018-11-02 15:35:02.258457,0:00:03.887223,6,right,1,0.2671571986129493,24,m,1,21,2018_Nov_02_1509,MP_PerceptionTuring2,59.950834530955156,
235,resources/videos_generated\model(vcgpdm)-dataset(walking)-mode(ELBO)-parts(2)-dyn(28)-lvm(17)_final(1).mov,resources/videos_natural\training(39).mov,True,False,right,0,234,234,234,2018-11-02 15:35:03.642536,2018-11-02 15:35:07.579761,0:00:03.937225,6,right,1,0.3006188219833348,24,m,1,21,2018_Nov_02_1509,MP_PerceptionTuring2,59.950834530955156,
236,resources/videos_generated\model(vcgpdm)-dataset(walking)-mode(ELBO)-parts(2)-dyn(23)-lvm(22)_final(9).mov,resources/videos_natural\training(33).mov,False,True,left,0,235,235,235,2018-11-02 15:35:08.996842,2018-11-02 15:35:12.901065,0:00:03.904223,6,left,1,0.3171963361592134,24,m,1,21,2018_Nov_02_1509,MP_PerceptionTuring2,59.950834530955156,
237,resources/videos_generated\model(vcgpdm)-dataset(walking)-mode(ELBO)-parts(2)-dyn(27)-lvm(18)_final(1).mov,resources/videos_natural\training(12).mov,False,True,left,0,236,236,236,2018-11-02 15:35:14.335147,2018-11-02 15:35:18.255372,0:00:03.920225,6,left,1,0.2504444573614819,24,m,1,21,2018_Nov_02_1509,MP_PerceptionTuring2,59.950834530955156,
238,resources/videos_generated\model(vcgpdm)-dataset(walking)-mode(ELBO)-parts(1)-dyn(26)-lvm(23)_final(5).mov,resources/videos_natural\training(15).mov,False,False,right,0,237,237,237,2018-11-02 15:35:19.623450,2018-11-02 15:35:23.559675,0:00:03.936225,6,right,1,0.23380188962528337,24,m,1,21,2018_Nov_02_1509,MP_PerceptionTuring2,59.950834530955156,
239,resources/videos_generated\model(dmp)-dataset(walking)-npsi(80)_final(0).mov,resources/videos_natural\training(38).mov,False,True,left,0,238,238,238,2018-11-02 15:35:24.910752,2018-11-02 15:35:28.830976,0:00:03.920224,6,left,1,0.23381845418862213,24,m,1,21,2018_Nov_02_1509,MP_PerceptionTuring2,59.950834530955156,
240,resources/videos_generated\model(vcgpdm)-dataset(walking)-mode(ELBO)-parts(1)-dyn(23)-lvm(24)_final(9).mov,resources/videos_natural\training(27).mov,True,False,right,0,239,239,239,2018-11-02 15:35:30.182054,2018-11-02 15:35:34.286289,0:00:04.104235,6,right,1,0.2671782807847194,24,m,1,21,2018_Nov_02_1509,MP_PerceptionTuring2,59.950834530955156,
241,resources/videos_generated\model(tmp)-dataset(walking)-numprim(12)_final(8).mov,resources/videos_natural\training(16).mov,True,False,right,0,240,240,240,2018-11-02 15:35:35.670368,2018-11-02 15:35:39.573591,0:00:03.903223,6,left,0,0.26727375290647615,24,m,1,21,2018_Nov_02_1509,MP_PerceptionTuring2,59.950834530955156,
242,resources/videos_generated\model(vcgpdm)-dataset(walking)-mode(ELBO)-parts(1)-dyn(28)-lvm(23)_final(3)_fail.mov,resources/videos_natural\training(7).mov,False,False,right,0,241,241,241,2018-11-02 15:35:40.958670,2018-11-02 15:35:44.911896,0:00:03.953226,6,right,1,0.28379585108905303,24,m,1,21,2018_Nov_02_1509,MP_PerceptionTuring2,59.950834530955156,
243,resources/videos_generated\model(vcgpdm)-dataset(walking)-mode(ELBO)-parts(2)-dyn(23)-lvm(20)_final(1).mov,resources/videos_natural\training(3).mov,True,False,right,0,242,242,242,2018-11-02 15:35:46.312976,2018-11-02 15:35:50.216200,0:00:03.903224,6,right,1,0.26722255334607325,24,m,1,21,2018_Nov_02_1509,MP_PerceptionTuring2,59.950834530955156,
244,resources/videos_generated\model(dmp)-dataset(walking)-npsi(50)_final(2).mov,resources/videos_natural\training(9).mov,False,True,left,0,243,243,243,2018-11-02 15:35:51.601279,2018-11-02 15:35:55.520503,0:00:03.919224,6,right,0,0.30061279850451683,24,m,1,21,2018_Nov_02_1509,MP_PerceptionTuring2,59.950834530955156,
245,resources/videos_generated\model(vcgpdm)-dataset(walking)-mode(ELBO)-parts(1)-dyn(22)-lvm(25)_final(0).mov,resources/videos_natural\training(34).mov,False,False,right,0,244,244,244,2018-11-02 15:35:56.938584,2018-11-02 15:36:00.958814,0:00:04.020230,6,right,1,0.3339147997148757,24,m,1,21,2018_Nov_02_1509,MP_PerceptionTuring2,59.950834530955156,
246,resources/videos_generated\model(vcgpdm)-dataset(walking)-mode(ELBO)-parts(1)-dyn(28)-lvm(23)_final(5).mov,resources/videos_natural\training(24).mov,True,False,right,0,245,245,245,2018-11-02 15:36:02.409897,2018-11-02 15:36:06.314120,0:00:03.904223,6,right,1,0.4004694096183812,24,m,1,21,2018_Nov_02_1509,MP_PerceptionTuring2,59.950834530955156,
247,resources/videos_generated\model(vcgpdm)-dataset(walking)-mode(ELBO)-parts(1)-dyn(26)-lvm(25)_final(9).mov,resources/videos_natural\training(44).mov,True,True,left,0,246,246,246,2018-11-02 15:36:07.831207,2018-11-02 15:36:11.885439,0:00:04.054232,6,left,1,0.5172197674883137,24,m,1,21,2018_Nov_02_1509,MP_PerceptionTuring2,59.950834530955156,
248,resources/videos_generated\model(vcgpdm)-dataset(walking)-mode(ELBO)-parts(1)-dyn(22)-lvm(22)_final(4).mov,resources/videos_natural\training(44).mov,True,True,left,0,247,247,247,2018-11-02 15:36:13.519533,2018-11-02 15:36:17.456758,0:00:03.937225,6,left,1,0.2504104247118448,24,m,1,21,2018_Nov_02_1509,MP_PerceptionTuring2,59.950834530955156,
249,resources/videos_generated\model(tmp)-dataset(walking)-numprim(15)_final(2).mov,resources/videos_natural\training(40).mov,True,True,left,0,248,248,248,2018-11-02 15:36:18.823836,2018-11-02 15:36:22.744060,0:00:03.920224,6,right,0,0.4839650505773534,24,m,1,21,2018_Nov_02_1509,MP_PerceptionTuring2,59.950834530955156,
250,resources/videos_generated\model(vcgpdm)-dataset(walking)-mode(ELBO)-parts(1)-dyn(25)-lvm(23)_final(0).mov,resources/videos_natural\training(41).mov,True,True,left,0,249,249,249,2018-11-02 15:36:24.346152,2018-11-02 15:36:28.382383,0:00:04.036231,6,left,1,0.8510427091678139,24,m,1,21,2018_Nov_02_1509,MP_PerceptionTuring2,59.950834530955156,
251,resources/videos_generated\model(dmp)-dataset(walking)-npsi(60)_final(0).mov,resources/videos_natural\training(31).mov,False,True,left,0,250,250,250,2018-11-02 15:36:30.350495,2018-11-02 15:36:34.421728,0:00:04.071233,6,left,1,0.300542926163871,24,m,1,21,2018_Nov_02_1509,MP_PerceptionTuring2,59.950834530955156,
252,resources/videos_generated\model(vcgpdm)-dataset(walking)-mode(ELBO)-parts(2)-dyn(22)-lvm(21)_final(7).mov,resources/videos_natural\training(32).mov,False,False,right,0,251,251,251,2018-11-02 15:36:35.838809,2018-11-02 15:36:39.759033,0:00:03.920224,6,right,1,0.3840198943426003,24,m,1,21,2018_Nov_02_1509,MP_PerceptionTuring2,59.950834530955156,
253,resources/videos_generated\model(vcgpdm)-dataset(walking)-mode(ELBO)-parts(2)-dyn(24)-lvm(17)_final(7).mov,resources/videos_natural\training(10).mov,False,True,left,0,252,252,252,2018-11-02 15:36:41.260119,2018-11-02 15:36:45.180343,0:00:03.920224,6,left,1,0.30047245147488866,24,m,1,21,2018_Nov_02_1509,MP_PerceptionTuring2,59.950834530955156,
254,resources/videos_generated\model(vcgpdm)-dataset(walking)-mode(ELBO)-parts(1)-dyn(25)-lvm(22)_final(0).mov,resources/videos_natural\training(30).mov,True,False,right,0,253,253,253,2018-11-02 15:36:46.598425,2018-11-02 15:36:50.518649,0:00:03.920224,6,right,1,0.3338479391122746,24,m,1,21,2018_Nov_02_1509,MP_PerceptionTuring2,59.950834530955156,
255,resources/videos_generated\model(vcgpdm)-dataset(walking)-mode(ELBO)-parts(2)-dyn(25)-lvm(22)_final(3).mov,resources/videos_natural\training(17).mov,True,False,right,0,254,254,254,2018-11-02 15:36:51.969732,2018-11-02 15:36:55.956960,0:00:03.987228,6,left,0,0.40060463669215096,24,m,1,21,2018_Nov_02_1509,MP_PerceptionTuring2,59.950834530955156,
256,resources/videos_generated\model(vcgpdm)-dataset(walking)-mode(ELBO)-parts(2)-dyn(26)-lvm(19)_final(5).mov,resources/videos_natural\training(47).mov,True,True,left,0,255,255,255,2018-11-02 15:36:57.474047,2018-11-02 15:37:01.394271,0:00:03.920224,6,left,1,0.6007991347869392,24,m,1,21,2018_Nov_02_1509,MP_PerceptionTuring2,59.950834530955156,
257,resources/videos_generated\model(dmp)-dataset(walking)-npsi(90)_final(4).mov,resources/videos_natural\training(37).mov,False,False,right,0,256,256,256,2018-11-02 15:37:03.112369,2018-11-02 15:37:07.149600,0:00:04.037231,6,right,1,0.25049866866083903,24,m,1,21,2018_Nov_02_1509,MP_PerceptionTuring2,59.950834530955156,
258,resources/videos_generated\model(vcgpdm)-dataset(walking)-mode(ELBO)-parts(2)-dyn(28)-lvm(23)_final(7).mov,resources/videos_natural\training(47).mov,False,False,right,0,257,257,257,2018-11-02 15:37:08.517678,2018-11-02 15:37:12.420902,0:00:03.903224,6,right,1,1.1013221232396972,24,m,1,21,2018_Nov_02_1509,MP_PerceptionTuring2,59.950834530955156,
259,resources/videos_generated\model(vcgpdm)-dataset(walking)-mode(ELBO)-parts(2)-dyn(23)-lvm(22)_final(3).mov,resources/videos_natural\training(38).mov,False,False,right,0,258,258,258,2018-11-02 15:37:14.639028,2018-11-02 15:37:18.593255,0:00:03.954227,6,right,1,0.23388200187855546,24,m,1,21,2018_Nov_02_1509,MP_PerceptionTuring2,59.950834530955156,
260,resources/videos_generated\model(vcgpdm)-dataset(walking)-mode(ELBO)-parts(2)-dyn(23)-lvm(22)_final(1).mov,resources/videos_natural\training(3).mov,True,True,left,0,259,259,259,2018-11-02 15:37:19.944332,2018-11-02 15:37:23.863556,0:00:03.919224,6,left,1,0.3340512314844091,24,m,1,21,2018_Nov_02_1509,MP_PerceptionTuring2,59.950834530955156,
261,resources/videos_generated\model(vcgpdm)-dataset(walking)-mode(ELBO)-parts(1)-dyn(27)-lvm(22)_final(1).mov,resources/videos_natural\training(25).mov,False,True,left,0,260,260,260,2018-11-02 15:37:25.315639,2018-11-02 15:37:29.385872,0:00:04.070233,6,right,0,0.3339144985411622,24,m,1,21,2018_Nov_02_1509,MP_PerceptionTuring2,59.950834530955156,
262,resources/videos_generated\model(dmp)-dataset(walking)-npsi(50)_final(8).mov,resources/videos_natural\training(45).mov,False,True,left,0,261,261,261,2018-11-02 15:37:30.836955,2018-11-02 15:37:34.756179,0:00:03.919224,6,left,1,0.300549250815493,24,m,1,21,2018_Nov_02_1509,MP_PerceptionTuring2,59.950834530955156,
263,resources/videos_generated\model(tmp)-dataset(walking)-numprim(13)_final(0).mov,resources/videos_natural\training(8).mov,False,False,right,0,262,262,262,2018-11-02 15:37:36.174260,2018-11-02 15:37:40.111485,0:00:03.937225,6,right,1,0.4673020030168118,24,m,1,21,2018_Nov_02_1509,MP_PerceptionTuring2,59.950834530955156,
264,resources/videos_generated\model(vcgpdm)-dataset(walking)-mode(ELBO)-parts(2)-dyn(25)-lvm(22)_final(1).mov,resources/videos_natural\training(5).mov,False,False,right,0,263,263,263,2018-11-02 15:37:41.695576,2018-11-02 15:37:45.582798,0:00:03.887222,6,right,1,0.31720115494135825,24,m,1,21,2018_Nov_02_1509,MP_PerceptionTuring2,59.950834530955156,
265,resources/videos_generated\model(vcgpdm)-dataset(walking)-mode(ELBO)-parts(2)-dyn(27)-lvm(20)_final(5).mov,resources/videos_natural\training(46).mov,True,False,right,0,264,264,264,2018-11-02 15:37:47.016880,2018-11-02 15:37:50.921104,0:00:03.904224,6,right,1,0.3006121961570898,24,m,1,21,2018_Nov_02_1509,MP_PerceptionTuring2,59.950834530955156,
266,resources/videos_generated\model(vcgpdm)-dataset(walking)-mode(ELBO)-parts(2)-dyn(28)-lvm(17)_final(5).mov,resources/videos_natural\training(8).mov,True,False,right,0,265,265,265,2018-11-02 15:37:52.338185,2018-11-02 15:37:56.275410,0:00:03.937225,6,right,1,0.4338482101684349,24,m,1,21,2018_Nov_02_1509,MP_PerceptionTuring2,59.950834530955156,
267,resources/videos_generated\model(vcgpdm)-dataset(walking)-mode(ELBO)-parts(1)-dyn(27)-lvm(24)_final(3).mov,resources/videos_natural\training(28).mov,True,True,left,0,266,266,266,2018-11-02 15:37:57.826499,2018-11-02 15:38:01.779725,0:00:03.953226,6,left,1,0.350324258863111,24,m,1,21,2018_Nov_02_1509,MP_PerceptionTuring2,59.950834530955156,
268,resources/videos_generated\model(vcgpdm)-dataset(walking)-mode(ELBO)-parts(2)-dyn(26)-lvm(21)_final(5).mov,resources/videos_natural\training(16).mov,False,False,right,0,267,267,267,2018-11-02 15:38:03.247809,2018-11-02 15:38:07.185034,0:00:03.937225,6,right,1,0.28387746921180224,24,m,1,21,2018_Nov_02_1509,MP_PerceptionTuring2,59.950834530955156,
269,resources/videos_generated\model(vcgpdm)-dataset(walking)-mode(ELBO)-parts(2)-dyn(25)-lvm(18)_final(3).mov,resources/videos_natural\training(25).mov,False,True,left,0,268,268,268,2018-11-02 15:38:08.586114,2018-11-02 15:38:12.489337,0:00:03.903223,6,right,0,0.2171340232825969,24,m,1,21,2018_Nov_02_1509,MP_PerceptionTuring2,59.950834530955156,
270,resources/videos_generated\model(vcgpdm)-dataset(walking)-mode(ELBO)-parts(1)-dyn(28)-lvm(25)_final(9).mov,resources/videos_natural\training(3).mov,False,False,right,0,269,269,269,2018-11-02 15:38:13.823414,2018-11-02 15:38:17.894646,0:00:04.071232,6,left,0,0.383950022001045,24,m,1,21,2018_Nov_02_1509,MP_PerceptionTuring2,59.950834530955156,
271,resources/videos_generated\model(vcgpdm)-dataset(walking)-mode(ELBO)-parts(1)-dyn(23)-lvm(28)_final(2).mov,resources/videos_natural\training(16).mov,False,False,right,0,270,270,270,2018-11-02 15:38:51.172550,2018-11-02 15:38:55.075773,0:00:03.903223,7,right,1,0.26721261460807,24,m,1,21,2018_Nov_02_1509,MP_PerceptionTuring2,59.950834530955156,
272,resources/videos_generated\model(vcgpdm)-dataset(walking)-mode(ELBO)-parts(1)-dyn(28)-lvm(25)_final(3).mov,resources/videos_natural\training(45).mov,True,False,right,0,271,271,271,2018-11-02 15:38:56.460852,2018-11-02 15:39:00.381076,0:00:03.920224,7,left,0,0.26722104747659614,24,m,1,21,2018_Nov_02_1509,MP_PerceptionTuring2,59.950834530955156,
273,resources/videos_generated\model(vcgpdm)-dataset(walking)-mode(ELBO)-parts(1)-dyn(25)-lvm(28)_final(6).mov,resources/videos_natural\training(11).mov,False,True,left,0,272,272,272,2018-11-02 15:39:01.765156,2018-11-02 15:39:05.685380,0:00:03.920224,7,left,1,0.2837350139634509,24,m,1,21,2018_Nov_02_1509,MP_PerceptionTuring2,59.950834530955156,
274,resources/videos_generated\model(vcgpdm)-dataset(walking)-mode(ELBO)-parts(1)-dyn(28)-lvm(27)_final(3).mov,resources/videos_natural\training(2).mov,True,False,right,0,273,273,273,2018-11-02 15:39:07.086460,2018-11-02 15:39:11.006684,0:00:03.920224,7,right,1,0.25038572845369345,24,m,1,21,2018_Nov_02_1509,MP_PerceptionTuring2,59.950834530955156,
275,resources/videos_generated\model(vcgpdm)-dataset(walking)-mode(ELBO)-parts(1)-dyn(25)-lvm(22)_final(2).mov,resources/videos_natural\training(29).mov,False,True,left,0,274,274,274,2018-11-02 15:39:12.374762,2018-11-02 15:39:16.294987,0:00:03.920225,7,left,1,0.35044954719978705,24,m,1,21,2018_Nov_02_1509,MP_PerceptionTuring2,59.950834530955156,
276,resources/videos_generated\model(vcgpdm)-dataset(walking)-mode(ELBO)-parts(1)-dyn(23)-lvm(22)_final(3)_fail.mov,resources/videos_natural\training(6).mov,False,False,right,0,275,275,275,2018-11-02 15:39:17.762071,2018-11-02 15:39:21.665294,0:00:03.903223,7,right,1,0.3507657797799766,24,m,1,21,2018_Nov_02_1509,MP_PerceptionTuring2,59.950834530955156,
277,resources/videos_generated\model(vcgpdm)-dataset(walking)-mode(ELBO)-parts(1)-dyn(26)-lvm(25)_final(3).mov,resources/videos_natural\training(41).mov,True,False,right,0,276,276,276,2018-11-02 15:39:23.133378,2018-11-02 15:39:27.070603,0:00:03.937225,7,right,1,0.28371453414001735,24,m,1,21,2018_Nov_02_1509,MP_PerceptionTuring2,59.950834530955156,
278,resources/videos_generated\model(tmp)-dataset(walking)-numprim(14)_final(2).mov,resources/videos_natural\training(8).mov,True,False,right,0,277,277,277,2018-11-02 15:39:28.471683,2018-11-02 15:39:32.391907,0:00:03.920224,7,left,0,0.25059474313002283,24,m,1,21,2018_Nov_02_1509,MP_PerceptionTuring2,59.950834530955156,
279,resources/videos_generated\model(vcgpdm)-dataset(walking)-mode(ELBO)-parts(1)-dyn(23)-lvm(26)_final(9).mov,resources/videos_natural\training(34).mov,True,False,right,0,278,278,278,2018-11-02 15:39:33.759986,2018-11-02 15:39:37.696211,0:00:03.936225,7,left,0,0.30047486086550634,24,m,1,21,2018_Nov_02_1509,MP_PerceptionTuring2,59.950834530955156,
280,resources/videos_generated\model(vcgpdm)-dataset(walking)-mode(ELBO)-parts(1)-dyn(23)-lvm(22)_final(7).mov,resources/videos_natural\training(34).mov,True,False,right,0,279,279,279,2018-11-02 15:39:39.114292,2018-11-02 15:39:43.017515,0:00:03.903223,7,left,0,0.5673070928560264,24,m,1,21,2018_Nov_02_1509,MP_PerceptionTuring2,59.950834530955156,
281,resources/videos_generated\model(dmp)-dataset(walking)-npsi(60)_final(4).mov,resources/videos_natural\training(31).mov,False,False,right,0,280,280,280,2018-11-02 15:39:44.702612,2018-11-02 15:39:48.606835,0:00:03.904223,7,right,1,0.2338103224938095,24,m,1,21,2018_Nov_02_1509,MP_PerceptionTuring2,59.950834530955156,
282,resources/videos_generated\model(tmp)-dataset(walking)-numprim(13)_final(2).mov,resources/videos_natural\training(29).mov,True,True,left,0,281,281,281,2018-11-02 15:39:49.956912,2018-11-02 15:39:53.844134,0:00:03.887222,7,left,1,0.2504848146618315,24,m,1,21,2018_Nov_02_1509,MP_PerceptionTuring2,59.950834530955156,
283,resources/videos_generated\model(vcgpdm)-dataset(walking)-mode(ELBO)-parts(2)-dyn(27)-lvm(22)_final(1).mov,resources/videos_natural\training(28).mov,False,True,left,0,282,282,282,2018-11-02 15:39:55.211213,2018-11-02 15:39:59.148438,0:00:03.937225,7,left,1,0.3171767598569204,24,m,1,21,2018_Nov_02_1509,MP_PerceptionTuring2,59.950834530955156,
284,resources/videos_generated\model(vcgpdm)-dataset(walking)-mode(ELBO)-parts(2)-dyn(26)-lvm(23)_final(3).mov,resources/videos_natural\training(29).mov,False,True,left,0,283,283,283,2018-11-02 15:40:00.582520,2018-11-02 15:40:04.686755,0:00:04.104235,7,left,1,0.36732160943665804,24,m,1,21,2018_Nov_02_1509,MP_PerceptionTuring2,59.950834530955156,
285,resources/videos_generated\model(vcgpdm)-dataset(walking)-mode(ELBO)-parts(1)-dyn(26)-lvm(23)_final(7).mov,resources/videos_natural\training(1).mov,True,True,left,0,284,284,284,2018-11-02 15:40:06.170839,2018-11-02 15:40:10.124066,0:00:03.953227,7,left,1,0.2671117213567413,24,m,1,21,2018_Nov_02_1509,MP_PerceptionTuring2,59.950834530955156,
286,resources/videos_generated\model(vcgpdm)-dataset(walking)-mode(ELBO)-parts(2)-dyn(28)-lvm(19)_final(7).mov,resources/videos_natural\training(20).mov,False,True,left,0,285,285,285,2018-11-02 15:40:11.509145,2018-11-02 15:40:15.429369,0:00:03.920224,7,left,1,0.21709487067710143,24,m,1,21,2018_Nov_02_1509,MP_PerceptionTuring2,59.950834530955156,
287,resources/videos_generated\model(vcgpdm)-dataset(walking)-mode(ELBO)-parts(2)-dyn(23)-lvm(18)_final(1).mov,resources/videos_natural\training(19).mov,True,True,left,0,286,286,286,2018-11-02 15:40:16.763445,2018-11-02 15:40:20.816677,0:00:04.053232,7,left,1,0.8176702332675632,24,m,1,21,2018_Nov_02_1509,MP_PerceptionTuring2,59.950834530955156,
288,resources/videos_generated\model(vcgpdm)-dataset(walking)-mode(ELBO)-parts(1)-dyn(25)-lvm(24)_final(5).mov,resources/videos_natural\training(15).mov,True,True,left,0,287,287,287,2018-11-02 15:40:22.751788,2018-11-02 15:40:26.655011,0:00:03.903223,7,right,0,0.2671364176148927,24,m,1,21,2018_Nov_02_1509,MP_PerceptionTuring2,59.950834530955156,
289,resources/videos_generated\model(tmp)-dataset(walking)-numprim(13)_final(6).mov,resources/videos_natural\training(42).mov,True,False,right,0,288,288,288,2018-11-02 15:40:28.040090,2018-11-02 15:40:32.126324,0:00:04.086234,7,left,0,0.2504507820131039,24,m,1,21,2018_Nov_02_1509,MP_PerceptionTuring2,59.950834530955156,
290,resources/videos_generated\model(vcgpdm)-dataset(walking)-mode(ELBO)-parts(2)-dyn(22)-lvm(17)_final(3).mov,resources/videos_natural\training(5).mov,True,False,right,0,289,289,289,2018-11-02 15:40:33.494402,2018-11-02 15:40:37.431627,0:00:03.937225,7,right,1,0.3171348966861842,24,m,1,21,2018_Nov_02_1509,MP_PerceptionTuring2,59.950834530955156,
