n_trial,mov_file_generated,mov_file_natural,mirrored,switch_stim_pos,correct_answer,trials.thisRepN,trials.thisTrialN,trials.thisN,trials.thisIndex,stimulus_onset,stimulus_off,stimulus_length,block,response.keys,response.corr,response.rt,age,gender,condition,participant,date,expName,frameRate,
1,resources/videos_generated\model(tmp)-dataset(walking)-numprim(11)_final(5).mov,resources/videos_natural\training(7).mov,False,True,left,0,0,0,0,2018-12-10 12:18:53.806051,2018-12-10 12:18:59.198360,0:00:05.392309,1,right,0,26.439040712207543,21,f,2,22,2018_Dec_10_1217,MP_PerceptionTuring2,59.972437510305056,
2,resources/videos_generated\model(dmp)-dataset(walking)-npsi(70)_final(7).mov,resources/videos_natural\training(25).mov,True,True,left,0,1,1,1,2018-12-10 12:19:26.751936,2018-12-10 12:19:30.705162,0:00:03.953226,1,left,1,0.4005538522699226,21,f,2,22,2018_Dec_10_1217,MP_PerceptionTuring2,59.972437510305056,
3,resources/videos_generated\model(vcgpdm)-dataset(walking)-mode(ELBO)-parts(1)-dyn(22)-lvm(25)_final(5).mov,resources/videos_natural\training(11).mov,False,False,right,0,2,2,2,2018-12-10 12:19:32.223249,2018-12-10 12:19:36.109471,0:00:03.886222,1,right,1,0.3838897957464269,21,f,2,22,2018_Dec_10_1217,MP_PerceptionTuring2,59.972437510305056,
4,resources/videos_generated\model(dmp)-dataset(walking)-npsi(100)_final(7).mov,resources/videos_natural\training(8).mov,False,True,left,0,3,3,3,2018-12-10 12:19:37.610557,2018-12-10 12:19:41.697791,0:00:04.087234,1,right,0,0.5340557406082098,21,f,2,22,2018_Dec_10_1217,MP_PerceptionTuring2,59.972437510305056,
5,resources/videos_generated\model(vcgpdm)-dataset(walking)-mode(ELBO)-parts(1)-dyn(24)-lvm(23)_final(7).mov,resources/videos_natural\training(25).mov,False,False,right,0,4,4,4,2018-12-10 12:19:43.348885,2018-12-10 12:19:47.269109,0:00:03.920224,1,left,0,0.2505424077967291,21,f,2,22,2018_Dec_10_1217,MP_PerceptionTuring2,59.972437510305056,
6,resources/videos_generated\model(vcgpdm)-dataset(walking)-mode(ELBO)-parts(1)-dyn(24)-lvm(27)_final(1).mov,resources/videos_natural\training(40).mov,True,True,left,0,5,5,5,2018-12-10 12:19:48.637188,2018-12-10 12:19:52.674419,0:00:04.037231,1,right,0,0.3672546515758768,21,f,2,22,2018_Dec_10_1217,MP_PerceptionTuring2,59.972437510305056,
7,resources/videos_generated\model(vcgpdm)-dataset(walking)-mode(ELBO)-parts(1)-dyn(25)-lvm(24)_final(6).mov,resources/videos_natural\training(46).mov,True,True,left,0,6,6,6,2018-12-10 12:19:54.158503,2018-12-10 12:19:58.278739,0:00:04.120236,1,right,0,0.4339533426896196,21,f,2,22,2018_Dec_10_1217,MP_PerceptionTuring2,59.972437510305056,
8,resources/videos_generated\model(vcgpdm)-dataset(walking)-mode(ELBO)-parts(2)-dyn(24)-lvm(23)_final(2).mov,resources/videos_natural\training(45).mov,True,True,left,0,7,7,7,2018-12-10 12:19:59.829828,2018-12-10 12:20:03.917062,0:00:04.087234,1,left,1,0.2670287738149,21,f,2,22,2018_Dec_10_1217,MP_PerceptionTuring2,59.972437510305056,
9,resources/videos_generated\model(vcgpdm)-dataset(walking)-mode(ELBO)-parts(1)-dyn(25)-lvm(22)_final(1).mov,resources/videos_natural\training(39).mov,True,False,right,0,8,8,8,2018-12-10 12:20:05.302141,2018-12-10 12:20:09.388374,0:00:04.086233,1,left,0,0.3674419795324866,21,f,2,22,2018_Dec_10_1217,MP_PerceptionTuring2,59.972437510305056,
10,resources/videos_generated\model(vcgpdm)-dataset(walking)-mode(ELBO)-parts(1)-dyn(27)-lvm(24)_final(0).mov,resources/videos_natural\training(33).mov,False,False,right,0,9,9,9,2018-12-10 12:20:10.873459,2018-12-10 12:20:14.959693,0:00:04.086234,1,right,1,0.9176371379178363,21,f,2,22,2018_Dec_10_1217,MP_PerceptionTuring2,59.972437510305056,
11,resources/videos_generated\model(vcgpdm)-dataset(walking)-mode(ELBO)-parts(1)-dyn(23)-lvm(26)_final(2).mov,resources/videos_natural\training(23).mov,True,False,right,0,10,10,10,2018-12-10 12:20:16.994810,2018-12-10 12:20:21.082043,0:00:04.087233,1,left,0,0.2670525662726959,21,f,2,22,2018_Dec_10_1217,MP_PerceptionTuring2,59.972437510305056,
12,resources/videos_generated\model(vcgpdm)-dataset(walking)-mode(ELBO)-parts(1)-dyn(28)-lvm(25)_final(6).mov,resources/videos_natural\training(22).mov,True,False,right,0,11,11,11,2018-12-10 12:20:22.466123,2018-12-10 12:20:26.420349,0:00:03.954226,1,left,0,0.48412109457353836,21,f,2,22,2018_Dec_10_1217,MP_PerceptionTuring2,59.972437510305056,
13,resources/videos_generated\model(vcgpdm)-dataset(walking)-mode(ELBO)-parts(2)-dyn(28)-lvm(19)_final(0).mov,resources/videos_natural\training(22).mov,False,False,right,0,12,12,12,2018-12-10 12:20:28.021440,2018-12-10 12:20:31.907663,0:00:03.886223,1,right,1,0.46749799721715135,21,f,2,22,2018_Dec_10_1217,MP_PerceptionTuring2,59.972437510305056,
14,resources/videos_generated\model(tmp)-dataset(walking)-numprim(14)_final(5).mov,resources/videos_natural\training(19).mov,False,True,left,0,13,13,13,2018-12-10 12:20:33.492753,2018-12-10 12:20:37.395976,0:00:03.903223,1,right,0,0.4839864714278974,21,f,2,22,2018_Dec_10_1217,MP_PerceptionTuring2,59.972437510305056,
15,resources/videos_generated\model(vcgpdm)-dataset(walking)-mode(ELBO)-parts(1)-dyn(25)-lvm(26)_final(7).mov,resources/videos_natural\training(27).mov,True,True,left,0,14,14,14,2018-12-10 12:20:38.997068,2018-12-10 12:20:43.084302,0:00:04.087234,1,right,0,0.41719351399524385,21,f,2,22,2018_Dec_10_1217,MP_PerceptionTuring2,59.972437510305056,
16,resources/videos_generated\model(vcgpdm)-dataset(walking)-mode(ELBO)-parts(2)-dyn(23)-lvm(20)_final(4).mov,resources/videos_natural\training(18).mov,False,True,left,0,15,15,15,2018-12-10 12:20:44.619390,2018-12-10 12:20:48.672621,0:00:04.053231,1,right,0,0.40060234069596845,21,f,2,22,2018_Dec_10_1217,MP_PerceptionTuring2,59.972437510305056,
17,resources/videos_generated\model(vcgpdm)-dataset(walking)-mode(ELBO)-parts(2)-dyn(28)-lvm(17)_final(4).mov,resources/videos_natural\training(16).mov,True,False,right,0,16,16,16,2018-12-10 12:20:50.190708,2018-12-10 12:20:54.293943,0:00:04.103235,1,left,0,0.46732090905265977,21,f,2,22,2018_Dec_10_1217,MP_PerceptionTuring2,59.972437510305056,
18,resources/videos_generated\model(vcgpdm)-dataset(walking)-mode(ELBO)-parts(2)-dyn(22)-lvm(23)_final(4).mov,resources/videos_natural\training(2).mov,True,True,left,0,17,17,17,2018-12-10 12:20:55.879034,2018-12-10 12:20:59.799258,0:00:03.920224,1,right,0,0.46720525963905857,21,f,2,22,2018_Dec_10_1217,MP_PerceptionTuring2,59.972437510305056,
19,resources/videos_generated\model(vcgpdm)-dataset(walking)-mode(ELBO)-parts(1)-dyn(26)-lvm(25)_final(6).mov,resources/videos_natural\training(46).mov,False,True,left,0,18,18,18,2018-12-10 12:21:01.383348,2018-12-10 12:21:05.303573,0:00:03.920225,1,left,1,0.5007444931002283,21,f,2,22,2018_Dec_10_1217,MP_PerceptionTuring2,59.972437510305056,
20,resources/videos_generated\model(vcgpdm)-dataset(walking)-mode(ELBO)-parts(2)-dyn(25)-lvm(18)_final(0).mov,resources/videos_natural\training(17).mov,True,True,left,0,19,19,19,2018-12-10 12:21:06.921665,2018-12-10 12:21:10.824888,0:00:03.903223,1,left,1,0.38461591745544865,21,f,2,22,2018_Dec_10_1217,MP_PerceptionTuring2,59.972437510305056,
21,resources/videos_generated\model(vcgpdm)-dataset(walking)-mode(ELBO)-parts(2)-dyn(23)-lvm(22)_final(4).mov,resources/videos_natural\training(38).mov,True,False,right,0,20,20,20,2018-12-10 12:21:12.325974,2018-12-10 12:21:16.430209,0:00:04.104235,1,right,1,0.4172947072322586,21,f,2,22,2018_Dec_10_1217,MP_PerceptionTuring2,59.972437510305056,
22,resources/videos_generated\model(vcgpdm)-dataset(walking)-mode(ELBO)-parts(2)-dyn(24)-lvm(21)_final(8).mov,resources/videos_natural\training(17).mov,True,True,left,0,21,21,21,2018-12-10 12:21:17.964297,2018-12-10 12:21:21.901522,0:00:03.937225,1,left,1,0.7508911630595776,21,f,2,22,2018_Dec_10_1217,MP_PerceptionTuring2,59.972437510305056,
23,resources/videos_generated\model(vcgpdm)-dataset(walking)-mode(ELBO)-parts(2)-dyn(25)-lvm(22)_final(4).mov,resources/videos_natural\training(37).mov,False,False,right,0,22,22,22,2018-12-10 12:21:23.769629,2018-12-10 12:21:27.689853,0:00:03.920224,1,right,1,2.4689318692439883,21,f,2,22,2018_Dec_10_1217,MP_PerceptionTuring2,59.972437510305056,
24,resources/videos_generated\model(vcgpdm)-dataset(walking)-mode(ELBO)-parts(2)-dyn(22)-lvm(19)_final(0).mov,resources/videos_natural\training(41).mov,True,True,left,0,23,23,23,2018-12-10 12:21:31.276058,2018-12-10 12:21:35.346291,0:00:04.070233,1,left,1,0.584149103415939,21,f,2,22,2018_Dec_10_1217,MP_PerceptionTuring2,59.972437510305056,
25,resources/videos_generated\model(vcgpdm)-dataset(walking)-mode(ELBO)-parts(1)-dyn(24)-lvm(27)_final(9).mov,resources/videos_natural\training(6).mov,True,True,left,0,24,24,24,2018-12-10 12:21:37.047388,2018-12-10 12:21:41.151623,0:00:04.104235,1,right,0,0.2838307663580508,21,f,2,22,2018_Dec_10_1217,MP_PerceptionTuring2,59.972437510305056,
26,resources/videos_generated\model(vcgpdm)-dataset(walking)-mode(ELBO)-parts(1)-dyn(27)-lvm(28)_final(0).mov,resources/videos_natural\training(34).mov,True,True,left,0,25,25,25,2018-12-10 12:21:42.552703,2018-12-10 12:21:46.672939,0:00:04.120236,1,left,1,0.5006728145572197,21,f,2,22,2018_Dec_10_1217,MP_PerceptionTuring2,59.972437510305056,
27,resources/videos_generated\model(vcgpdm)-dataset(walking)-mode(ELBO)-parts(1)-dyn(22)-lvm(23)_final(5).mov,resources/videos_natural\training(48).mov,False,False,right,0,26,26,26,2018-12-10 12:21:48.291031,2018-12-10 12:21:52.227257,0:00:03.936226,1,right,1,0.48392292448443186,21,f,2,22,2018_Dec_10_1217,MP_PerceptionTuring2,59.972437510305056,
28,resources/videos_generated\model(vcgpdm)-dataset(walking)-mode(ELBO)-parts(1)-dyn(26)-lvm(23)_final(4)_fail.mov,resources/videos_natural\training(34).mov,False,True,left,0,27,27,27,2018-12-10 12:21:53.828348,2018-12-10 12:21:57.765573,0:00:03.937225,1,left,1,0.3839271408694458,21,f,2,22,2018_Dec_10_1217,MP_PerceptionTuring2,59.972437510305056,
29,resources/videos_generated\model(tmp)-dataset(walking)-numprim(12)_final(9).mov,resources/videos_natural\training(11).mov,True,False,right,0,28,28,28,2018-12-10 12:21:59.266659,2018-12-10 12:22:03.169882,0:00:03.903223,1,left,0,0.2838364885947158,21,f,2,22,2018_Dec_10_1217,MP_PerceptionTuring2,59.972437510305056,
30,resources/videos_generated\model(vcgpdm)-dataset(walking)-mode(ELBO)-parts(1)-dyn(24)-lvm(25)_final(5).mov,resources/videos_natural\training(16).mov,False,True,left,0,29,29,29,2018-12-10 12:22:04.571963,2018-12-10 12:22:08.542190,0:00:03.970227,1,left,1,0.5174227046302349,21,f,2,22,2018_Dec_10_1217,MP_PerceptionTuring2,59.972437510305056,
31,resources/videos_generated\model(vcgpdm)-dataset(walking)-mode(ELBO)-parts(1)-dyn(22)-lvm(23)_final(7).mov,resources/videos_natural\training(24).mov,False,True,left,0,30,30,30,2018-12-10 12:22:10.176283,2018-12-10 12:22:14.263517,0:00:04.087234,1,left,1,0.40042073497625097,21,f,2,22,2018_Dec_10_1217,MP_PerceptionTuring2,59.972437510305056,
32,resources/videos_generated\model(vcgpdm)-dataset(walking)-mode(ELBO)-parts(2)-dyn(23)-lvm(20)_final(6).mov,resources/videos_natural\training(10).mov,False,True,left,0,31,31,31,2018-12-10 12:22:15.780604,2018-12-10 12:22:19.884838,0:00:04.104234,1,right,0,0.41735915768686027,21,f,2,22,2018_Dec_10_1217,MP_PerceptionTuring2,59.972437510305056,
33,resources/videos_generated\model(vcgpdm)-dataset(walking)-mode(ELBO)-parts(2)-dyn(24)-lvm(19)_final(0).mov,resources/videos_natural\training(8).mov,True,True,left,0,32,32,32,2018-12-10 12:22:21.418926,2018-12-10 12:22:25.373152,0:00:03.954226,1,right,0,0.2671320752442625,21,f,2,22,2018_Dec_10_1217,MP_PerceptionTuring2,59.972437510305056,
34,resources/videos_generated\model(tmp)-dataset(walking)-numprim(13)_final(1).mov,resources/videos_natural\training(30).mov,True,False,right,0,33,33,33,2018-12-10 12:22:26.757232,2018-12-10 12:22:30.777461,0:00:04.020229,1,left,0,0.35040959167326946,21,f,2,22,2018_Dec_10_1217,MP_PerceptionTuring2,59.972437510305056,
35,resources/videos_generated\model(vcgpdm)-dataset(walking)-mode(ELBO)-parts(1)-dyn(25)-lvm(25)_final(7).mov,resources/videos_natural\training(41).mov,True,True,left,0,34,34,34,2018-12-10 12:22:32.245545,2018-12-10 12:22:36.131768,0:00:03.886223,1,left,1,0.31720465729858915,21,f,2,22,2018_Dec_10_1217,MP_PerceptionTuring2,59.972437510305056,
36,resources/videos_generated\model(vcgpdm)-dataset(walking)-mode(ELBO)-parts(2)-dyn(27)-lvm(20)_final(4).mov,resources/videos_natural\training(42).mov,True,False,right,0,35,35,35,2018-12-10 12:22:37.567850,2018-12-10 12:22:41.637083,0:00:04.069233,1,left,0,0.9177567025462849,21,f,2,22,2018_Dec_10_1217,MP_PerceptionTuring2,59.972437510305056,
37,resources/videos_generated\model(vcgpdm)-dataset(walking)-mode(ELBO)-parts(1)-dyn(22)-lvm(23)_final(9).mov,resources/videos_natural\training(18).mov,False,False,right,0,36,36,36,2018-12-10 12:22:43.672199,2018-12-10 12:22:47.608424,0:00:03.936225,1,right,1,0.4006140863393739,21,f,2,22,2018_Dec_10_1217,MP_PerceptionTuring2,59.972437510305056,
38,resources/videos_generated\model(vcgpdm)-dataset(walking)-mode(ELBO)-parts(2)-dyn(27)-lvm(18)_final(4).mov,resources/videos_natural\training(1).mov,True,False,right,0,37,37,37,2018-12-10 12:22:49.126511,2018-12-10 12:22:53.013733,0:00:03.887222,1,left,0,0.517578409700036,21,f,2,22,2018_Dec_10_1217,MP_PerceptionTuring2,59.972437510305056,
39,resources/videos_generated\model(tmp)-dataset(walking)-numprim(13)_final(7).mov,resources/videos_natural\training(33).mov,True,True,left,0,38,38,38,2018-12-10 12:22:54.647827,2018-12-10 12:22:58.535049,0:00:03.887222,1,left,1,0.3172290520965362,21,f,2,22,2018_Dec_10_1217,MP_PerceptionTuring2,59.972437510305056,
40,resources/videos_generated\model(vcgpdm)-dataset(walking)-mode(ELBO)-parts(1)-dyn(25)-lvm(26)_final(9).mov,resources/videos_natural\training(16).mov,False,True,left,0,39,39,39,2018-12-10 12:22:59.969131,2018-12-10 12:23:03.872354,0:00:03.903223,1,right,0,0.43410362669328606,21,f,2,22,2018_Dec_10_1217,MP_PerceptionTuring2,59.972437510305056,
41,resources/videos_generated\model(vcgpdm)-dataset(walking)-mode(ELBO)-parts(2)-dyn(28)-lvm(19)_final(2).mov,resources/videos_natural\training(31).mov,False,False,right,0,40,40,40,2018-12-10 12:23:05.424443,2018-12-10 12:23:09.327666,0:00:03.903223,1,right,1,0.36725615742761875,21,f,2,22,2018_Dec_10_1217,MP_PerceptionTuring2,59.972437510305056,
42,resources/videos_generated\model(vcgpdm)-dataset(walking)-mode(ELBO)-parts(2)-dyn(26)-lvm(17)_final(0).mov,resources/videos_natural\training(27).mov,False,True,left,0,41,41,41,2018-12-10 12:23:10.811751,2018-12-10 12:23:14.748977,0:00:03.937226,1,left,1,0.35082279739071964,21,f,2,22,2018_Dec_10_1217,MP_PerceptionTuring2,59.972437510305056,
43,resources/videos_generated\model(vcgpdm)-dataset(walking)-mode(ELBO)-parts(2)-dyn(26)-lvm(19)_final(2).mov,resources/videos_natural\training(44).mov,True,True,left,0,42,42,42,2018-12-10 12:23:16.217060,2018-12-10 12:23:20.137285,0:00:03.920225,1,left,1,0.3339551497119828,21,f,2,22,2018_Dec_10_1217,MP_PerceptionTuring2,59.972437510305056,
44,resources/videos_generated\model(vcgpdm)-dataset(walking)-mode(ELBO)-parts(2)-dyn(23)-lvm(20)_final(0).mov,resources/videos_natural\training(23).mov,False,True,left,0,43,43,43,2018-12-10 12:23:21.588368,2018-12-10 12:23:25.491591,0:00:03.903223,1,left,1,0.43396508833302505,21,f,2,22,2018_Dec_10_1217,MP_PerceptionTuring2,59.972437510305056,
45,resources/videos_generated\model(vcgpdm)-dataset(walking)-mode(ELBO)-parts(1)-dyn(23)-lvm(28)_final(1).mov,resources/videos_natural\training(11).mov,True,True,left,0,44,44,44,2018-12-10 12:23:27.042680,2018-12-10 12:23:31.096912,0:00:04.054232,1,right,0,1.3013555677362092,21,f,2,22,2018_Dec_10_1217,MP_PerceptionTuring2,59.972437510305056,
46,resources/videos_generated\model(vcgpdm)-dataset(walking)-mode(ELBO)-parts(2)-dyn(24)-lvm(21)_final(4).mov,resources/videos_natural\training(13).mov,False,False,right,0,45,45,45,2018-12-10 12:24:06.743950,2018-12-10 12:24:10.847185,0:00:04.103235,2,right,1,0.3504631999949197,21,f,2,22,2018_Dec_10_1217,MP_PerceptionTuring2,59.972437510305056,
47,resources/videos_generated\model(vcgpdm)-dataset(walking)-mode(ELBO)-parts(1)-dyn(22)-lvm(25)_final(3).mov,resources/videos_natural\training(0).mov,True,True,left,0,46,46,46,2018-12-10 12:24:12.315269,2018-12-10 12:24:16.252494,0:00:03.937225,2,left,1,0.33395394503077114,21,f,2,22,2018_Dec_10_1217,MP_PerceptionTuring2,59.972437510305056,
48,resources/videos_generated\model(vcgpdm)-dataset(walking)-mode(ELBO)-parts(1)-dyn(25)-lvm(24)_final(0).mov,resources/videos_natural\training(6).mov,True,False,right,0,47,47,47,2018-12-10 12:24:17.703577,2018-12-10 12:24:21.623802,0:00:03.920225,2,left,0,0.28393195959506556,21,f,2,22,2018_Dec_10_1217,MP_PerceptionTuring2,59.972437510305056,
49,resources/videos_generated\model(dmp)-dataset(walking)-npsi(50)_final(1).mov,resources/videos_natural\training(5).mov,False,False,right,0,48,48,48,2018-12-10 12:24:23.024882,2018-12-10 12:24:26.911104,0:00:03.886222,2,right,1,0.35058939037116943,21,f,2,22,2018_Dec_10_1217,MP_PerceptionTuring2,59.972437510305056,
50,resources/videos_generated\model(vcgpdm)-dataset(walking)-mode(ELBO)-parts(1)-dyn(23)-lvm(24)_final(8).mov,resources/videos_natural\training(42).mov,True,False,right,0,49,49,49,2018-12-10 12:24:28.379188,2018-12-10 12:24:32.316413,0:00:03.937225,2,right,1,0.48405272890477136,21,f,2,22,2018_Dec_10_1217,MP_PerceptionTuring2,59.972437510305056,
51,resources/videos_generated\model(vcgpdm)-dataset(walking)-mode(ELBO)-parts(1)-dyn(26)-lvm(25)_final(0).mov,resources/videos_natural\training(34).mov,False,True,left,0,50,50,50,2018-12-10 12:24:33.917505,2018-12-10 12:24:37.803727,0:00:03.886222,2,left,1,0.41728537095150386,21,f,2,22,2018_Dec_10_1217,MP_PerceptionTuring2,59.972437510305056,
52,resources/videos_generated\model(dmp)-dataset(walking)-npsi(50)_final(3).mov,resources/videos_natural\training(18).mov,True,True,left,0,51,51,51,2018-12-10 12:24:39.338815,2018-12-10 12:24:43.259039,0:00:03.920224,2,left,1,0.6506583583804968,21,f,2,22,2018_Dec_10_1217,MP_PerceptionTuring2,59.972437510305056,
53,resources/videos_generated\model(vcgpdm)-dataset(walking)-mode(ELBO)-parts(2)-dyn(26)-lvm(19)_final(8).mov,resources/videos_natural\training(35).mov,True,False,right,0,52,52,52,2018-12-10 12:24:45.027140,2018-12-10 12:24:48.947364,0:00:03.920224,2,right,1,0.5508652624098431,21,f,2,22,2018_Dec_10_1217,MP_PerceptionTuring2,59.972437510305056,
54,resources/videos_generated\model(vcgpdm)-dataset(walking)-mode(ELBO)-parts(1)-dyn(25)-lvm(28)_final(3).mov,resources/videos_natural\training(31).mov,True,False,right,0,53,53,53,2018-12-10 12:24:50.622460,2018-12-10 12:24:54.501682,0:00:03.879222,2,right,1,0.4672076690017093,21,f,2,22,2018_Dec_10_1217,MP_PerceptionTuring2,59.972437510305056,
55,resources/videos_generated\model(tmp)-dataset(walking)-numprim(12)_final(3).mov,resources/videos_natural\training(33).mov,False,True,left,0,54,54,54,2018-12-10 12:24:56.086773,2018-12-10 12:25:00.006997,0:00:03.920224,2,left,1,0.6673811431219292,21,f,2,22,2018_Dec_10_1217,MP_PerceptionTuring2,59.972437510305056,
56,resources/videos_generated\model(vcgpdm)-dataset(walking)-mode(ELBO)-parts(1)-dyn(28)-lvm(23)_final(6)_fail.mov,resources/videos_natural\training(30).mov,False,True,left,0,55,55,55,2018-12-10 12:25:01.791099,2018-12-10 12:25:05.828330,0:00:04.037231,2,left,1,0.9843584168074813,21,f,2,22,2018_Dec_10_1217,MP_PerceptionTuring2,59.972437510305056,
57,resources/videos_generated\model(vcgpdm)-dataset(walking)-mode(ELBO)-parts(1)-dyn(25)-lvm(22)_final(9).mov,resources/videos_natural\training(47).mov,False,True,left,0,56,56,56,2018-12-10 12:25:07.930450,2018-12-10 12:25:11.983682,0:00:04.053232,2,left,1,0.46725073636116576,21,f,2,22,2018_Dec_10_1217,MP_PerceptionTuring2,59.972437510305056,
58,resources/videos_generated\model(vcgpdm)-dataset(walking)-mode(ELBO)-parts(2)-dyn(26)-lvm(21)_final(0).mov,resources/videos_natural\training(4).mov,False,True,left,0,57,57,57,2018-12-10 12:25:13.567773,2018-12-10 12:25:17.487997,0:00:03.920224,2,left,1,0.5840572464599063,21,f,2,22,2018_Dec_10_1217,MP_PerceptionTuring2,59.972437510305056,
59,resources/videos_generated\model(vcgpdm)-dataset(walking)-mode(ELBO)-parts(2)-dyn(25)-lvm(20)_final(6).mov,resources/videos_natural\training(31).mov,False,True,left,0,58,58,58,2018-12-10 12:25:19.190094,2018-12-10 12:25:23.093317,0:00:03.903223,2,right,0,0.2837096958778602,21,f,2,22,2018_Dec_10_1217,MP_PerceptionTuring2,59.972437510305056,
60,resources/videos_generated\model(dmp)-dataset(walking)-npsi(90)_final(5).mov,resources/videos_natural\training(32).mov,False,False,right,0,59,59,59,2018-12-10 12:25:24.494398,2018-12-10 12:25:28.397621,0:00:03.903223,2,left,0,0.30048398074950455,21,f,2,22,2018_Dec_10_1217,MP_PerceptionTuring2,59.972437510305056,
61,resources/videos_generated\model(vcgpdm)-dataset(walking)-mode(ELBO)-parts(2)-dyn(27)-lvm(22)_final(0).mov,resources/videos_natural\training(12).mov,True,True,left,0,60,60,60,2018-12-10 12:25:29.815702,2018-12-10 12:25:33.902936,0:00:04.087234,2,left,1,0.3839286467209604,21,f,2,22,2018_Dec_10_1217,MP_PerceptionTuring2,59.972437510305056,
62,resources/videos_generated\model(vcgpdm)-dataset(walking)-mode(ELBO)-parts(2)-dyn(24)-lvm(21)_final(2).mov,resources/videos_natural\training(29).mov,False,True,left,0,61,61,61,2018-12-10 12:25:35.404022,2018-12-10 12:25:39.440252,0:00:04.036230,2,right,0,0.43400544515998263,21,f,2,22,2018_Dec_10_1217,MP_PerceptionTuring2,59.972437510305056,
63,resources/videos_generated\model(vcgpdm)-dataset(walking)-mode(ELBO)-parts(2)-dyn(24)-lvm(23)_final(0).mov,resources/videos_natural\training(18).mov,True,True,left,0,62,62,62,2018-12-10 12:25:40.992341,2018-12-10 12:25:44.862563,0:00:03.870222,2,left,1,0.3505836681342771,21,f,2,22,2018_Dec_10_1217,MP_PerceptionTuring2,59.972437510305056,
64,resources/videos_generated\model(vcgpdm)-dataset(walking)-mode(ELBO)-parts(2)-dyn(25)-lvm(18)_final(2).mov,resources/videos_natural\training(21).mov,True,True,left,0,63,63,63,2018-12-10 12:25:46.329646,2018-12-10 12:25:50.299874,0:00:03.970228,2,right,0,0.3673157891566916,21,f,2,22,2018_Dec_10_1217,MP_PerceptionTuring2,59.972437510305056,
65,resources/videos_generated\model(vcgpdm)-dataset(walking)-mode(ELBO)-parts(2)-dyn(27)-lvm(22)_final(2).mov,resources/videos_natural\training(29).mov,False,False,right,0,64,64,64,2018-12-10 12:25:51.784958,2018-12-10 12:25:55.721184,0:00:03.936226,2,right,1,0.4005764400458247,21,f,2,22,2018_Dec_10_1217,MP_PerceptionTuring2,59.972437510305056,
66,resources/videos_generated\model(dmp)-dataset(walking)-npsi(60)_final(1).mov,resources/videos_natural\training(40).mov,True,True,left,0,65,65,65,2018-12-10 12:25:57.239270,2018-12-10 12:26:01.176496,0:00:03.937226,2,right,0,0.38401417909972224,21,f,2,22,2018_Dec_10_1217,MP_PerceptionTuring2,59.972437510305056,
67,resources/videos_generated\model(vcgpdm)-dataset(walking)-mode(ELBO)-parts(1)-dyn(23)-lvm(24)_final(6).mov,resources/videos_natural\training(32).mov,False,True,left,0,66,66,66,2018-12-10 12:26:02.677581,2018-12-10 12:26:06.597806,0:00:03.920225,2,left,1,0.33385757051883047,21,f,2,22,2018_Dec_10_1217,MP_PerceptionTuring2,59.972437510305056,
68,resources/videos_generated\model(vcgpdm)-dataset(walking)-mode(ELBO)-parts(2)-dyn(23)-lvm(18)_final(8).mov,resources/videos_natural\training(29).mov,False,True,left,0,67,67,67,2018-12-10 12:26:08.048889,2018-12-10 12:26:11.986114,0:00:03.937225,2,left,1,0.35066829700190283,21,f,2,22,2018_Dec_10_1217,MP_PerceptionTuring2,59.972437510305056,
69,resources/videos_generated\model(vcgpdm)-dataset(walking)-mode(ELBO)-parts(1)-dyn(25)-lvm(22)_final(5).mov,resources/videos_natural\training(35).mov,True,False,right,0,68,68,68,2018-12-10 12:26:13.453198,2018-12-10 12:26:17.540432,0:00:04.087234,2,right,1,0.3508547214473765,21,f,2,22,2018_Dec_10_1217,MP_PerceptionTuring2,59.972437510305056,
70,resources/videos_generated\model(vcgpdm)-dataset(walking)-mode(ELBO)-parts(1)-dyn(22)-lvm(28)_final(2).mov,resources/videos_natural\training(26).mov,False,False,right,0,69,69,69,2018-12-10 12:26:19.008516,2018-12-10 12:26:22.961742,0:00:03.953226,2,left,0,0.4673142833048587,21,f,2,22,2018_Dec_10_1217,MP_PerceptionTuring2,59.972437510305056,
71,resources/videos_generated\model(vcgpdm)-dataset(walking)-mode(ELBO)-parts(2)-dyn(28)-lvm(23)_final(4)_fail.mov,resources/videos_natural\training(38).mov,True,True,left,0,70,70,70,2018-12-10 12:26:24.546832,2018-12-10 12:26:28.433055,0:00:03.886223,2,left,1,0.28390244490083205,21,f,2,22,2018_Dec_10_1217,MP_PerceptionTuring2,59.972437510305056,
72,resources/videos_generated\model(vcgpdm)-dataset(walking)-mode(ELBO)-parts(1)-dyn(22)-lvm(27)_final(3)_fail.mov,resources/videos_natural\training(37).mov,True,True,left,0,71,71,71,2018-12-10 12:26:29.834135,2018-12-10 12:26:33.754359,0:00:03.920224,2,left,1,0.6674814328480352,21,f,2,22,2018_Dec_10_1217,MP_PerceptionTuring2,59.972437510305056,
73,resources/videos_generated\model(vcgpdm)-dataset(walking)-mode(ELBO)-parts(1)-dyn(26)-lvm(23)_final(0).mov,resources/videos_natural\training(24).mov,False,False,right,0,72,72,72,2018-12-10 12:26:35.539461,2018-12-10 12:26:39.609694,0:00:04.070233,2,right,1,0.4006785367937482,21,f,2,22,2018_Dec_10_1217,MP_PerceptionTuring2,59.972437510305056,
74,resources/videos_generated\model(vcgpdm)-dataset(walking)-mode(ELBO)-parts(2)-dyn(25)-lvm(18)_final(8).mov,resources/videos_natural\training(45).mov,True,True,left,0,73,73,73,2018-12-10 12:26:41.127781,2018-12-10 12:26:45.081007,0:00:03.953226,2,right,0,0.4338916027686537,21,f,2,22,2018_Dec_10_1217,MP_PerceptionTuring2,59.972437510305056,
75,resources/videos_generated\model(dmp)-dataset(walking)-npsi(70)_final(5).mov,resources/videos_natural\training(20).mov,True,False,right,0,74,74,74,2018-12-10 12:26:46.632096,2018-12-10 12:26:50.519318,0:00:03.887222,2,right,1,0.4506806449862779,21,f,2,22,2018_Dec_10_1217,MP_PerceptionTuring2,59.972437510305056,
76,resources/videos_generated\model(vcgpdm)-dataset(walking)-mode(ELBO)-parts(2)-dyn(26)-lvm(17)_final(8).mov,resources/videos_natural\training(20).mov,False,True,left,0,75,75,75,2018-12-10 12:26:52.086408,2018-12-10 12:26:56.123638,0:00:04.037230,2,right,0,0.3839593660964056,21,f,2,22,2018_Dec_10_1217,MP_PerceptionTuring2,59.972437510305056,
77,resources/videos_generated\model(vcgpdm)-dataset(walking)-mode(ELBO)-parts(2)-dyn(28)-lvm(21)_final(6).mov,resources/videos_natural\training(3).mov,True,True,left,0,76,76,76,2018-12-10 12:26:57.624724,2018-12-10 12:27:01.544949,0:00:03.920225,2,left,1,0.3172317626294898,21,f,2,22,2018_Dec_10_1217,MP_PerceptionTuring2,59.972437510305056,
78,resources/videos_generated\model(vcgpdm)-dataset(walking)-mode(ELBO)-parts(1)-dyn(22)-lvm(27)_final(7)_hip-corrected.mov,resources/videos_natural\training(26).mov,False,False,right,0,77,77,77,2018-12-10 12:27:02.980031,2018-12-10 12:27:06.883254,0:00:03.903223,2,left,0,0.41722965443705107,21,f,2,22,2018_Dec_10_1217,MP_PerceptionTuring2,59.972437510305056,
79,resources/videos_generated\model(vcgpdm)-dataset(walking)-mode(ELBO)-parts(1)-dyn(22)-lvm(22)_final(3).mov,resources/videos_natural\training(46).mov,False,True,left,0,78,78,78,2018-12-10 12:27:08.417342,2018-12-10 12:27:12.337566,0:00:03.920224,2,left,1,0.534172293532265,21,f,2,22,2018_Dec_10_1217,MP_PerceptionTuring2,59.972437510305056,
80,resources/videos_generated\model(vcgpdm)-dataset(walking)-mode(ELBO)-parts(1)-dyn(23)-lvm(28)_final(9).mov,resources/videos_natural\training(30).mov,False,False,right,0,79,79,79,2018-12-10 12:27:13.988660,2018-12-10 12:27:17.875883,0:00:03.887223,2,right,1,0.33392021395138727,21,f,2,22,2018_Dec_10_1217,MP_PerceptionTuring2,59.972437510305056,
81,resources/videos_generated\model(dmp)-dataset(walking)-npsi(100)_final(5).mov,resources/videos_natural\training(27).mov,True,True,left,0,80,80,80,2018-12-10 12:27:19.326966,2018-12-10 12:27:23.264191,0:00:03.937225,2,right,0,0.40051801299841827,21,f,2,22,2018_Dec_10_1217,MP_PerceptionTuring2,59.972437510305056,
82,resources/videos_generated\model(vcgpdm)-dataset(walking)-mode(ELBO)-parts(1)-dyn(28)-lvm(25)_final(8).mov,resources/videos_natural\training(44).mov,True,True,left,0,81,81,81,2018-12-10 12:27:24.782278,2018-12-10 12:27:28.701502,0:00:03.919224,2,right,0,0.5172787452038392,21,f,2,22,2018_Dec_10_1217,MP_PerceptionTuring2,59.972437510305056,
83,resources/videos_generated\model(vcgpdm)-dataset(walking)-mode(ELBO)-parts(1)-dyn(24)-lvm(23)_final(5).mov,resources/videos_natural\training(44).mov,True,False,right,0,82,82,82,2018-12-10 12:27:30.336595,2018-12-10 12:27:34.273820,0:00:03.937225,2,right,1,0.31722092049676576,21,f,2,22,2018_Dec_10_1217,MP_PerceptionTuring2,59.972437510305056,
84,resources/videos_generated\model(vcgpdm)-dataset(walking)-mode(ELBO)-parts(1)-dyn(26)-lvm(25)_final(2).mov,resources/videos_natural\training(25).mov,False,False,right,0,83,83,83,2018-12-10 12:27:35.707903,2018-12-10 12:27:39.761134,0:00:04.053231,2,right,1,0.43417952162099027,21,f,2,22,2018_Dec_10_1217,MP_PerceptionTuring2,59.972437510305056,
85,resources/videos_generated\model(tmp)-dataset(walking)-numprim(12)_final(5).mov,resources/videos_natural\training(3).mov,True,False,right,0,84,84,84,2018-12-10 12:27:41.313223,2018-12-10 12:27:45.216446,0:00:03.903223,2,right,1,0.3506183027247971,21,f,2,22,2018_Dec_10_1217,MP_PerceptionTuring2,59.972437510305056,
86,resources/videos_generated\model(vcgpdm)-dataset(walking)-mode(ELBO)-parts(2)-dyn(28)-lvm(23)_final(6).mov,resources/videos_natural\training(36).mov,True,False,right,0,85,85,85,2018-12-10 12:27:46.684530,2018-12-10 12:27:50.604755,0:00:03.920225,2,right,1,0.2837633041999652,21,f,2,22,2018_Dec_10_1217,MP_PerceptionTuring2,59.972437510305056,
87,resources/videos_generated\model(dmp)-dataset(walking)-npsi(80)_final(7).mov,resources/videos_natural\training(9).mov,False,True,left,0,86,86,86,2018-12-10 12:27:52.005835,2018-12-10 12:27:55.975062,0:00:03.969227,2,left,1,0.8008318325009895,21,f,2,22,2018_Dec_10_1217,MP_PerceptionTuring2,59.972437510305056,
88,resources/videos_generated\model(vcgpdm)-dataset(walking)-mode(ELBO)-parts(1)-dyn(28)-lvm(23)_final(0).mov,resources/videos_natural\training(48).mov,True,False,right,0,87,87,87,2018-12-10 12:27:57.894171,2018-12-10 12:28:01.814396,0:00:03.920225,2,right,1,0.4340171908033881,21,f,2,22,2018_Dec_10_1217,MP_PerceptionTuring2,59.972437510305056,
89,resources/videos_generated\model(vcgpdm)-dataset(walking)-mode(ELBO)-parts(1)-dyn(25)-lvm(28)_final(7).mov,resources/videos_natural\training(36).mov,False,True,left,0,88,88,88,2018-12-10 12:28:03.365484,2018-12-10 12:28:07.251707,0:00:03.886223,2,right,0,0.36779434883965223,21,f,2,22,2018_Dec_10_1217,MP_PerceptionTuring2,59.972437510305056,
90,resources/videos_generated\model(vcgpdm)-dataset(walking)-mode(ELBO)-parts(2)-dyn(22)-lvm(21)_final(4).mov,resources/videos_natural\training(30).mov,False,True,left,0,89,89,89,2018-12-10 12:28:08.736792,2018-12-10 12:28:12.790023,0:00:04.053231,2,right,0,0.43380486570777066,21,f,2,22,2018_Dec_10_1217,MP_PerceptionTuring2,59.972437510305056,
91,resources/videos_generated\model(vcgpdm)-dataset(walking)-mode(ELBO)-parts(2)-dyn(28)-lvm(21)_final(0).mov,resources/videos_natural\training(26).mov,False,True,left,0,90,90,90,2018-12-10 12:28:47.102986,2018-12-10 12:28:51.040211,0:00:03.937225,3,right,0,0.3005014486293476,21,f,2,22,2018_Dec_10_1217,MP_PerceptionTuring2,59.972437510305056,
92,resources/videos_generated\model(vcgpdm)-dataset(walking)-mode(ELBO)-parts(2)-dyn(26)-lvm(23)_final(6).mov,resources/videos_natural\training(0).mov,True,False,right,0,91,91,91,2018-12-10 12:28:52.457292,2018-12-10 12:28:56.394518,0:00:03.937226,3,left,0,0.26713508694774646,21,f,2,22,2018_Dec_10_1217,MP_PerceptionTuring2,59.972437510305056,
93,resources/videos_generated\model(vcgpdm)-dataset(walking)-mode(ELBO)-parts(2)-dyn(28)-lvm(17)_final(6).mov,resources/videos_natural\training(46).mov,True,True,left,0,92,92,92,2018-12-10 12:28:57.778597,2018-12-10 12:29:01.698821,0:00:03.920224,3,left,1,0.30026623458797985,21,f,2,22,2018_Dec_10_1217,MP_PerceptionTuring2,59.972437510305056,
94,resources/videos_generated\model(dmp)-dataset(walking)-npsi(90)_final(7).mov,resources/videos_natural\training(39).mov,True,False,right,0,93,93,93,2018-12-10 12:29:03.120902,2018-12-10 12:29:07.204136,0:00:04.083234,3,left,0,0.5006053523998162,21,f,2,22,2018_Dec_10_1217,MP_PerceptionTuring2,59.972437510305056,
95,resources/videos_generated\model(tmp)-dataset(walking)-numprim(13)_final(5).mov,resources/videos_natural\training(45).mov,True,True,left,0,94,94,94,2018-12-10 12:29:08.822228,2018-12-10 12:29:12.742453,0:00:03.920225,3,right,0,0.7175862401290942,21,f,2,22,2018_Dec_10_1217,MP_PerceptionTuring2,59.972437510305056,
96,resources/videos_generated\model(vcgpdm)-dataset(walking)-mode(ELBO)-parts(1)-dyn(23)-lvm(22)_final(0).mov,resources/videos_natural\training(23).mov,False,True,left,0,95,95,95,2018-12-10 12:29:14.576557,2018-12-10 12:29:18.530784,0:00:03.954227,3,right,0,0.3338563658376188,21,f,2,22,2018_Dec_10_1217,MP_PerceptionTuring2,59.972437510305056,
97,resources/videos_generated\model(vcgpdm)-dataset(walking)-mode(ELBO)-parts(1)-dyn(23)-lvm(26)_final(8)_hip-corrected.mov,resources/videos_natural\training(15).mov,False,False,right,0,96,96,96,2018-12-10 12:29:19.981867,2018-12-10 12:29:24.018098,0:00:04.036231,3,right,1,0.31797565338911227,21,f,2,22,2018_Dec_10_1217,MP_PerceptionTuring2,59.972437510305056,
98,resources/videos_generated\model(dmp)-dataset(walking)-npsi(70)_final(3).mov,resources/videos_natural\training(40).mov,True,True,left,0,97,97,97,2018-12-10 12:29:25.453180,2018-12-10 12:29:29.373404,0:00:03.920224,3,right,0,0.5510661430316759,21,f,2,22,2018_Dec_10_1217,MP_PerceptionTuring2,59.972437510305056,
99,resources/videos_generated\model(vcgpdm)-dataset(walking)-mode(ELBO)-parts(2)-dyn(28)-lvm(19)_final(8).mov,resources/videos_natural\training(46).mov,False,True,left,0,98,98,98,2018-12-10 12:29:31.041499,2018-12-10 12:29:34.977724,0:00:03.936225,3,right,0,0.5341048313748615,21,f,2,22,2018_Dec_10_1217,MP_PerceptionTuring2,59.972437510305056,
100,resources/videos_generated\model(vcgpdm)-dataset(walking)-mode(ELBO)-parts(1)-dyn(27)-lvm(26)_final(6).mov,resources/videos_natural\training(39).mov,True,True,left,0,99,99,99,2018-12-10 12:29:36.628819,2018-12-10 12:29:40.583045,0:00:03.954226,3,left,1,0.433862690415026,21,f,2,22,2018_Dec_10_1217,MP_PerceptionTuring2,59.972437510305056,
101,resources/videos_generated\model(vcgpdm)-dataset(walking)-mode(ELBO)-parts(2)-dyn(25)-lvm(20)_final(2).mov,resources/videos_natural\training(15).mov,False,True,left,0,100,100,100,2018-12-10 12:29:42.134134,2018-12-10 12:29:46.037357,0:00:03.903223,3,right,0,0.4507291334120964,21,f,2,22,2018_Dec_10_1217,MP_PerceptionTuring2,59.972437510305056,
102,resources/videos_generated\model(vcgpdm)-dataset(walking)-mode(ELBO)-parts(2)-dyn(22)-lvm(17)_final(4).mov,resources/videos_natural\training(35).mov,False,True,left,0,101,101,101,2018-12-10 12:29:47.605447,2018-12-10 12:29:51.541672,0:00:03.936225,3,left,1,0.4339720152515838,21,f,2,22,2018_Dec_10_1217,MP_PerceptionTuring2,59.972437510305056,
103,resources/videos_generated\model(vcgpdm)-dataset(walking)-mode(ELBO)-parts(1)-dyn(25)-lvm(24)_final(4).mov,resources/videos_natural\training(31).mov,False,False,right,0,102,102,102,2018-12-10 12:29:53.093761,2018-12-10 12:29:57.163993,0:00:04.070232,3,right,1,0.3004020624143777,21,f,2,22,2018_Dec_10_1217,MP_PerceptionTuring2,59.972437510305056,
104,resources/videos_generated\model(vcgpdm)-dataset(walking)-mode(ELBO)-parts(2)-dyn(25)-lvm(18)_final(4).mov,resources/videos_natural\training(46).mov,True,True,left,0,103,103,103,2018-12-10 12:29:58.581074,2018-12-10 12:30:02.485298,0:00:03.904224,3,right,0,0.43384672838692495,21,f,2,22,2018_Dec_10_1217,MP_PerceptionTuring2,59.972437510305056,
105,resources/videos_generated\model(vcgpdm)-dataset(walking)-mode(ELBO)-parts(1)-dyn(25)-lvm(28)_final(1).mov,resources/videos_natural\training(42).mov,True,True,left,0,104,104,104,2018-12-10 12:30:04.036386,2018-12-10 12:30:07.939610,0:00:03.903224,3,left,1,0.4172284497558394,21,f,2,22,2018_Dec_10_1217,MP_PerceptionTuring2,59.972437510305056,
106,resources/videos_generated\model(vcgpdm)-dataset(walking)-mode(ELBO)-parts(2)-dyn(26)-lvm(21)_final(8).mov,resources/videos_natural\training(37).mov,True,False,right,0,105,105,105,2018-12-10 12:30:09.474697,2018-12-10 12:30:13.527929,0:00:04.053232,3,left,0,0.43387805010252123,21,f,2,22,2018_Dec_10_1217,MP_PerceptionTuring2,59.972437510305056,
107,resources/videos_generated\model(vcgpdm)-dataset(walking)-mode(ELBO)-parts(2)-dyn(24)-lvm(23)_final(6).mov,resources/videos_natural\training(48).mov,True,False,right,0,106,106,106,2018-12-10 12:30:15.079018,2018-12-10 12:30:18.982241,0:00:03.903223,3,right,1,0.41732060788217495,21,f,2,22,2018_Dec_10_1217,MP_PerceptionTuring2,59.972437510305056,
108,resources/videos_generated\model(vcgpdm)-dataset(walking)-mode(ELBO)-parts(2)-dyn(25)-lvm(22)_final(0).mov,resources/videos_natural\training(17).mov,False,True,left,0,107,107,107,2018-12-10 12:30:20.517329,2018-12-10 12:30:24.437553,0:00:03.920224,3,right,0,0.4006767297719307,21,f,2,22,2018_Dec_10_1217,MP_PerceptionTuring2,59.972437510305056,
109,resources/videos_generated\model(vcgpdm)-dataset(walking)-mode(ELBO)-parts(2)-dyn(22)-lvm(21)_final(6).mov,resources/videos_natural\training(41).mov,False,False,right,0,108,108,108,2018-12-10 12:30:25.955640,2018-12-10 12:30:29.874864,0:00:03.919224,3,right,1,0.4676000939653022,21,f,2,22,2018_Dec_10_1217,MP_PerceptionTuring2,59.972437510305056,
110,resources/videos_generated\model(vcgpdm)-dataset(walking)-mode(ELBO)-parts(1)-dyn(22)-lvm(22)_final(7).mov,resources/videos_natural\training(0).mov,True,True,left,0,109,109,109,2018-12-10 12:30:31.459955,2018-12-10 12:30:35.380179,0:00:03.920224,3,left,1,0.4505619838696475,21,f,2,22,2018_Dec_10_1217,MP_PerceptionTuring2,59.972437510305056,
111,resources/videos_generated\model(vcgpdm)-dataset(walking)-mode(ELBO)-parts(2)-dyn(22)-lvm(23)_final(6).mov,resources/videos_natural\training(5).mov,False,True,left,0,110,110,110,2018-12-10 12:30:36.948269,2018-12-10 12:30:40.984500,0:00:04.036231,3,left,1,0.8509604322393898,21,f,2,22,2018_Dec_10_1217,MP_PerceptionTuring2,59.972437510305056,
112,resources/videos_generated\model(vcgpdm)-dataset(walking)-mode(ELBO)-parts(1)-dyn(28)-lvm(23)_final(4)_fail.mov,resources/videos_natural\training(21).mov,True,True,left,0,111,111,111,2018-12-10 12:30:42.953612,2018-12-10 12:30:46.906838,0:00:03.953226,3,left,1,0.43387232786608365,21,f,2,22,2018_Dec_10_1217,MP_PerceptionTuring2,59.972437510305056,
113,resources/videos_generated\model(vcgpdm)-dataset(walking)-mode(ELBO)-parts(2)-dyn(22)-lvm(21)_final(2).mov,resources/videos_natural\training(35).mov,True,True,left,0,112,112,112,2018-12-10 12:30:48.457927,2018-12-10 12:30:52.378151,0:00:03.920224,3,right,0,0.3505261445980068,21,f,2,22,2018_Dec_10_1217,MP_PerceptionTuring2,59.972437510305056,
114,resources/videos_generated\model(vcgpdm)-dataset(walking)-mode(ELBO)-parts(1)-dyn(23)-lvm(26)_final(0).mov,resources/videos_natural\training(2).mov,True,False,right,0,113,113,113,2018-12-10 12:30:53.846235,2018-12-10 12:30:57.749459,0:00:03.903224,3,right,1,0.5342448755868645,21,f,2,22,2018_Dec_10_1217,MP_PerceptionTuring2,59.972437510305056,
115,resources/videos_generated\model(dmp)-dataset(walking)-npsi(90)_final(3).mov,resources/videos_natural\training(1).mov,False,False,right,0,114,114,114,2018-12-10 12:30:59.400553,2018-12-10 12:31:03.337778,0:00:03.937225,3,right,1,0.3505255422569462,21,f,2,22,2018_Dec_10_1217,MP_PerceptionTuring2,59.972437510305056,
116,resources/videos_generated\model(vcgpdm)-dataset(walking)-mode(ELBO)-parts(2)-dyn(27)-lvm(18)_final(8).mov,resources/videos_natural\training(19).mov,False,False,right,0,115,115,115,2018-12-10 12:31:04.805862,2018-12-10 12:31:08.892096,0:00:04.086234,3,right,1,0.3838955179826371,21,f,2,22,2018_Dec_10_1217,MP_PerceptionTuring2,59.972437510305056,
117,resources/videos_generated\model(vcgpdm)-dataset(walking)-mode(ELBO)-parts(1)-dyn(25)-lvm(23)_final(2).mov,resources/videos_natural\training(19).mov,False,True,left,0,116,116,116,2018-12-10 12:31:10.393182,2018-12-10 12:31:14.280404,0:00:03.887222,3,left,1,0.3506080629326789,21,f,2,22,2018_Dec_10_1217,MP_PerceptionTuring2,59.972437510305056,
118,resources/videos_generated\model(vcgpdm)-dataset(walking)-mode(ELBO)-parts(1)-dyn(25)-lvm(28)_final(5).mov,resources/videos_natural\training(42).mov,True,False,right,0,117,117,117,2018-12-10 12:31:15.748488,2018-12-10 12:31:19.651711,0:00:03.903223,3,left,0,0.3339057577750282,21,f,2,22,2018_Dec_10_1217,MP_PerceptionTuring2,59.972437510305056,
119,resources/videos_generated\model(dmp)-dataset(walking)-npsi(90)_final(9).mov,resources/videos_natural\training(22).mov,False,True,left,0,118,118,118,2018-12-10 12:31:21.102794,2018-12-10 12:31:25.006018,0:00:03.903224,3,right,0,0.4340641733774646,21,f,2,22,2018_Dec_10_1217,MP_PerceptionTuring2,59.972437510305056,
120,resources/videos_generated\model(vcgpdm)-dataset(walking)-mode(ELBO)-parts(2)-dyn(26)-lvm(23)_final(4).mov,resources/videos_natural\training(22).mov,True,True,left,0,119,119,119,2018-12-10 12:31:26.558106,2018-12-10 12:31:30.494332,0:00:03.936226,3,left,1,0.4006098699546783,21,f,2,22,2018_Dec_10_1217,MP_PerceptionTuring2,59.972437510305056,
121,resources/videos_generated\model(vcgpdm)-dataset(walking)-mode(ELBO)-parts(1)-dyn(24)-lvm(25)_final(1).mov,resources/videos_natural\training(24).mov,True,False,right,0,120,120,120,2018-12-10 12:31:32.012418,2018-12-10 12:31:35.915642,0:00:03.903224,3,right,1,0.3338304651879298,21,f,2,22,2018_Dec_10_1217,MP_PerceptionTuring2,59.972437510305056,
122,resources/videos_generated\model(vcgpdm)-dataset(walking)-mode(ELBO)-parts(2)-dyn(25)-lvm(22)_final(6).mov,resources/videos_natural\training(47).mov,False,False,right,0,121,121,121,2018-12-10 12:31:37.366725,2018-12-10 12:31:41.303950,0:00:03.937225,3,right,1,0.3174049355798161,21,f,2,22,2018_Dec_10_1217,MP_PerceptionTuring2,59.972437510305056,
123,resources/videos_generated\model(vcgpdm)-dataset(walking)-mode(ELBO)-parts(1)-dyn(28)-lvm(27)_final(6).mov,resources/videos_natural\training(44).mov,True,True,left,0,122,122,122,2018-12-10 12:31:42.738032,2018-12-10 12:31:46.642255,0:00:03.904223,3,left,1,0.3339199127813117,21,f,2,22,2018_Dec_10_1217,MP_PerceptionTuring2,59.972437510305056,
124,resources/videos_generated\model(vcgpdm)-dataset(walking)-mode(ELBO)-parts(1)-dyn(23)-lvm(24)_final(0).mov,resources/videos_natural\training(20).mov,True,False,right,0,123,123,123,2018-12-10 12:31:48.093338,2018-12-10 12:31:52.029563,0:00:03.936225,3,right,1,0.45076467151375255,21,f,2,22,2018_Dec_10_1217,MP_PerceptionTuring2,59.972437510305056,
125,resources/videos_generated\model(vcgpdm)-dataset(walking)-mode(ELBO)-parts(2)-dyn(27)-lvm(20)_final(0).mov,resources/videos_natural\training(19).mov,True,False,right,0,124,124,124,2018-12-10 12:31:53.597653,2018-12-10 12:31:57.500876,0:00:03.903223,3,left,0,0.2671227389632804,21,f,2,22,2018_Dec_10_1217,MP_PerceptionTuring2,59.972437510305056,
126,resources/videos_generated\model(vcgpdm)-dataset(walking)-mode(ELBO)-parts(1)-dyn(22)-lvm(25)_final(7).mov,resources/videos_natural\training(11).mov,False,False,right,0,125,125,125,2018-12-10 12:31:58.885955,2018-12-10 12:32:02.956188,0:00:04.070233,3,right,1,0.23365608755602807,21,f,2,22,2018_Dec_10_1217,MP_PerceptionTuring2,59.972437510305056,
127,resources/videos_generated\model(vcgpdm)-dataset(walking)-mode(ELBO)-parts(2)-dyn(25)-lvm(22)_final(8).mov,resources/videos_natural\training(4).mov,True,True,left,0,126,126,126,2018-12-10 12:32:04.307266,2018-12-10 12:32:08.227490,0:00:03.920224,3,right,0,0.3507176889393122,21,f,2,22,2018_Dec_10_1217,MP_PerceptionTuring2,59.972437510305056,
128,resources/videos_generated\model(dmp)-dataset(walking)-npsi(50)_final(7).mov,resources/videos_natural\training(7).mov,False,True,left,0,127,127,127,2018-12-10 12:32:09.694574,2018-12-10 12:32:13.614798,0:00:03.920224,3,left,1,0.3840497172009236,21,f,2,22,2018_Dec_10_1217,MP_PerceptionTuring2,59.972437510305056,
129,resources/videos_generated\model(vcgpdm)-dataset(walking)-mode(ELBO)-parts(1)-dyn(27)-lvm(28)_final(2).mov,resources/videos_natural\training(1).mov,True,True,left,0,128,128,128,2018-12-10 12:32:15.115884,2018-12-10 12:32:19.020107,0:00:03.904223,3,left,1,0.35088694667456366,21,f,2,22,2018_Dec_10_1217,MP_PerceptionTuring2,59.972437510305056,
130,resources/videos_generated\model(vcgpdm)-dataset(walking)-mode(ELBO)-parts(1)-dyn(22)-lvm(22)_final(5).mov,resources/videos_natural\training(35).mov,False,True,left,0,129,129,129,2018-12-10 12:32:20.487191,2018-12-10 12:32:24.407415,0:00:03.920224,3,left,1,0.36720766900180024,21,f,2,22,2018_Dec_10_1217,MP_PerceptionTuring2,59.972437510305056,
131,resources/videos_generated\model(vcgpdm)-dataset(walking)-mode(ELBO)-parts(1)-dyn(25)-lvm(26)_final(5).mov,resources/videos_natural\training(12).mov,False,True,left,0,130,130,130,2018-12-10 12:32:25.892500,2018-12-10 12:32:29.962733,0:00:04.070233,3,right,0,0.4839042519229224,21,f,2,22,2018_Dec_10_1217,MP_PerceptionTuring2,59.972437510305056,
132,resources/videos_generated\model(vcgpdm)-dataset(walking)-mode(ELBO)-parts(1)-dyn(23)-lvm(22)_final(6)_fail.mov,resources/videos_natural\training(26).mov,False,True,left,0,131,131,131,2018-12-10 12:32:31.563825,2018-12-10 12:32:35.484049,0:00:03.920224,3,left,1,0.28378649431670055,21,f,2,22,2018_Dec_10_1217,MP_PerceptionTuring2,59.972437510305056,
133,resources/videos_generated\model(vcgpdm)-dataset(walking)-mode(ELBO)-parts(1)-dyn(24)-lvm(25)_final(3).mov,resources/videos_natural\training(40).mov,False,False,right,0,132,132,132,2018-12-10 12:32:36.885129,2018-12-10 12:32:40.955362,0:00:04.070233,3,right,1,0.31712364247459846,21,f,2,22,2018_Dec_10_1217,MP_PerceptionTuring2,59.972437510305056,
134,resources/videos_generated\model(vcgpdm)-dataset(walking)-mode(ELBO)-parts(1)-dyn(27)-lvm(28)_final(4).mov,resources/videos_natural\training(38).mov,False,True,left,0,133,133,133,2018-12-10 12:32:42.390444,2018-12-10 12:32:46.293667,0:00:03.903223,3,right,0,0.3508860431638823,21,f,2,22,2018_Dec_10_1217,MP_PerceptionTuring2,59.972437510305056,
135,resources/videos_generated\model(vcgpdm)-dataset(walking)-mode(ELBO)-parts(2)-dyn(22)-lvm(21)_final(0).mov,resources/videos_natural\training(39).mov,True,True,left,0,134,134,134,2018-12-10 12:32:47.761751,2018-12-10 12:32:51.814983,0:00:04.053232,3,left,1,0.8676458718578033,21,f,2,22,2018_Dec_10_1217,MP_PerceptionTuring2,59.972437510305056,
136,resources/videos_generated\model(vcgpdm)-dataset(walking)-mode(ELBO)-parts(1)-dyn(23)-lvm(24)_final(2).mov,resources/videos_natural\training(9).mov,False,True,left,0,135,135,135,2018-12-10 12:33:25.526911,2018-12-10 12:33:29.447135,0:00:03.920224,4,left,1,0.36721670411225205,21,f,2,22,2018_Dec_10_1217,MP_PerceptionTuring2,59.972437510305056,
137,resources/videos_generated\model(vcgpdm)-dataset(walking)-mode(ELBO)-parts(1)-dyn(22)-lvm(27)_final(9)_hip-corrected.mov,resources/videos_natural\training(21).mov,False,False,right,0,136,136,136,2018-12-10 12:33:30.932220,2018-12-10 12:33:34.835443,0:00:03.903223,4,right,1,0.3339801468505357,21,f,2,22,2018_Dec_10_1217,MP_PerceptionTuring2,59.972437510305056,
138,resources/videos_generated\model(vcgpdm)-dataset(walking)-mode(ELBO)-parts(2)-dyn(24)-lvm(17)_final(2).mov,resources/videos_natural\training(28).mov,False,False,right,0,137,137,137,2018-12-10 12:33:36.286526,2018-12-10 12:33:40.356759,0:00:04.070233,4,right,1,0.3173612658788443,21,f,2,22,2018_Dec_10_1217,MP_PerceptionTuring2,59.972437510305056,
139,resources/videos_generated\model(vcgpdm)-dataset(walking)-mode(ELBO)-parts(2)-dyn(23)-lvm(22)_final(0).mov,resources/videos_natural\training(44).mov,False,False,right,0,138,138,138,2018-12-10 12:33:41.792841,2018-12-10 12:33:45.695065,0:00:03.902224,4,right,1,0.3004638023357984,21,f,2,22,2018_Dec_10_1217,MP_PerceptionTuring2,59.972437510305056,
140,resources/videos_generated\model(vcgpdm)-dataset(walking)-mode(ELBO)-parts(2)-dyn(27)-lvm(20)_final(8).mov,resources/videos_natural\training(48).mov,False,True,left,0,139,139,139,2018-12-10 12:33:47.113146,2018-12-10 12:33:51.016369,0:00:03.903223,4,right,0,0.4006222179391443,21,f,2,22,2018_Dec_10_1217,MP_PerceptionTuring2,59.972437510305056,
141,resources/videos_generated\model(vcgpdm)-dataset(walking)-mode(ELBO)-parts(2)-dyn(26)-lvm(17)_final(4).mov,resources/videos_natural\training(24).mov,False,False,right,0,140,140,140,2018-12-10 12:33:52.534456,2018-12-10 12:33:56.470681,0:00:03.936225,4,left,0,0.450527048109052,21,f,2,22,2018_Dec_10_1217,MP_PerceptionTuring2,59.972437510305056,
142,resources/videos_generated\model(vcgpdm)-dataset(walking)-mode(ELBO)-parts(1)-dyn(27)-lvm(28)_final(8).mov,resources/videos_natural\training(8).mov,False,True,left,0,141,141,141,2018-12-10 12:33:58.038771,2018-12-10 12:34:02.076002,0:00:04.037231,4,right,0,0.5506728145574016,21,f,2,22,2018_Dec_10_1217,MP_PerceptionTuring2,59.972437510305056,
143,resources/videos_generated\model(vcgpdm)-dataset(walking)-mode(ELBO)-parts(2)-dyn(24)-lvm(19)_final(4).mov,resources/videos_natural\training(32).mov,True,False,right,0,142,142,142,2018-12-10 12:34:03.744097,2018-12-10 12:34:07.647320,0:00:03.903223,4,left,0,1.7517205861977345,21,f,2,22,2018_Dec_10_1217,MP_PerceptionTuring2,59.972437510305056,
144,resources/videos_generated\model(dmp)-dataset(walking)-npsi(60)_final(7).mov,resources/videos_natural\training(22).mov,False,True,left,0,143,143,143,2018-12-10 12:34:10.516484,2018-12-10 12:34:14.402707,0:00:03.886223,4,right,0,0.5174103566459962,21,f,2,22,2018_Dec_10_1217,MP_PerceptionTuring2,59.972437510305056,
145,resources/videos_generated\model(dmp)-dataset(walking)-npsi(80)_final(5).mov,resources/videos_natural\training(0).mov,False,True,left,0,144,144,144,2018-12-10 12:34:16.037800,2018-12-10 12:34:19.958024,0:00:03.920224,4,right,0,0.4173757220560219,21,f,2,22,2018_Dec_10_1217,MP_PerceptionTuring2,59.972437510305056,
146,resources/videos_generated\model(tmp)-dataset(walking)-numprim(12)_final(1).mov,resources/videos_natural\training(39).mov,True,True,left,0,145,145,145,2018-12-10 12:34:21.492112,2018-12-10 12:34:25.395335,0:00:03.903223,4,left,1,0.333940693535169,21,f,2,22,2018_Dec_10_1217,MP_PerceptionTuring2,59.972437510305056,
147,resources/videos_generated\model(vcgpdm)-dataset(walking)-mode(ELBO)-parts(2)-dyn(22)-lvm(19)_final(6).mov,resources/videos_natural\training(32).mov,True,False,right,0,146,146,146,2018-12-10 12:34:26.847418,2018-12-10 12:34:30.783643,0:00:03.936225,4,right,1,0.25029213523748695,21,f,2,22,2018_Dec_10_1217,MP_PerceptionTuring2,59.972437510305056,
148,resources/videos_generated\model(vcgpdm)-dataset(walking)-mode(ELBO)-parts(1)-dyn(23)-lvm(28)_final(3)_hip-corrected.mov,resources/videos_natural\training(10).mov,False,True,left,0,147,147,147,2018-12-10 12:34:32.151722,2018-12-10 12:34:36.104948,0:00:03.953226,4,right,0,0.3338295616767937,21,f,2,22,2018_Dec_10_1217,MP_PerceptionTuring2,59.972437510305056,
149,resources/videos_generated\model(vcgpdm)-dataset(walking)-mode(ELBO)-parts(2)-dyn(26)-lvm(17)_final(6).mov,resources/videos_natural\training(38).mov,False,False,right,0,148,148,148,2018-12-10 12:34:37.556031,2018-12-10 12:34:41.476255,0:00:03.920224,4,left,0,0.5507478059744244,21,f,2,22,2018_Dec_10_1217,MP_PerceptionTuring2,59.972437510305056,
150,resources/videos_generated\model(vcgpdm)-dataset(walking)-mode(ELBO)-parts(1)-dyn(22)-lvm(27)_final(1)_fail.mov,resources/videos_natural\training(43).mov,False,True,left,0,149,149,149,2018-12-10 12:34:43.144350,2018-12-10 12:34:47.264586,0:00:04.120236,4,left,1,0.4671856835661856,21,f,2,22,2018_Dec_10_1217,MP_PerceptionTuring2,59.972437510305056,
151,resources/videos_generated\model(vcgpdm)-dataset(walking)-mode(ELBO)-parts(1)-dyn(27)-lvm(22)_final(6).mov,resources/videos_natural\training(28).mov,True,False,right,0,150,150,150,2018-12-10 12:34:48.849677,2018-12-10 12:34:52.752900,0:00:03.903223,4,right,1,0.5340461031569248,21,f,2,22,2018_Dec_10_1217,MP_PerceptionTuring2,59.972437510305056,
152,resources/videos_generated\model(vcgpdm)-dataset(walking)-mode(ELBO)-parts(1)-dyn(24)-lvm(23)_final(1).mov,resources/videos_natural\training(1).mov,True,True,left,0,151,151,151,2018-12-10 12:34:54.403994,2018-12-10 12:34:58.308218,0:00:03.904224,4,left,1,0.5173669881155547,21,f,2,22,2018_Dec_10_1217,MP_PerceptionTuring2,59.972437510305056,
153,resources/videos_generated\model(vcgpdm)-dataset(walking)-mode(ELBO)-parts(2)-dyn(25)-lvm(20)_final(4).mov,resources/videos_natural\training(8).mov,False,True,left,0,152,152,152,2018-12-10 12:34:59.942311,2018-12-10 12:35:03.828534,0:00:03.886223,4,right,0,0.3005755365352343,21,f,2,22,2018_Dec_10_1217,MP_PerceptionTuring2,59.972437510305056,
154,resources/videos_generated\model(vcgpdm)-dataset(walking)-mode(ELBO)-parts(2)-dyn(23)-lvm(18)_final(6).mov,resources/videos_natural\training(15).mov,True,False,right,0,153,153,153,2018-12-10 12:35:05.246615,2018-12-10 12:35:09.183840,0:00:03.937225,4,left,0,0.3172359790146402,21,f,2,22,2018_Dec_10_1217,MP_PerceptionTuring2,59.972437510305056,
155,resources/videos_generated\model(vcgpdm)-dataset(walking)-mode(ELBO)-parts(1)-dyn(27)-lvm(28)_final(6).mov,resources/videos_natural\training(4).mov,False,True,left,0,154,154,154,2018-12-10 12:35:10.617922,2018-12-10 12:35:14.572148,0:00:03.954226,4,left,1,0.384538817846078,21,f,2,22,2018_Dec_10_1217,MP_PerceptionTuring2,59.972437510305056,
156,resources/videos_generated\model(vcgpdm)-dataset(walking)-mode(ELBO)-parts(1)-dyn(27)-lvm(26)_final(0).mov,resources/videos_natural\training(2).mov,True,False,right,0,155,155,155,2018-12-10 12:35:16.073234,2018-12-10 12:35:19.993458,0:00:03.920224,4,right,1,0.31708509266991314,21,f,2,22,2018_Dec_10_1217,MP_PerceptionTuring2,59.972437510305056,
157,resources/videos_generated\model(vcgpdm)-dataset(walking)-mode(ELBO)-parts(2)-dyn(22)-lvm(17)_final(6).mov,resources/videos_natural\training(47).mov,True,False,right,0,156,156,156,2018-12-10 12:35:21.427540,2018-12-10 12:35:25.347764,0:00:03.920224,4,right,1,0.2836792776729453,21,f,2,22,2018_Dec_10_1217,MP_PerceptionTuring2,59.972437510305056,
158,resources/videos_generated\model(dmp)-dataset(walking)-npsi(70)_final(9).mov,resources/videos_natural\training(11).mov,True,False,right,0,157,157,157,2018-12-10 12:35:26.748845,2018-12-10 12:35:30.685070,0:00:03.936225,4,left,0,0.4339693047181754,21,f,2,22,2018_Dec_10_1217,MP_PerceptionTuring2,59.972437510305056,
159,resources/videos_generated\model(vcgpdm)-dataset(walking)-mode(ELBO)-parts(1)-dyn(24)-lvm(23)_final(9).mov,resources/videos_natural\training(21).mov,True,True,left,0,158,158,158,2018-12-10 12:35:32.237158,2018-12-10 12:35:36.140382,0:00:03.903224,4,right,0,0.4506752239203706,21,f,2,22,2018_Dec_10_1217,MP_PerceptionTuring2,59.972437510305056,
160,resources/videos_generated\model(tmp)-dataset(walking)-numprim(15)_final(7).mov,resources/videos_natural\training(3).mov,False,True,left,0,159,159,159,2018-12-10 12:35:37.708471,2018-12-10 12:35:41.644697,0:00:03.936226,4,right,0,0.46735343545014985,21,f,2,22,2018_Dec_10_1217,MP_PerceptionTuring2,59.972437510305056,
161,resources/videos_generated\model(vcgpdm)-dataset(walking)-mode(ELBO)-parts(2)-dyn(24)-lvm(17)_final(0).mov,resources/videos_natural\training(19).mov,True,True,left,0,160,160,160,2018-12-10 12:35:43.229787,2018-12-10 12:35:47.333022,0:00:04.103235,4,right,0,0.3004532613736046,21,f,2,22,2018_Dec_10_1217,MP_PerceptionTuring2,59.972437510305056,
162,resources/videos_generated\model(dmp)-dataset(walking)-npsi(60)_final(5).mov,resources/videos_natural\training(27).mov,False,True,left,0,161,161,161,2018-12-10 12:35:48.751103,2018-12-10 12:35:52.704329,0:00:03.953226,4,right,0,0.382523988218054,21,f,2,22,2018_Dec_10_1217,MP_PerceptionTuring2,59.972437510305056,
163,resources/videos_generated\model(vcgpdm)-dataset(walking)-mode(ELBO)-parts(1)-dyn(22)-lvm(25)_final(1).mov,resources/videos_natural\training(12).mov,True,True,left,0,162,162,162,2018-12-10 12:35:54.205415,2018-12-10 12:35:58.276648,0:00:04.071233,4,left,1,0.3672136924087681,21,f,2,22,2018_Dec_10_1217,MP_PerceptionTuring2,59.972437510305056,
164,resources/videos_generated\model(vcgpdm)-dataset(walking)-mode(ELBO)-parts(2)-dyn(25)-lvm(20)_final(8).mov,resources/videos_natural\training(36).mov,True,False,right,0,163,163,163,2018-12-10 12:35:59.760733,2018-12-10 12:36:03.680957,0:00:03.920224,4,right,1,0.3507119667024199,21,f,2,22,2018_Dec_10_1217,MP_PerceptionTuring2,59.972437510305056,
165,resources/videos_generated\model(vcgpdm)-dataset(walking)-mode(ELBO)-parts(2)-dyn(28)-lvm(17)_final(2).mov,resources/videos_natural\training(6).mov,True,False,right,0,164,164,164,2018-12-10 12:36:05.149041,2018-12-10 12:36:09.069265,0:00:03.920224,4,right,1,0.2837880001684425,21,f,2,22,2018_Dec_10_1217,MP_PerceptionTuring2,59.972437510305056,
166,resources/videos_generated\model(vcgpdm)-dataset(walking)-mode(ELBO)-parts(1)-dyn(27)-lvm(24)_final(8).mov,resources/videos_natural\training(18).mov,True,True,left,0,165,165,165,2018-12-10 12:36:10.470345,2018-12-10 12:36:14.390569,0:00:03.920224,4,left,1,0.3172627831754653,21,f,2,22,2018_Dec_10_1217,MP_PerceptionTuring2,59.972437510305056,
167,resources/videos_generated\model(vcgpdm)-dataset(walking)-mode(ELBO)-parts(1)-dyn(27)-lvm(26)_final(8).mov,resources/videos_natural\training(38).mov,True,True,left,0,166,166,166,2018-12-10 12:36:15.824651,2018-12-10 12:36:19.711874,0:00:03.887223,4,left,1,0.43391419054432845,21,f,2,22,2018_Dec_10_1217,MP_PerceptionTuring2,59.972437510305056,
168,resources/videos_generated\model(vcgpdm)-dataset(walking)-mode(ELBO)-parts(1)-dyn(26)-lvm(27)_final(2).mov,resources/videos_natural\training(33).mov,False,False,right,0,167,167,167,2018-12-10 12:36:21.262963,2018-12-10 12:36:25.199188,0:00:03.936225,4,left,0,0.6174335467630954,21,f,2,22,2018_Dec_10_1217,MP_PerceptionTuring2,59.972437510305056,
169,resources/videos_generated\model(dmp)-dataset(walking)-npsi(100)_final(3).mov,resources/videos_natural\training(19).mov,True,False,right,0,168,168,168,2018-12-10 12:36:26.934287,2018-12-10 12:36:30.870512,0:00:03.936225,4,right,1,0.9011652280764793,21,f,2,22,2018_Dec_10_1217,MP_PerceptionTuring2,59.972437510305056,
170,resources/videos_generated\model(vcgpdm)-dataset(walking)-mode(ELBO)-parts(2)-dyn(23)-lvm(18)_final(4).mov,resources/videos_natural\training(37).mov,True,False,right,0,169,169,169,2018-12-10 12:36:32.889628,2018-12-10 12:36:36.825853,0:00:03.936225,4,right,1,0.35065805721023935,21,f,2,22,2018_Dec_10_1217,MP_PerceptionTuring2,59.972437510305056,
171,resources/videos_generated\model(vcgpdm)-dataset(walking)-mode(ELBO)-parts(1)-dyn(28)-lvm(24)_final(0).mov,resources/videos_natural\training(0).mov,False,False,right,0,170,170,170,2018-12-10 12:36:38.293937,2018-12-10 12:36:42.214161,0:00:03.920224,4,right,1,0.3673383769328211,21,f,2,22,2018_Dec_10_1217,MP_PerceptionTuring2,59.972437510305056,
172,resources/videos_generated\model(vcgpdm)-dataset(walking)-mode(ELBO)-parts(2)-dyn(27)-lvm(22)_final(8).mov,resources/videos_natural\training(17).mov,True,False,right,0,171,171,171,2018-12-10 12:36:43.698246,2018-12-10 12:36:47.618470,0:00:03.920224,4,right,1,0.3675395587251842,21,f,2,22,2018_Dec_10_1217,MP_PerceptionTuring2,59.972437510305056,
173,resources/videos_generated\model(vcgpdm)-dataset(walking)-mode(ELBO)-parts(1)-dyn(25)-lvm(22)_final(7).mov,resources/videos_natural\training(23).mov,False,False,right,0,172,172,172,2018-12-10 12:36:49.103555,2018-12-10 12:36:53.006778,0:00:03.903223,4,right,1,0.38391328703346517,21,f,2,22,2018_Dec_10_1217,MP_PerceptionTuring2,59.972437510305056,
174,resources/videos_generated\model(tmp)-dataset(walking)-numprim(15)_final(3).mov,resources/videos_natural\training(48).mov,True,True,left,0,173,173,173,2018-12-10 12:36:54.507864,2018-12-10 12:36:58.428088,0:00:03.920224,4,right,0,0.3172907920175021,21,f,2,22,2018_Dec_10_1217,MP_PerceptionTuring2,59.972437510305056,
175,resources/videos_generated\model(vcgpdm)-dataset(walking)-mode(ELBO)-parts(2)-dyn(25)-lvm(22)_final(2).mov,resources/videos_natural\training(18).mov,True,True,left,0,174,174,174,2018-12-10 12:36:59.863170,2018-12-10 12:37:03.782395,0:00:03.919225,4,right,0,0.46735915768704217,21,f,2,22,2018_Dec_10_1217,MP_PerceptionTuring2,59.972437510305056,
176,resources/videos_generated\model(vcgpdm)-dataset(walking)-mode(ELBO)-parts(1)-dyn(28)-lvm(25)_final(4).mov,resources/videos_natural\training(26).mov,False,True,left,0,175,175,175,2018-12-10 12:37:05.367485,2018-12-10 12:37:09.287709,0:00:03.920224,4,right,0,0.467267903071388,21,f,2,22,2018_Dec_10_1217,MP_PerceptionTuring2,59.972437510305056,
177,resources/videos_generated\model(tmp)-dataset(walking)-numprim(15)_final(9).mov,resources/videos_natural\training(38).mov,True,False,right,0,176,176,176,2018-12-10 12:37:10.871800,2018-12-10 12:37:14.792024,0:00:03.920224,4,left,0,0.3504969310743036,21,f,2,22,2018_Dec_10_1217,MP_PerceptionTuring2,59.972437510305056,
178,resources/videos_generated\model(vcgpdm)-dataset(walking)-mode(ELBO)-parts(2)-dyn(28)-lvm(17)_final(0).mov,resources/videos_natural\training(23).mov,True,False,right,0,177,177,177,2018-12-10 12:37:16.260108,2018-12-10 12:37:20.163331,0:00:03.903223,4,right,1,0.28387985712470254,21,f,2,22,2018_Dec_10_1217,MP_PerceptionTuring2,59.972437510305056,
179,resources/videos_generated\model(vcgpdm)-dataset(walking)-mode(ELBO)-parts(1)-dyn(24)-lvm(27)_final(7).mov,resources/videos_natural\training(37).mov,True,False,right,0,178,178,178,2018-12-10 12:37:21.564412,2018-12-10 12:37:25.501637,0:00:03.937225,4,right,1,0.3838108891150114,21,f,2,22,2018_Dec_10_1217,MP_PerceptionTuring2,59.972437510305056,
180,resources/videos_generated\model(dmp)-dataset(walking)-npsi(50)_final(9).mov,resources/videos_natural\training(18).mov,False,True,left,0,179,179,179,2018-12-10 12:37:27.002723,2018-12-10 12:37:30.939948,0:00:03.937225,4,right,0,0.33388437468011034,21,f,2,22,2018_Dec_10_1217,MP_PerceptionTuring2,59.972437510305056,
181,resources/videos_generated\model(vcgpdm)-dataset(walking)-mode(ELBO)-parts(1)-dyn(26)-lvm(23)_final(6)_fail.mov,resources/videos_natural\training(4).mov,False,True,left,0,180,180,180,2018-12-10 12:38:04.268854,2018-12-10 12:38:08.222080,0:00:03.953226,5,left,1,0.417365783434434,21,f,2,22,2018_Dec_10_1217,MP_PerceptionTuring2,59.972437510305056,
182,resources/videos_generated\model(vcgpdm)-dataset(walking)-mode(ELBO)-parts(2)-dyn(27)-lvm(22)_final(4).mov,resources/videos_natural\training(36).mov,True,True,left,0,181,181,181,2018-12-10 12:38:09.756168,2018-12-10 12:38:13.643390,0:00:03.887222,5,right,0,0.41749408200257676,21,f,2,22,2018_Dec_10_1217,MP_PerceptionTuring2,59.972437510305056,
183,resources/videos_generated\model(tmp)-dataset(walking)-numprim(15)_final(1).mov,resources/videos_natural\training(14).mov,True,True,left,0,182,182,182,2018-12-10 12:38:15.177478,2018-12-10 12:38:19.231710,0:00:04.054232,5,left,1,0.3672139935792984,21,f,2,22,2018_Dec_10_1217,MP_PerceptionTuring2,59.972437510305056,
184,resources/videos_generated\model(vcgpdm)-dataset(walking)-mode(ELBO)-parts(1)-dyn(27)-lvm(22)_final(2).mov,resources/videos_natural\training(4).mov,False,False,right,0,183,183,183,2018-12-10 12:38:20.715795,2018-12-10 12:38:24.653020,0:00:03.937225,5,left,0,0.4671296658816573,21,f,2,22,2018_Dec_10_1217,MP_PerceptionTuring2,59.972437510305056,
185,resources/videos_generated\model(vcgpdm)-dataset(walking)-mode(ELBO)-parts(2)-dyn(24)-lvm(23)_final(4).mov,resources/videos_natural\training(29).mov,True,True,left,0,184,184,184,2018-12-10 12:38:26.238111,2018-12-10 12:38:30.141334,0:00:03.903223,5,left,1,0.3338572693487549,21,f,2,22,2018_Dec_10_1217,MP_PerceptionTuring2,59.972437510305056,
186,resources/videos_generated\model(vcgpdm)-dataset(walking)-mode(ELBO)-parts(2)-dyn(27)-lvm(20)_final(2).mov,resources/videos_natural\training(5).mov,False,True,left,0,185,185,185,2018-12-10 12:38:31.592417,2018-12-10 12:38:35.528642,0:00:03.936225,5,left,1,0.4338554623263917,21,f,2,22,2018_Dec_10_1217,MP_PerceptionTuring2,59.972437510305056,
187,resources/videos_generated\model(vcgpdm)-dataset(walking)-mode(ELBO)-parts(2)-dyn(28)-lvm(21)_final(4).mov,resources/videos_natural\training(5).mov,False,True,left,0,186,186,186,2018-12-10 12:38:37.079731,2018-12-10 12:38:40.966953,0:00:03.887222,5,left,1,0.5174112601571323,21,f,2,22,2018_Dec_10_1217,MP_PerceptionTuring2,59.972437510305056,
188,resources/videos_generated\model(vcgpdm)-dataset(walking)-mode(ELBO)-parts(1)-dyn(23)-lvm(26)_final(6)_hip-corrected.mov,resources/videos_natural\training(29).mov,True,False,right,0,187,187,187,2018-12-10 12:38:42.602047,2018-12-10 12:38:46.505270,0:00:03.903223,5,right,1,1.0679810744550196,21,f,2,22,2018_Dec_10_1217,MP_PerceptionTuring2,59.972437510305056,
189,resources/videos_generated\model(tmp)-dataset(walking)-numprim(11)_final(7).mov,resources/videos_natural\training(10).mov,True,False,right,0,188,188,188,2018-12-10 12:38:48.690395,2018-12-10 12:38:52.576617,0:00:03.886222,5,left,0,0.45099928321451443,21,f,2,22,2018_Dec_10_1217,MP_PerceptionTuring2,59.972437510305056,
190,resources/videos_generated\model(vcgpdm)-dataset(walking)-mode(ELBO)-parts(2)-dyn(23)-lvm(20)_final(2).mov,resources/videos_natural\training(6).mov,False,False,right,0,189,189,189,2018-12-10 12:38:54.144707,2018-12-10 12:38:58.064931,0:00:03.920224,5,right,1,0.36718086484052037,21,f,2,22,2018_Dec_10_1217,MP_PerceptionTuring2,59.972437510305056,
191,resources/videos_generated\model(vcgpdm)-dataset(walking)-mode(ELBO)-parts(1)-dyn(22)-lvm(23)_final(1).mov,resources/videos_natural\training(21).mov,False,True,left,0,190,190,190,2018-12-10 12:38:59.550016,2018-12-10 12:39:03.469240,0:00:03.919224,5,right,0,0.300556261633119,21,f,2,22,2018_Dec_10_1217,MP_PerceptionTuring2,59.972437510305056,
192,resources/videos_generated\model(tmp)-dataset(walking)-numprim(11)_final(9).mov,resources/videos_natural\training(32).mov,False,True,left,0,191,191,191,2018-12-10 12:39:04.887321,2018-12-10 12:39:08.790545,0:00:03.903224,5,right,0,0.3839822550430654,21,f,2,22,2018_Dec_10_1217,MP_PerceptionTuring2,59.972437510305056,
193,resources/videos_generated\model(dmp)-dataset(walking)-npsi(60)_final(9).mov,resources/videos_natural\training(24).mov,True,False,right,0,192,192,192,2018-12-10 12:39:10.292630,2018-12-10 12:39:14.228856,0:00:03.936226,5,left,0,0.30041320571717733,21,f,2,22,2018_Dec_10_1217,MP_PerceptionTuring2,59.972437510305056,
194,resources/videos_generated\model(vcgpdm)-dataset(walking)-mode(ELBO)-parts(1)-dyn(26)-lvm(22)_final(2).mov,resources/videos_natural\training(7).mov,False,False,right,0,193,193,193,2018-12-10 12:39:15.646937,2018-12-10 12:39:19.550160,0:00:03.903223,5,right,1,0.33383528391323125,21,f,2,22,2018_Dec_10_1217,MP_PerceptionTuring2,59.972437510305056,
195,resources/videos_generated\model(vcgpdm)-dataset(walking)-mode(ELBO)-parts(1)-dyn(25)-lvm(28)_final(9).mov,resources/videos_natural\training(47).mov,True,True,left,0,194,194,194,2018-12-10 12:39:21.001243,2018-12-10 12:39:24.888465,0:00:03.887222,5,right,0,0.45060203952562006,21,f,2,22,2018_Dec_10_1217,MP_PerceptionTuring2,59.972437510305056,
196,resources/videos_generated\model(vcgpdm)-dataset(walking)-mode(ELBO)-parts(2)-dyn(26)-lvm(21)_final(2).mov,resources/videos_natural\training(46).mov,True,False,right,0,195,195,195,2018-12-10 12:39:26.456555,2018-12-10 12:39:30.542789,0:00:04.086234,5,right,1,0.4172438094433346,21,f,2,22,2018_Dec_10_1217,MP_PerceptionTuring2,59.972437510305056,
197,resources/videos_generated\model(vcgpdm)-dataset(walking)-mode(ELBO)-parts(2)-dyn(24)-lvm(21)_final(0).mov,resources/videos_natural\training(44).mov,False,False,right,0,196,196,196,2018-12-10 12:39:32.077877,2018-12-10 12:39:36.014102,0:00:03.936225,5,right,1,0.43513061757994365,21,f,2,22,2018_Dec_10_1217,MP_PerceptionTuring2,59.972437510305056,
198,resources/videos_generated\model(vcgpdm)-dataset(walking)-mode(ELBO)-parts(2)-dyn(22)-lvm(23)_final(2).mov,resources/videos_natural\training(13).mov,True,True,left,0,197,197,197,2018-12-10 12:39:37.566190,2018-12-10 12:39:41.486415,0:00:03.920225,5,left,1,0.25042585487199176,21,f,2,22,2018_Dec_10_1217,MP_PerceptionTuring2,59.972437510305056,
199,resources/videos_generated\model(tmp)-dataset(walking)-numprim(13)_final(9).mov,resources/videos_natural\training(44).mov,True,True,left,0,198,198,198,2018-12-10 12:39:42.853493,2018-12-10 12:39:46.756716,0:00:03.903223,5,left,1,0.36732783597062735,21,f,2,22,2018_Dec_10_1217,MP_PerceptionTuring2,59.972437510305056,
200,resources/videos_generated\model(vcgpdm)-dataset(walking)-mode(ELBO)-parts(2)-dyn(27)-lvm(18)_final(2).mov,resources/videos_natural\training(25).mov,False,False,right,0,199,199,199,2018-12-10 12:39:48.241801,2018-12-10 12:39:52.179026,0:00:03.937225,5,right,1,0.3506508291220598,21,f,2,22,2018_Dec_10_1217,MP_PerceptionTuring2,59.972437510305056,
201,resources/videos_generated\model(vcgpdm)-dataset(walking)-mode(ELBO)-parts(1)-dyn(24)-lvm(27)_final(5).mov,resources/videos_natural\training(0).mov,True,True,left,0,200,200,200,2018-12-10 12:39:53.646110,2018-12-10 12:39:57.733344,0:00:04.087234,5,left,1,0.41726308434590464,21,f,2,22,2018_Dec_10_1217,MP_PerceptionTuring2,59.972437510305056,
202,resources/videos_generated\model(vcgpdm)-dataset(walking)-mode(ELBO)-parts(2)-dyn(25)-lvm(20)_final(0).mov,resources/videos_natural\training(20).mov,True,False,right,0,201,201,201,2018-12-10 12:39:59.268432,2018-12-10 12:40:03.171655,0:00:03.903223,5,left,0,0.31732723363029436,21,f,2,22,2018_Dec_10_1217,MP_PerceptionTuring2,59.972437510305056,
203,resources/videos_generated\model(vcgpdm)-dataset(walking)-mode(ELBO)-parts(1)-dyn(24)-lvm(23)_final(3)_fail.mov,resources/videos_natural\training(10).mov,False,True,left,0,202,202,202,2018-12-10 12:40:04.605737,2018-12-10 12:40:08.525961,0:00:03.920224,5,left,1,0.3339985182419696,21,f,2,22,2018_Dec_10_1217,MP_PerceptionTuring2,59.972437510305056,
204,resources/videos_generated\model(vcgpdm)-dataset(walking)-mode(ELBO)-parts(1)-dyn(28)-lvm(27)_final(0).mov,resources/videos_natural\training(13).mov,True,True,left,0,203,203,203,2018-12-10 12:40:09.977044,2018-12-10 12:40:13.897268,0:00:03.920224,5,left,1,0.3338813629766264,21,f,2,22,2018_Dec_10_1217,MP_PerceptionTuring2,59.972437510305056,
205,resources/videos_generated\model(vcgpdm)-dataset(walking)-mode(ELBO)-parts(1)-dyn(28)-lvm(23)_final(8).mov,resources/videos_natural\training(29).mov,True,False,right,0,204,204,204,2018-12-10 12:40:15.348351,2018-12-10 12:40:19.302578,0:00:03.954227,5,right,1,0.450747203633,21,f,2,22,2018_Dec_10_1217,MP_PerceptionTuring2,59.972437510305056,
206,resources/videos_generated\model(vcgpdm)-dataset(walking)-mode(ELBO)-parts(2)-dyn(28)-lvm(23)_final(2).mov,resources/videos_natural\training(5).mov,False,False,right,0,205,205,205,2018-12-10 12:40:20.869667,2018-12-10 12:40:24.773891,0:00:03.904224,5,right,1,0.4506743204092345,21,f,2,22,2018_Dec_10_1217,MP_PerceptionTuring2,59.972437510305056,
207,resources/videos_generated\model(vcgpdm)-dataset(walking)-mode(ELBO)-parts(2)-dyn(23)-lvm(18)_final(0).mov,resources/videos_natural\training(25).mov,False,True,left,0,206,206,206,2018-12-10 12:40:26.340980,2018-12-10 12:40:30.261204,0:00:03.920224,5,right,0,0.2672922978695169,21,f,2,22,2018_Dec_10_1217,MP_PerceptionTuring2,59.972437510305056,
208,resources/videos_generated\model(vcgpdm)-dataset(walking)-mode(ELBO)-parts(1)-dyn(26)-lvm(27)_final(6).mov,resources/videos_natural\training(2).mov,False,True,left,0,207,207,207,2018-12-10 12:40:31.646284,2018-12-10 12:40:35.532506,0:00:03.886222,5,right,0,0.3337705322887814,21,f,2,22,2018_Dec_10_1217,MP_PerceptionTuring2,59.972437510305056,
209,resources/videos_generated\model(tmp)-dataset(walking)-numprim(14)_final(7).mov,resources/videos_natural\training(36).mov,True,True,left,0,208,208,208,2018-12-10 12:40:36.983589,2018-12-10 12:40:41.037821,0:00:04.054232,5,right,0,0.3673148856455555,21,f,2,22,2018_Dec_10_1217,MP_PerceptionTuring2,59.972437510305056,
210,resources/videos_generated\model(vcgpdm)-dataset(walking)-mode(ELBO)-parts(1)-dyn(26)-lvm(25)_final(8).mov,resources/videos_natural\training(43).mov,False,True,left,0,209,209,209,2018-12-10 12:40:42.521906,2018-12-10 12:40:46.425129,0:00:03.903223,5,left,1,0.3670965371429702,21,f,2,22,2018_Dec_10_1217,MP_PerceptionTuring2,59.972437510305056,
211,resources/videos_generated\model(vcgpdm)-dataset(walking)-mode(ELBO)-parts(1)-dyn(23)-lvm(28)_final(5).mov,resources/videos_natural\training(4).mov,True,False,right,0,210,210,210,2018-12-10 12:40:47.910214,2018-12-10 12:40:51.830438,0:00:03.920224,5,right,1,0.41744559357675826,21,f,2,22,2018_Dec_10_1217,MP_PerceptionTuring2,59.972437510305056,
212,resources/videos_generated\model(vcgpdm)-dataset(walking)-mode(ELBO)-parts(2)-dyn(22)-lvm(17)_final(2).mov,resources/videos_natural\training(15).mov,False,True,left,0,211,211,211,2018-12-10 12:40:53.364526,2018-12-10 12:40:57.268749,0:00:03.904223,5,right,0,0.33420903631531473,21,f,2,22,2018_Dec_10_1217,MP_PerceptionTuring2,59.972437510305056,
213,resources/videos_generated\model(vcgpdm)-dataset(walking)-mode(ELBO)-parts(2)-dyn(22)-lvm(19)_final(4).mov,resources/videos_natural\training(14).mov,True,True,left,0,212,212,212,2018-12-10 12:40:58.719832,2018-12-10 12:41:02.639056,0:00:03.919224,5,left,1,0.3171254494968707,21,f,2,22,2018_Dec_10_1217,MP_PerceptionTuring2,59.972437510305056,
214,resources/videos_generated\model(dmp)-dataset(walking)-npsi(80)_final(1).mov,resources/videos_natural\training(24).mov,True,False,right,0,213,213,213,2018-12-10 12:41:04.074138,2018-12-10 12:41:08.127370,0:00:04.053232,5,left,0,0.41710858395708783,21,f,2,22,2018_Dec_10_1217,MP_PerceptionTuring2,59.972437510305056,
215,resources/videos_generated\model(dmp)-dataset(walking)-npsi(90)_final(1).mov,resources/videos_natural\training(45).mov,False,True,left,0,214,214,214,2018-12-10 12:41:09.662458,2018-12-10 12:41:13.565681,0:00:03.903223,5,right,0,0.41728235924801993,21,f,2,22,2018_Dec_10_1217,MP_PerceptionTuring2,59.972437510305056,
216,resources/videos_generated\model(vcgpdm)-dataset(walking)-mode(ELBO)-parts(1)-dyn(23)-lvm(24)_final(4).mov,resources/videos_natural\training(1).mov,False,True,left,0,215,215,215,2018-12-10 12:41:15.099769,2018-12-10 12:41:19.036994,0:00:03.937225,5,left,1,0.5007080514878908,21,f,2,22,2018_Dec_10_1217,MP_PerceptionTuring2,59.972437510305056,
217,resources/videos_generated\model(vcgpdm)-dataset(walking)-mode(ELBO)-parts(2)-dyn(22)-lvm(19)_final(8).mov,resources/videos_natural\training(16).mov,False,True,left,0,216,216,216,2018-12-10 12:41:20.655087,2018-12-10 12:41:24.608313,0:00:03.953226,5,right,0,0.3505418054560323,21,f,2,22,2018_Dec_10_1217,MP_PerceptionTuring2,59.972437510305056,
218,resources/videos_generated\model(vcgpdm)-dataset(walking)-mode(ELBO)-parts(2)-dyn(26)-lvm(23)_final(2).mov,resources/videos_natural\training(28).mov,False,True,left,0,217,217,217,2018-12-10 12:41:26.076397,2018-12-10 12:41:29.979620,0:00:03.903223,5,left,1,0.30044753913716704,21,f,2,22,2018_Dec_10_1217,MP_PerceptionTuring2,59.972437510305056,
219,resources/videos_generated\model(vcgpdm)-dataset(walking)-mode(ELBO)-parts(2)-dyn(24)-lvm(19)_final(6).mov,resources/videos_natural\training(18).mov,True,True,left,0,218,218,218,2018-12-10 12:41:31.397701,2018-12-10 12:41:35.283924,0:00:03.886223,5,left,1,0.3003933284744562,21,f,2,22,2018_Dec_10_1217,MP_PerceptionTuring2,59.972437510305056,
220,resources/videos_generated\model(vcgpdm)-dataset(walking)-mode(ELBO)-parts(1)-dyn(22)-lvm(27)_final(5)_fail.mov,resources/videos_natural\training(36).mov,False,False,right,0,219,219,219,2018-12-10 12:41:36.702005,2018-12-10 12:41:40.772237,0:00:04.070232,5,right,1,0.38393045374323265,21,f,2,22,2018_Dec_10_1217,MP_PerceptionTuring2,59.972437510305056,
221,resources/videos_generated\model(vcgpdm)-dataset(walking)-mode(ELBO)-parts(1)-dyn(25)-lvm(24)_final(8).mov,resources/videos_natural\training(37).mov,True,True,left,0,220,220,220,2018-12-10 12:41:42.273323,2018-12-10 12:41:46.193548,0:00:03.920225,5,left,1,0.4006613700844355,21,f,2,22,2018_Dec_10_1217,MP_PerceptionTuring2,59.972437510305056,
222,resources/videos_generated\model(vcgpdm)-dataset(walking)-mode(ELBO)-parts(1)-dyn(27)-lvm(24)_final(4).mov,resources/videos_natural\training(13).mov,False,True,left,0,221,221,221,2018-12-10 12:41:47.711634,2018-12-10 12:41:51.798868,0:00:04.087234,5,left,1,0.43416566778478227,21,f,2,22,2018_Dec_10_1217,MP_PerceptionTuring2,59.972437510305056,
223,resources/videos_generated\model(vcgpdm)-dataset(walking)-mode(ELBO)-parts(2)-dyn(24)-lvm(19)_final(8).mov,resources/videos_natural\training(11).mov,True,True,left,0,222,222,222,2018-12-10 12:41:53.349957,2018-12-10 12:41:57.270181,0:00:03.920224,5,left,1,0.38381691252197925,21,f,2,22,2018_Dec_10_1217,MP_PerceptionTuring2,59.972437510305056,
224,resources/videos_generated\model(vcgpdm)-dataset(walking)-mode(ELBO)-parts(1)-dyn(28)-lvm(25)_final(0).mov,resources/videos_natural\training(33).mov,False,True,left,0,223,223,223,2018-12-10 12:41:58.771267,2018-12-10 12:42:02.691491,0:00:03.920224,5,right,0,0.6008149669614795,21,f,2,22,2018_Dec_10_1217,MP_PerceptionTuring2,59.972437510305056,
225,resources/videos_generated\model(vcgpdm)-dataset(walking)-mode(ELBO)-parts(1)-dyn(27)-lvm(26)_final(2).mov,resources/videos_natural\training(30).mov,True,False,right,0,224,224,224,2018-12-10 12:42:04.409589,2018-12-10 12:42:08.312813,0:00:03.903224,5,right,1,0.4340177931439939,21,f,2,22,2018_Dec_10_1217,MP_PerceptionTuring2,59.972437510305056,
226,resources/videos_generated\model(vcgpdm)-dataset(walking)-mode(ELBO)-parts(1)-dyn(25)-lvm(24)_final(2).mov,resources/videos_natural\training(12).mov,False,True,left,0,225,225,225,2018-12-10 12:42:41.708723,2018-12-10 12:42:45.628947,0:00:03.920224,6,left,1,0.3005499370551661,21,f,2,22,2018_Dec_10_1217,MP_PerceptionTuring2,59.972437510305056,
227,resources/videos_generated\model(vcgpdm)-dataset(walking)-mode(ELBO)-parts(2)-dyn(28)-lvm(17)_final(8).mov,resources/videos_natural\training(9).mov,True,False,right,0,226,226,226,2018-12-10 12:42:47.046028,2018-12-10 12:42:50.950251,0:00:03.904223,6,right,1,0.317236581355246,21,f,2,22,2018_Dec_10_1217,MP_PerceptionTuring2,59.972437510305056,
228,resources/videos_generated\model(vcgpdm)-dataset(walking)-mode(ELBO)-parts(2)-dyn(24)-lvm(17)_final(6).mov,resources/videos_natural\training(14).mov,False,False,right,0,227,227,227,2018-12-10 12:42:52.384333,2018-12-10 12:42:56.454566,0:00:04.070233,6,right,1,0.33384431902368306,21,f,2,22,2018_Dec_10_1217,MP_PerceptionTuring2,59.972437510305056,
229,resources/videos_generated\model(vcgpdm)-dataset(walking)-mode(ELBO)-parts(2)-dyn(23)-lvm(22)_final(6).mov,resources/videos_natural\training(30).mov,False,False,right,0,228,228,228,2018-12-10 12:42:57.905649,2018-12-10 12:43:01.825873,0:00:03.920224,6,right,1,0.5340518253933624,21,f,2,22,2018_Dec_10_1217,MP_PerceptionTuring2,59.972437510305056,
230,resources/videos_generated\model(vcgpdm)-dataset(walking)-mode(ELBO)-parts(2)-dyn(25)-lvm(18)_final(6).mov,resources/videos_natural\training(6).mov,True,True,left,0,229,229,229,2018-12-10 12:43:03.476968,2018-12-10 12:43:07.381191,0:00:03.904223,6,left,1,0.5506764286014914,21,f,2,22,2018_Dec_10_1217,MP_PerceptionTuring2,59.972437510305056,
231,resources/videos_generated\model(vcgpdm)-dataset(walking)-mode(ELBO)-parts(1)-dyn(23)-lvm(22)_final(8)_fail.mov,resources/videos_natural\training(4).mov,False,True,left,0,230,230,230,2018-12-10 12:43:09.048287,2018-12-10 12:43:12.952510,0:00:03.904223,6,left,1,0.617396502810152,21,f,2,22,2018_Dec_10_1217,MP_PerceptionTuring2,59.972437510305056,
232,resources/videos_generated\model(vcgpdm)-dataset(walking)-mode(ELBO)-parts(2)-dyn(26)-lvm(19)_final(6).mov,resources/videos_natural\training(3).mov,False,False,right,0,231,231,231,2018-12-10 12:43:14.686609,2018-12-10 12:43:18.590832,0:00:03.904223,6,right,1,0.3005686096171303,21,f,2,22,2018_Dec_10_1217,MP_PerceptionTuring2,59.972437510305056,
233,resources/videos_generated\model(dmp)-dataset(walking)-npsi(100)_final(1).mov,resources/videos_natural\training(41).mov,True,False,right,0,232,232,232,2018-12-10 12:43:20.007913,2018-12-10 12:43:23.895136,0:00:03.887223,6,left,0,0.4007649726836462,21,f,2,22,2018_Dec_10_1217,MP_PerceptionTuring2,59.972437510305056,
234,resources/videos_generated\model(vcgpdm)-dataset(walking)-mode(ELBO)-parts(1)-dyn(22)-lvm(22)_final(1).mov,resources/videos_natural\training(13).mov,False,True,left,0,233,233,233,2018-12-10 12:43:25.414223,2018-12-10 12:43:29.499456,0:00:04.085233,6,left,1,0.28393165842453527,21,f,2,22,2018_Dec_10_1217,MP_PerceptionTuring2,59.972437510305056,
235,resources/videos_generated\model(vcgpdm)-dataset(walking)-mode(ELBO)-parts(2)-dyn(26)-lvm(21)_final(4).mov,resources/videos_natural\training(2).mov,True,False,right,0,234,234,234,2018-12-10 12:43:30.900536,2018-12-10 12:43:34.787759,0:00:03.887223,6,right,1,0.3172748299889463,21,f,2,22,2018_Dec_10_1217,MP_PerceptionTuring2,59.972437510305056,
236,resources/videos_generated\model(vcgpdm)-dataset(walking)-mode(ELBO)-parts(2)-dyn(23)-lvm(18)_final(2).mov,resources/videos_natural\training(43).mov,False,False,right,0,235,235,235,2018-12-10 12:43:36.221841,2018-12-10 12:43:40.092062,0:00:03.870221,6,right,1,0.3339178045889639,21,f,2,22,2018_Dec_10_1217,MP_PerceptionTuring2,59.972437510305056,
237,resources/videos_generated\model(dmp)-dataset(walking)-npsi(80)_final(9).mov,resources/videos_natural\training(27).mov,True,False,right,0,236,236,236,2018-12-10 12:43:41.543145,2018-12-10 12:43:45.463369,0:00:03.920224,6,left,0,0.36723266614080785,21,f,2,22,2018_Dec_10_1217,MP_PerceptionTuring2,59.972437510305056,
238,resources/videos_generated\model(vcgpdm)-dataset(walking)-mode(ELBO)-parts(1)-dyn(23)-lvm(27)_final(7).mov,resources/videos_natural\training(41).mov,True,True,left,0,237,237,237,2018-12-10 12:43:46.948454,2018-12-10 12:43:50.818676,0:00:03.870222,6,right,0,0.7674886609365785,21,f,2,22,2018_Dec_10_1217,MP_PerceptionTuring2,59.972437510305056,
239,resources/videos_generated\model(vcgpdm)-dataset(walking)-mode(ELBO)-parts(2)-dyn(23)-lvm(22)_final(8).mov,resources/videos_natural\training(42).mov,True,True,left,0,238,238,238,2018-12-10 12:43:52.702783,2018-12-10 12:43:56.623008,0:00:03.920225,6,left,1,0.46730645287561856,21,f,2,22,2018_Dec_10_1217,MP_PerceptionTuring2,59.972437510305056,
240,resources/videos_generated\model(vcgpdm)-dataset(walking)-mode(ELBO)-parts(1)-dyn(26)-lvm(25)_final(4).mov,resources/videos_natural\training(24).mov,True,False,right,0,239,239,239,2018-12-10 12:43:58.208098,2018-12-10 12:44:02.345335,0:00:04.137237,6,right,1,0.3837542690898772,21,f,2,22,2018_Dec_10_1217,MP_PerceptionTuring2,59.972437510305056,
241,resources/videos_generated\model(vcgpdm)-dataset(walking)-mode(ELBO)-parts(1)-dyn(28)-lvm(24)_final(5).mov,resources/videos_natural\training(14).mov,True,True,left,0,240,240,240,2018-12-10 12:44:03.846421,2018-12-10 12:44:07.732643,0:00:03.886222,6,left,1,0.3173188008604484,21,f,2,22,2018_Dec_10_1217,MP_PerceptionTuring2,59.972437510305056,
242,resources/videos_generated\model(vcgpdm)-dataset(walking)-mode(ELBO)-parts(2)-dyn(26)-lvm(23)_final(8).mov,resources/videos_natural\training(47).mov,False,False,right,0,241,241,241,2018-12-10 12:44:09.167725,2018-12-10 12:44:13.070948,0:00:03.903223,6,right,1,0.33386690679981257,21,f,2,22,2018_Dec_10_1217,MP_PerceptionTuring2,59.972437510305056,
243,resources/videos_generated\model(vcgpdm)-dataset(walking)-mode(ELBO)-parts(1)-dyn(23)-lvm(26)_final(4)_hip-corrected.mov,resources/videos_natural\training(38).mov,True,False,right,0,242,242,242,2018-12-10 12:44:14.522031,2018-12-10 12:44:18.459257,0:00:03.937226,6,right,1,0.3504993404367269,21,f,2,22,2018_Dec_10_1217,MP_PerceptionTuring2,59.972437510305056,
244,resources/videos_generated\model(dmp)-dataset(walking)-npsi(80)_final(3).mov,resources/videos_natural\training(29).mov,False,False,right,0,243,243,243,2018-12-10 12:44:19.926341,2018-12-10 12:44:23.830564,0:00:03.904223,6,right,1,0.48388106180618706,21,f,2,22,2018_Dec_10_1217,MP_PerceptionTuring2,59.972437510305056,
245,resources/videos_generated\model(vcgpdm)-dataset(walking)-mode(ELBO)-parts(1)-dyn(23)-lvm(28)_final(7).mov,resources/videos_natural\training(6).mov,True,True,left,0,244,244,244,2018-12-10 12:44:25.431655,2018-12-10 12:44:29.384882,0:00:03.953227,6,left,1,0.3170757563893858,21,f,2,22,2018_Dec_10_1217,MP_PerceptionTuring2,59.972437510305056,
246,resources/videos_generated\model(dmp)-dataset(walking)-npsi(70)_final(1).mov,resources/videos_natural\training(2).mov,True,True,left,0,245,245,245,2018-12-10 12:44:30.819964,2018-12-10 12:44:34.739188,0:00:03.919224,6,left,1,0.30070744914746683,21,f,2,22,2018_Dec_10_1217,MP_PerceptionTuring2,59.972437510305056,
247,resources/videos_generated\model(vcgpdm)-dataset(walking)-mode(ELBO)-parts(2)-dyn(24)-lvm(17)_final(4).mov,resources/videos_natural\training(21).mov,False,True,left,0,246,246,246,2018-12-10 12:44:36.157269,2018-12-10 12:44:40.077493,0:00:03.920224,6,right,0,0.3506713087058415,21,f,2,22,2018_Dec_10_1217,MP_PerceptionTuring2,59.972437510305056,
248,resources/videos_generated\model(tmp)-dataset(walking)-numprim(14)_final(1).mov,resources/videos_natural\training(12).mov,True,False,right,0,247,247,247,2018-12-10 12:44:41.545577,2018-12-10 12:44:45.448800,0:00:03.903223,6,left,0,0.267083586818444,21,f,2,22,2018_Dec_10_1217,MP_PerceptionTuring2,59.972437510305056,
249,resources/videos_generated\model(tmp)-dataset(walking)-numprim(15)_final(5).mov,resources/videos_natural\training(37).mov,True,True,left,0,248,248,248,2018-12-10 12:44:46.832879,2018-12-10 12:44:50.720102,0:00:03.887223,6,right,0,0.3338810618060961,21,f,2,22,2018_Dec_10_1217,MP_PerceptionTuring2,59.972437510305056,
250,resources/videos_generated\model(vcgpdm)-dataset(walking)-mode(ELBO)-parts(1)-dyn(28)-lvm(25)_final(2).mov,resources/videos_natural\training(45).mov,True,False,right,0,249,249,249,2018-12-10 12:44:52.171185,2018-12-10 12:44:56.074408,0:00:03.903223,6,right,1,0.3341033255228467,21,f,2,22,2018_Dec_10_1217,MP_PerceptionTuring2,59.972437510305056,
251,resources/videos_generated\model(vcgpdm)-dataset(walking)-mode(ELBO)-parts(2)-dyn(28)-lvm(19)_final(6).mov,resources/videos_natural\training(1).mov,True,False,right,0,250,250,250,2018-12-10 12:44:57.525491,2018-12-10 12:45:01.395712,0:00:03.870221,6,right,1,0.4000596317291638,21,f,2,22,2018_Dec_10_1217,MP_PerceptionTuring2,59.972437510305056,
252,resources/videos_generated\model(vcgpdm)-dataset(walking)-mode(ELBO)-parts(1)-dyn(22)-lvm(25)_final(9).mov,resources/videos_natural\training(47).mov,True,True,left,0,251,251,251,2018-12-10 12:45:02.913799,2018-12-10 12:45:06.867025,0:00:03.953226,6,left,1,0.41722784741523355,21,f,2,22,2018_Dec_10_1217,MP_PerceptionTuring2,59.972437510305056,
253,resources/videos_generated\model(vcgpdm)-dataset(walking)-mode(ELBO)-parts(1)-dyn(28)-lvm(27)_final(8).mov,resources/videos_natural\training(38).mov,False,False,right,0,252,252,252,2018-12-10 12:45:08.402113,2018-12-10 12:45:12.455345,0:00:04.053232,6,right,1,0.3840268282542638,21,f,2,22,2018_Dec_10_1217,MP_PerceptionTuring2,59.972437510305056,
254,resources/videos_generated\model(vcgpdm)-dataset(walking)-mode(ELBO)-parts(2)-dyn(28)-lvm(23)_final(8).mov,resources/videos_natural\training(43).mov,True,True,left,0,253,253,253,2018-12-10 12:45:13.957431,2018-12-10 12:45:17.893656,0:00:03.936225,6,left,1,0.31731910203052394,21,f,2,22,2018_Dec_10_1217,MP_PerceptionTuring2,59.972437510305056,
255,resources/videos_generated\model(vcgpdm)-dataset(walking)-mode(ELBO)-parts(2)-dyn(26)-lvm(19)_final(4).mov,resources/videos_natural\training(3).mov,True,False,right,0,254,254,254,2018-12-10 12:45:19.327738,2018-12-10 12:45:23.231961,0:00:03.904223,6,right,1,0.4840283341063696,21,f,2,22,2018_Dec_10_1217,MP_PerceptionTuring2,59.972437510305056,
256,resources/videos_generated\model(vcgpdm)-dataset(walking)-mode(ELBO)-parts(2)-dyn(26)-lvm(17)_final(2).mov,resources/videos_natural\training(43).mov,False,False,right,0,255,255,255,2018-12-10 12:45:24.833053,2018-12-10 12:45:28.753277,0:00:03.920224,6,right,1,0.4338991320269088,21,f,2,22,2018_Dec_10_1217,MP_PerceptionTuring2,59.972437510305056,
257,resources/videos_generated\model(vcgpdm)-dataset(walking)-mode(ELBO)-parts(2)-dyn(22)-lvm(23)_final(0).mov,resources/videos_natural\training(31).mov,False,False,right,0,256,256,256,2018-12-10 12:45:30.304366,2018-12-10 12:45:34.207589,0:00:03.903223,6,right,1,0.33375908781499675,21,f,2,22,2018_Dec_10_1217,MP_PerceptionTuring2,59.972437510305056,
258,resources/videos_generated\model(vcgpdm)-dataset(walking)-mode(ELBO)-parts(1)-dyn(23)-lvm(22)_final(2).mov,resources/videos_natural\training(32).mov,True,True,left,0,257,257,257,2018-12-10 12:45:35.658672,2018-12-10 12:45:39.578896,0:00:03.920224,6,right,0,0.3672260403927794,21,f,2,22,2018_Dec_10_1217,MP_PerceptionTuring2,59.972437510305056,
259,resources/videos_generated\model(vcgpdm)-dataset(walking)-mode(ELBO)-parts(2)-dyn(22)-lvm(23)_final(8).mov,resources/videos_natural\training(23).mov,True,False,right,0,258,258,258,2018-12-10 12:45:41.063981,2018-12-10 12:45:45.000206,0:00:03.936225,6,right,1,0.3171537595094378,21,f,2,22,2018_Dec_10_1217,MP_PerceptionTuring2,59.972437510305056,
260,resources/videos_generated\model(vcgpdm)-dataset(walking)-mode(ELBO)-parts(2)-dyn(28)-lvm(21)_final(8).mov,resources/videos_natural\training(22).mov,False,False,right,0,259,259,259,2018-12-10 12:45:46.435289,2018-12-10 12:45:50.304510,0:00:03.869221,6,right,1,0.5675597371387084,21,f,2,22,2018_Dec_10_1217,MP_PerceptionTuring2,59.972437510305056,
261,resources/videos_generated\model(vcgpdm)-dataset(walking)-mode(ELBO)-parts(1)-dyn(26)-lvm(27)_final(0).mov,resources/videos_natural\training(3).mov,True,True,left,0,260,260,260,2018-12-10 12:45:51.989606,2018-12-10 12:45:55.926831,0:00:03.937225,6,right,0,0.35074238490778953,21,f,2,22,2018_Dec_10_1217,MP_PerceptionTuring2,59.972437510305056,
262,resources/videos_generated\model(vcgpdm)-dataset(walking)-mode(ELBO)-parts(1)-dyn(24)-lvm(27)_final(3).mov,resources/videos_natural\training(32).mov,False,True,left,0,261,261,261,2018-12-10 12:45:57.393915,2018-12-10 12:46:01.314140,0:00:03.920225,6,right,0,0.33385335413413486,21,f,2,22,2018_Dec_10_1217,MP_PerceptionTuring2,59.972437510305056,
263,resources/videos_generated\model(vcgpdm)-dataset(walking)-mode(ELBO)-parts(1)-dyn(26)-lvm(27)_final(4).mov,resources/videos_natural\training(48).mov,False,True,left,0,262,262,262,2018-12-10 12:46:02.765223,2018-12-10 12:46:06.702448,0:00:03.937225,6,right,0,0.38384763189742444,21,f,2,22,2018_Dec_10_1217,MP_PerceptionTuring2,59.972437510305056,
264,resources/videos_generated\model(vcgpdm)-dataset(walking)-mode(ELBO)-parts(1)-dyn(28)-lvm(23)_final(2).mov,resources/videos_natural\training(8).mov,False,True,left,0,263,263,263,2018-12-10 12:46:08.203534,2018-12-10 12:46:12.090756,0:00:03.887222,6,right,0,0.3672805522260205,21,f,2,22,2018_Dec_10_1217,MP_PerceptionTuring2,59.972437510305056,
265,resources/videos_generated\model(vcgpdm)-dataset(walking)-mode(ELBO)-parts(2)-dyn(27)-lvm(18)_final(0).mov,resources/videos_natural\training(13).mov,True,True,left,0,264,264,264,2018-12-10 12:46:13.575841,2018-12-10 12:46:17.495065,0:00:03.919224,6,left,1,0.30043488998262546,21,f,2,22,2018_Dec_10_1217,MP_PerceptionTuring2,59.972437510305056,
266,resources/videos_generated\model(vcgpdm)-dataset(walking)-mode(ELBO)-parts(1)-dyn(23)-lvm(27)_final(0).mov,resources/videos_natural\training(35).mov,False,True,left,0,265,265,265,2018-12-10 12:46:18.913146,2018-12-10 12:46:22.983379,0:00:04.070233,6,right,0,0.2671691191972059,21,f,2,22,2018_Dec_10_1217,MP_PerceptionTuring2,59.972437510305056,
267,resources/videos_generated\model(vcgpdm)-dataset(walking)-mode(ELBO)-parts(1)-dyn(25)-lvm(25)_final(0).mov,resources/videos_natural\training(17).mov,True,False,right,0,266,266,266,2018-12-10 12:46:24.367458,2018-12-10 12:46:28.304683,0:00:03.937225,6,left,0,0.26715195248698365,21,f,2,22,2018_Dec_10_1217,MP_PerceptionTuring2,59.972437510305056,
268,resources/videos_generated\model(vcgpdm)-dataset(walking)-mode(ELBO)-parts(2)-dyn(23)-lvm(20)_final(8).mov,resources/videos_natural\training(17).mov,True,True,left,0,267,267,267,2018-12-10 12:46:29.688763,2018-12-10 12:46:33.575985,0:00:03.887222,6,left,1,0.4339138893742529,21,f,2,22,2018_Dec_10_1217,MP_PerceptionTuring2,59.972437510305056,
269,resources/videos_generated\model(vcgpdm)-dataset(walking)-mode(ELBO)-parts(1)-dyn(27)-lvm(22)_final(8).mov,resources/videos_natural\training(7).mov,True,False,right,0,268,268,268,2018-12-10 12:46:35.127074,2018-12-10 12:46:39.063299,0:00:03.936225,6,right,1,0.4839614742891172,21,f,2,22,2018_Dec_10_1217,MP_PerceptionTuring2,59.972437510305056,
270,resources/videos_generated\model(vcgpdm)-dataset(walking)-mode(ELBO)-parts(1)-dyn(22)-lvm(23)_final(3)_fail.mov,resources/videos_natural\training(15).mov,True,True,left,0,269,269,269,2018-12-10 12:46:40.665390,2018-12-10 12:46:44.568614,0:00:03.903224,6,left,1,0.3175079358388757,21,f,2,22,2018_Dec_10_1217,MP_PerceptionTuring2,59.972437510305056,
271,resources/videos_generated\model(vcgpdm)-dataset(walking)-mode(ELBO)-parts(2)-dyn(26)-lvm(19)_final(0).mov,resources/videos_natural\training(31).mov,True,True,left,0,270,270,270,2018-12-10 12:47:19.548614,2018-12-10 12:47:23.602846,0:00:04.054232,7,left,1,0.3171570723829973,21,f,2,22,2018_Dec_10_1217,MP_PerceptionTuring2,59.972437510305056,
272,resources/videos_generated\model(vcgpdm)-dataset(walking)-mode(ELBO)-parts(2)-dyn(28)-lvm(23)_final(0).mov,resources/videos_natural\training(9).mov,False,False,right,0,271,271,271,2018-12-10 12:47:25.036928,2018-12-10 12:47:28.940151,0:00:03.903223,7,right,1,0.40068034381602047,21,f,2,22,2018_Dec_10_1217,MP_PerceptionTuring2,59.972437510305056,
273,resources/videos_generated\model(dmp)-dataset(walking)-npsi(60)_final(3).mov,resources/videos_natural\training(43).mov,True,True,left,0,272,272,272,2018-12-10 12:47:30.458238,2018-12-10 12:47:34.395464,0:00:03.937226,7,left,1,0.4839542462004829,21,f,2,22,2018_Dec_10_1217,MP_PerceptionTuring2,59.972437510305056,
274,resources/videos_generated\model(vcgpdm)-dataset(walking)-mode(ELBO)-parts(2)-dyn(22)-lvm(17)_final(8).mov,resources/videos_natural\training(29).mov,True,False,right,0,273,273,273,2018-12-10 12:47:35.996555,2018-12-10 12:47:39.899778,0:00:03.903223,7,left,0,0.26753443882898864,21,f,2,22,2018_Dec_10_1217,MP_PerceptionTuring2,59.972437510305056,
275,resources/videos_generated\model(vcgpdm)-dataset(walking)-mode(ELBO)-parts(2)-dyn(28)-lvm(21)_final(2).mov,resources/videos_natural\training(27).mov,True,True,left,0,274,274,274,2018-12-10 12:47:41.283858,2018-12-10 12:47:45.204082,0:00:03.920224,7,right,0,0.4006107734658144,21,f,2,22,2018_Dec_10_1217,MP_PerceptionTuring2,59.972437510305056,
276,resources/videos_generated\model(vcgpdm)-dataset(walking)-mode(ELBO)-parts(1)-dyn(25)-lvm(22)_final(3).mov,resources/videos_natural\training(30).mov,False,True,left,0,275,275,275,2018-12-10 12:47:46.722169,2018-12-10 12:47:50.675395,0:00:03.953226,7,left,1,0.517289286166033,21,f,2,22,2018_Dec_10_1217,MP_PerceptionTuring2,59.972437510305056,
277,resources/videos_generated\model(dmp)-dataset(walking)-npsi(50)_final(5).mov,resources/videos_natural\training(34).mov,False,False,right,0,276,276,276,2018-12-10 12:47:52.310488,2018-12-10 12:47:56.230712,0:00:03.920224,7,right,1,0.26720586197961893,21,f,2,22,2018_Dec_10_1217,MP_PerceptionTuring2,59.972437510305056,
278,resources/videos_generated\model(vcgpdm)-dataset(walking)-mode(ELBO)-parts(1)-dyn(27)-lvm(24)_final(6).mov,resources/videos_natural\training(7).mov,False,False,right,0,277,277,277,2018-12-10 12:47:57.614792,2018-12-10 12:48:01.518015,0:00:03.903223,7,right,1,0.28384582487569787,21,f,2,22,2018_Dec_10_1217,MP_PerceptionTuring2,59.972437510305056,
279,resources/videos_generated\model(vcgpdm)-dataset(walking)-mode(ELBO)-parts(1)-dyn(27)-lvm(24)_final(2).mov,resources/videos_natural\training(10).mov,False,True,left,0,278,278,278,2018-12-10 12:48:02.920095,2018-12-10 12:48:06.823318,0:00:03.903223,7,left,1,0.41737813141844526,21,f,2,22,2018_Dec_10_1217,MP_PerceptionTuring2,59.972437510305056,
280,resources/videos_generated\model(vcgpdm)-dataset(walking)-mode(ELBO)-parts(2)-dyn(26)-lvm(23)_final(0).mov,resources/videos_natural\training(39).mov,False,False,right,0,279,279,279,2018-12-10 12:48:08.357406,2018-12-10 12:48:12.411638,0:00:04.054232,7,right,1,0.4840439949643951,21,f,2,22,2018_Dec_10_1217,MP_PerceptionTuring2,59.972437510305056,
281,resources/videos_generated\model(vcgpdm)-dataset(walking)-mode(ELBO)-parts(1)-dyn(27)-lvm(22)_final(0).mov,resources/videos_natural\training(12).mov,True,True,left,0,280,280,280,2018-12-10 12:48:14.012729,2018-12-10 12:48:17.932954,0:00:03.920225,7,right,0,0.333875038399583,21,f,2,22,2018_Dec_10_1217,MP_PerceptionTuring2,59.972437510305056,
282,resources/videos_generated\model(vcgpdm)-dataset(walking)-mode(ELBO)-parts(1)-dyn(26)-lvm(23)_final(8).mov,resources/videos_natural\training(20).mov,True,False,right,0,281,281,281,2018-12-10 12:48:19.384037,2018-12-10 12:48:23.304261,0:00:03.920224,7,right,1,0.267514260416192,21,f,2,22,2018_Dec_10_1217,MP_PerceptionTuring2,59.972437510305056,
283,resources/videos_generated\model(tmp)-dataset(walking)-numprim(14)_final(3).mov,resources/videos_natural\training(10).mov,True,False,right,0,282,282,282,2018-12-10 12:48:24.688340,2018-12-10 12:48:28.591563,0:00:03.903223,7,left,0,0.23370066076768126,21,f,2,22,2018_Dec_10_1217,MP_PerceptionTuring2,59.972437510305056,
284,resources/videos_generated\model(vcgpdm)-dataset(walking)-mode(ELBO)-parts(2)-dyn(22)-lvm(19)_final(2).mov,resources/videos_natural\training(0).mov,False,False,right,0,283,283,283,2018-12-10 12:48:29.942641,2018-12-10 12:48:33.846864,0:00:03.904223,7,right,1,0.5007532270406045,21,f,2,22,2018_Dec_10_1217,MP_PerceptionTuring2,59.972437510305056,
285,resources/videos_generated\model(vcgpdm)-dataset(walking)-mode(ELBO)-parts(1)-dyn(27)-lvm(26)_final(4).mov,resources/videos_natural\training(9).mov,True,True,left,0,284,284,284,2018-12-10 12:48:35.464956,2018-12-10 12:48:39.351179,0:00:03.886223,7,left,1,0.3672094760240725,21,f,2,22,2018_Dec_10_1217,MP_PerceptionTuring2,59.972437510305056,
286,resources/videos_generated\model(vcgpdm)-dataset(walking)-mode(ELBO)-parts(2)-dyn(22)-lvm(17)_final(0).mov,resources/videos_natural\training(16).mov,False,False,right,0,285,285,285,2018-12-10 12:48:40.835264,2018-12-10 12:48:44.722486,0:00:03.887222,7,right,1,0.3172468211469095,21,f,2,22,2018_Dec_10_1217,MP_PerceptionTuring2,59.972437510305056,
287,resources/videos_generated\model(vcgpdm)-dataset(walking)-mode(ELBO)-parts(1)-dyn(24)-lvm(25)_final(9).mov,resources/videos_natural\training(28).mov,True,False,right,0,286,286,286,2018-12-10 12:48:46.156568,2018-12-10 12:48:50.060791,0:00:03.904223,7,left,0,0.41725435040598313,21,f,2,22,2018_Dec_10_1217,MP_PerceptionTuring2,59.972437510305056,
288,resources/videos_generated\model(vcgpdm)-dataset(walking)-mode(ELBO)-parts(1)-dyn(25)-lvm(26)_final(3)_fail.mov,resources/videos_natural\training(36).mov,True,False,right,0,287,287,287,2018-12-10 12:48:51.594879,2018-12-10 12:48:55.532104,0:00:03.937225,7,right,1,0.3672832627594289,21,f,2,22,2018_Dec_10_1217,MP_PerceptionTuring2,59.972437510305056,
289,resources/videos_generated\model(vcgpdm)-dataset(walking)-mode(ELBO)-parts(2)-dyn(24)-lvm(23)_final(8).mov,resources/videos_natural\training(7).mov,False,True,left,0,288,288,288,2018-12-10 12:48:57.016189,2018-12-10 12:49:00.920412,0:00:03.904223,7,right,0,0.3172691077525087,21,f,2,22,2018_Dec_10_1217,MP_PerceptionTuring2,59.972437510305056,
290,resources/videos_generated\model(vcgpdm)-dataset(walking)-mode(ELBO)-parts(2)-dyn(22)-lvm(21)_final(8).mov,resources/videos_natural\training(26).mov,True,True,left,0,289,289,289,2018-12-10 12:49:02.354494,2018-12-10 12:49:06.274719,0:00:03.920225,7,right,0,0.2338654009477068,21,f,2,22,2018_Dec_10_1217,MP_PerceptionTuring2,59.972437510305056,
