n_trial,mov_file_generated,mov_file_natural,mirrored,switch_stim_pos,correct_answer,trials.thisRepN,trials.thisTrialN,trials.thisN,trials.thisIndex,stimulus_onset,stimulus_off,stimulus_length,block,response.keys,response.corr,response.rt,age,gender,condition,participant,date,expName,frameRate,
1,resources/videos_generated\model(vcgpdm)-dataset(walking)-mode(ELBO)-parts(1)-dyn(23)-lvm(26)_final(2).mov,resources/videos_natural\training(40).mov,True,True,left,0,0,0,0,2018-12-10 16:33:41.716929,2018-12-10 16:33:45.854165,0:00:04.137236,1,right,0,15.913694666618085,22,f,2,23,2018_Dec_10_1633,MP_PerceptionTuring2,59.9576187785275,
2,resources/videos_generated\model(vcgpdm)-dataset(walking)-mode(ELBO)-parts(2)-dyn(24)-lvm(21)_final(0).mov,resources/videos_natural\training(2).mov,True,True,left,0,1,1,1,2018-12-10 16:34:02.885139,2018-12-10 16:34:07.005375,0:00:04.120236,1,left,1,0.3171240028536886,22,f,2,23,2018_Dec_10_1633,MP_PerceptionTuring2,59.9576187785275,
3,resources/videos_generated\model(dmp)-dataset(walking)-npsi(60)_final(3).mov,resources/videos_natural\training(42).mov,True,True,left,0,2,2,2,2018-12-10 16:34:08.439457,2018-12-10 16:34:12.526691,0:00:04.087234,1,right,0,0.3005712347885492,22,f,2,23,2018_Dec_10_1633,MP_PerceptionTuring2,59.9576187785275,
4,resources/videos_generated\model(tmp)-dataset(walking)-numprim(11)_final(3).mov,resources/videos_natural\training(10).mov,True,True,left,0,3,3,3,2018-12-10 16:34:13.944772,2018-12-10 16:34:17.897998,0:00:03.953226,1,left,1,0.31734054622529584,22,f,2,23,2018_Dec_10_1633,MP_PerceptionTuring2,59.9576187785275,
5,resources/videos_generated\model(vcgpdm)-dataset(walking)-mode(ELBO)-parts(1)-dyn(25)-lvm(23)_final(2).mov,resources/videos_natural\training(1).mov,False,False,right,0,4,4,4,2018-12-10 16:34:19.332080,2018-12-10 16:34:23.402313,0:00:04.070233,1,right,1,0.2837937916806368,22,f,2,23,2018_Dec_10_1633,MP_PerceptionTuring2,59.9576187785275,
6,resources/videos_generated\model(vcgpdm)-dataset(walking)-mode(ELBO)-parts(2)-dyn(28)-lvm(19)_final(2).mov,resources/videos_natural\training(44).mov,False,False,right,0,5,5,5,2018-12-10 16:34:24.803393,2018-12-10 16:34:28.857625,0:00:04.054232,1,right,1,0.26715850221853543,22,f,2,23,2018_Dec_10_1633,MP_PerceptionTuring2,59.9576187785275,
7,resources/videos_generated\model(vcgpdm)-dataset(walking)-mode(ELBO)-parts(1)-dyn(23)-lvm(26)_final(0).mov,resources/videos_natural\training(17).mov,True,False,right,0,6,6,6,2018-12-10 16:34:30.241704,2018-12-10 16:34:34.378941,0:00:04.137237,1,left,0,0.28378897291304384,22,f,2,23,2018_Dec_10_1633,MP_PerceptionTuring2,59.9576187785275,
8,resources/videos_generated\model(vcgpdm)-dataset(walking)-mode(ELBO)-parts(2)-dyn(27)-lvm(18)_final(0).mov,resources/videos_natural\training(7).mov,True,False,right,0,7,7,7,2018-12-10 16:34:35.780021,2018-12-10 16:34:39.767249,0:00:03.987228,1,left,0,0.23382317110417716,22,f,2,23,2018_Dec_10_1633,MP_PerceptionTuring2,59.9576187785275,
9,resources/videos_generated\model(vcgpdm)-dataset(walking)-mode(ELBO)-parts(2)-dyn(24)-lvm(21)_final(4).mov,resources/videos_natural\training(33).mov,False,False,right,0,8,8,8,2018-12-10 16:34:41.118326,2018-12-10 16:34:45.171558,0:00:04.053232,1,right,1,0.20064294407438865,22,f,2,23,2018_Dec_10_1633,MP_PerceptionTuring2,59.9576187785275,
10,resources/videos_generated\model(tmp)-dataset(walking)-numprim(14)_final(7).mov,resources/videos_natural\training(3).mov,False,False,right,0,9,9,9,2018-12-10 16:34:46.489633,2018-12-10 16:34:50.442860,0:00:03.953227,1,left,0,0.2504774344638463,22,f,2,23,2018_Dec_10_1633,MP_PerceptionTuring2,59.9576187785275,
11,resources/videos_generated\model(vcgpdm)-dataset(walking)-mode(ELBO)-parts(1)-dyn(23)-lvm(24)_final(8).mov,resources/videos_natural\training(33).mov,False,False,right,0,10,10,10,2018-12-10 16:34:51.810938,2018-12-10 16:34:55.730162,0:00:03.919224,1,right,1,0.25036690398110295,22,f,2,23,2018_Dec_10_1633,MP_PerceptionTuring2,59.9576187785275,
12,resources/videos_generated\model(vcgpdm)-dataset(walking)-mode(ELBO)-parts(2)-dyn(23)-lvm(20)_final(0).mov,resources/videos_natural\training(0).mov,False,False,right,0,11,11,11,2018-12-10 16:34:57.098240,2018-12-10 16:35:01.201475,0:00:04.103235,1,right,1,0.23381684647210932,22,f,2,23,2018_Dec_10_1633,MP_PerceptionTuring2,59.9576187785275,
13,resources/videos_generated\model(vcgpdm)-dataset(walking)-mode(ELBO)-parts(2)-dyn(22)-lvm(21)_final(8).mov,resources/videos_natural\training(29).mov,False,False,right,0,12,12,12,2018-12-10 16:35:02.553552,2018-12-10 16:35:06.472776,0:00:03.919224,1,right,1,0.23390358428969193,22,f,2,23,2018_Dec_10_1633,MP_PerceptionTuring2,59.9576187785275,
14,resources/videos_generated\model(vcgpdm)-dataset(walking)-mode(ELBO)-parts(1)-dyn(23)-lvm(27)_final(7).mov,resources/videos_natural\training(19).mov,False,False,right,0,13,13,13,2018-12-10 16:35:07.823854,2018-12-10 16:35:11.728077,0:00:03.904223,1,right,1,0.23378462096343355,22,f,2,23,2018_Dec_10_1633,MP_PerceptionTuring2,59.9576187785275,
15,resources/videos_generated\model(dmp)-dataset(walking)-npsi(70)_final(7).mov,resources/videos_natural\training(19).mov,False,False,right,0,14,14,14,2018-12-10 16:35:13.079154,2018-12-10 16:35:17.032380,0:00:03.953226,1,right,1,0.2504346679011178,22,f,2,23,2018_Dec_10_1633,MP_PerceptionTuring2,59.9576187785275,
16,resources/videos_generated\model(vcgpdm)-dataset(walking)-mode(ELBO)-parts(2)-dyn(23)-lvm(18)_final(8).mov,resources/videos_natural\training(48).mov,True,False,right,0,15,15,15,2018-12-10 16:35:18.400459,2018-12-10 16:35:22.336684,0:00:03.936225,1,right,1,0.2670928465090583,22,f,2,23,2018_Dec_10_1633,MP_PerceptionTuring2,59.9576187785275,
17,resources/videos_generated\model(dmp)-dataset(walking)-npsi(80)_final(1).mov,resources/videos_natural\training(35).mov,False,False,right,0,16,16,16,2018-12-10 16:35:23.721763,2018-12-10 16:35:27.791996,0:00:04.070233,1,left,0,0.3004465491753763,22,f,2,23,2018_Dec_10_1633,MP_PerceptionTuring2,59.9576187785275,
18,resources/videos_generated\model(vcgpdm)-dataset(walking)-mode(ELBO)-parts(1)-dyn(26)-lvm(25)_final(4).mov,resources/videos_natural\training(6).mov,True,True,left,0,17,17,17,2018-12-10 16:35:29.209077,2018-12-10 16:35:33.146302,0:00:03.937225,1,left,1,0.2838278242270462,22,f,2,23,2018_Dec_10_1633,MP_PerceptionTuring2,59.9576187785275,
19,resources/videos_generated\model(vcgpdm)-dataset(walking)-mode(ELBO)-parts(1)-dyn(23)-lvm(24)_final(0).mov,resources/videos_natural\training(38).mov,False,False,right,0,18,18,18,2018-12-10 16:35:34.547382,2018-12-10 16:35:38.500608,0:00:03.953226,1,right,1,0.5507770112258186,22,f,2,23,2018_Dec_10_1633,MP_PerceptionTuring2,59.9576187785275,
20,resources/videos_generated\model(tmp)-dataset(walking)-numprim(12)_final(5).mov,resources/videos_natural\training(37).mov,True,False,right,0,19,19,19,2018-12-10 16:35:40.168704,2018-12-10 16:35:44.088928,0:00:03.920224,1,right,1,0.38393832459269106,22,f,2,23,2018_Dec_10_1633,MP_PerceptionTuring2,59.9576187785275,
21,resources/videos_generated\model(vcgpdm)-dataset(walking)-mode(ELBO)-parts(1)-dyn(23)-lvm(28)_final(1).mov,resources/videos_natural\training(16).mov,False,False,right,0,20,20,20,2018-12-10 16:35:45.590014,2018-12-10 16:35:49.477236,0:00:03.887222,1,right,1,0.35065087998236777,22,f,2,23,2018_Dec_10_1633,MP_PerceptionTuring2,59.9576187785275,
22,resources/videos_generated\model(vcgpdm)-dataset(walking)-mode(ELBO)-parts(1)-dyn(25)-lvm(24)_final(6).mov,resources/videos_natural\training(48).mov,True,False,right,0,21,21,21,2018-12-10 16:35:50.945320,2018-12-10 16:35:54.998552,0:00:04.053232,1,right,1,0.28369109169489093,22,f,2,23,2018_Dec_10_1633,MP_PerceptionTuring2,59.9576187785275,
23,resources/videos_generated\model(vcgpdm)-dataset(walking)-mode(ELBO)-parts(2)-dyn(28)-lvm(17)_final(4).mov,resources/videos_natural\training(37).mov,True,False,right,0,22,22,22,2018-12-10 16:35:56.399632,2018-12-10 16:36:00.452864,0:00:04.053232,1,right,1,0.38397205596629647,22,f,2,23,2018_Dec_10_1633,MP_PerceptionTuring2,59.9576187785275,
24,resources/videos_generated\model(vcgpdm)-dataset(walking)-mode(ELBO)-parts(1)-dyn(23)-lvm(26)_final(4)_hip-corrected.mov,resources/videos_natural\training(9).mov,True,False,right,0,23,23,23,2018-12-10 16:36:01.953950,2018-12-10 16:36:05.858173,0:00:03.904223,1,right,1,0.2505512218435797,22,f,2,23,2018_Dec_10_1633,MP_PerceptionTuring2,59.9576187785275,
25,resources/videos_generated\model(vcgpdm)-dataset(walking)-mode(ELBO)-parts(1)-dyn(28)-lvm(27)_final(8).mov,resources/videos_natural\training(46).mov,True,True,left,0,24,24,24,2018-12-10 16:36:07.226251,2018-12-10 16:36:11.145475,0:00:03.919224,1,right,0,0.1836817854500623,22,f,2,23,2018_Dec_10_1633,MP_PerceptionTuring2,59.9576187785275,
26,resources/videos_generated\model(dmp)-dataset(walking)-npsi(80)_final(9).mov,resources/videos_natural\training(8).mov,False,True,left,0,25,25,25,2018-12-10 16:36:12.446550,2018-12-10 16:36:16.383775,0:00:03.937225,1,right,0,0.26691184154924485,22,f,2,23,2018_Dec_10_1633,MP_PerceptionTuring2,59.9576187785275,
27,resources/videos_generated\model(tmp)-dataset(walking)-numprim(13)_final(7).mov,resources/videos_natural\training(34).mov,True,False,right,0,26,26,26,2018-12-10 16:36:17.767854,2018-12-10 16:36:21.688078,0:00:03.920224,1,left,0,0.23379606553635313,22,f,2,23,2018_Dec_10_1633,MP_PerceptionTuring2,59.9576187785275,
28,resources/videos_generated\model(vcgpdm)-dataset(walking)-mode(ELBO)-parts(2)-dyn(28)-lvm(17)_final(8).mov,resources/videos_natural\training(10).mov,True,False,right,0,27,27,27,2018-12-10 16:36:23.039156,2018-12-10 16:36:27.076387,0:00:04.037231,1,right,1,0.2837696978422173,22,f,2,23,2018_Dec_10_1633,MP_PerceptionTuring2,59.9576187785275,
29,resources/videos_generated\model(vcgpdm)-dataset(walking)-mode(ELBO)-parts(1)-dyn(24)-lvm(27)_final(9).mov,resources/videos_natural\training(21).mov,True,False,right,0,28,28,28,2018-12-10 16:36:28.477467,2018-12-10 16:36:32.597702,0:00:04.120235,1,right,1,0.33378368732701347,22,f,2,23,2018_Dec_10_1633,MP_PerceptionTuring2,59.9576187785275,
30,resources/videos_generated\model(vcgpdm)-dataset(walking)-mode(ELBO)-parts(2)-dyn(27)-lvm(20)_final(8).mov,resources/videos_natural\training(8).mov,False,True,left,0,29,29,29,2018-12-10 16:36:34.048785,2018-12-10 16:36:37.969010,0:00:03.920225,1,right,0,0.2504602676040122,22,f,2,23,2018_Dec_10_1633,MP_PerceptionTuring2,59.9576187785275,
31,resources/videos_generated\model(vcgpdm)-dataset(walking)-mode(ELBO)-parts(1)-dyn(24)-lvm(23)_final(5).mov,resources/videos_natural\training(2).mov,False,True,left,0,30,30,30,2018-12-10 16:36:39.337088,2018-12-10 16:36:43.440323,0:00:04.103235,1,left,1,0.30054141866321515,22,f,2,23,2018_Dec_10_1633,MP_PerceptionTuring2,59.9576187785275,
32,resources/videos_generated\model(vcgpdm)-dataset(walking)-mode(ELBO)-parts(1)-dyn(28)-lvm(27)_final(2).mov,resources/videos_natural\training(5).mov,True,True,left,0,31,31,31,2018-12-10 16:36:44.858404,2018-12-10 16:36:48.761627,0:00:03.903223,1,left,1,0.21709963795956355,22,f,2,23,2018_Dec_10_1633,MP_PerceptionTuring2,59.9576187785275,
33,resources/videos_generated\model(vcgpdm)-dataset(walking)-mode(ELBO)-parts(1)-dyn(25)-lvm(25)_final(0).mov,resources/videos_natural\training(30).mov,False,False,right,0,32,32,32,2018-12-10 16:36:50.095703,2018-12-10 16:36:54.182937,0:00:04.087234,1,right,1,0.2503331726070428,22,f,2,23,2018_Dec_10_1633,MP_PerceptionTuring2,59.9576187785275,
34,resources/videos_generated\model(tmp)-dataset(walking)-numprim(15)_final(3).mov,resources/videos_natural\training(14).mov,False,False,right,0,33,33,33,2018-12-10 16:36:55.551015,2018-12-10 16:36:59.454239,0:00:03.903224,1,right,1,0.16711847632950594,22,f,2,23,2018_Dec_10_1633,MP_PerceptionTuring2,59.9576187785275,
35,resources/videos_generated\model(vcgpdm)-dataset(walking)-mode(ELBO)-parts(2)-dyn(28)-lvm(23)_final(8).mov,resources/videos_natural\training(34).mov,False,False,right,0,34,34,34,2018-12-10 16:37:00.738312,2018-12-10 16:37:04.675537,0:00:03.937225,1,right,1,0.2338075101092727,22,f,2,23,2018_Dec_10_1633,MP_PerceptionTuring2,59.9576187785275,
36,resources/videos_generated\model(vcgpdm)-dataset(walking)-mode(ELBO)-parts(2)-dyn(28)-lvm(17)_final(6).mov,resources/videos_natural\training(4).mov,False,False,right,0,35,35,35,2018-12-10 16:37:06.026614,2018-12-10 16:37:09.963840,0:00:03.937226,1,right,1,0.3005766559017502,22,f,2,23,2018_Dec_10_1633,MP_PerceptionTuring2,59.9576187785275,
37,resources/videos_generated\model(vcgpdm)-dataset(walking)-mode(ELBO)-parts(1)-dyn(28)-lvm(24)_final(5).mov,resources/videos_natural\training(20).mov,False,False,right,0,36,36,36,2018-12-10 16:37:11.380921,2018-12-10 16:37:15.469155,0:00:04.088234,1,right,1,0.200574577808311,22,f,2,23,2018_Dec_10_1633,MP_PerceptionTuring2,59.9576187785275,
38,resources/videos_generated\model(vcgpdm)-dataset(walking)-mode(ELBO)-parts(1)-dyn(24)-lvm(25)_final(1).mov,resources/videos_natural\training(0).mov,False,False,right,0,37,37,37,2018-12-10 16:37:16.786230,2018-12-10 16:37:20.739456,0:00:03.953226,1,right,1,0.283806742118486,22,f,2,23,2018_Dec_10_1633,MP_PerceptionTuring2,59.9576187785275,
39,resources/videos_generated\model(vcgpdm)-dataset(walking)-mode(ELBO)-parts(2)-dyn(27)-lvm(20)_final(4).mov,resources/videos_natural\training(35).mov,True,False,right,0,38,38,38,2018-12-10 16:37:22.140536,2018-12-10 16:37:26.060760,0:00:03.920224,1,right,1,0.267124469672126,22,f,2,23,2018_Dec_10_1633,MP_PerceptionTuring2,59.9576187785275,
40,resources/videos_generated\model(tmp)-dataset(walking)-numprim(15)_final(9).mov,resources/videos_natural\training(28).mov,True,True,left,0,39,39,39,2018-12-10 16:37:27.444840,2018-12-10 16:37:31.499071,0:00:04.054231,1,left,1,0.23403128163272413,22,f,2,23,2018_Dec_10_1633,MP_PerceptionTuring2,59.9576187785275,
41,resources/videos_generated\model(dmp)-dataset(walking)-npsi(50)_final(1).mov,resources/videos_natural\training(48).mov,False,True,left,0,40,40,40,2018-12-10 16:37:32.850149,2018-12-10 16:37:36.836377,0:00:03.986228,1,left,1,0.25044430543675844,22,f,2,23,2018_Dec_10_1633,MP_PerceptionTuring2,59.9576187785275,
42,resources/videos_generated\model(vcgpdm)-dataset(walking)-mode(ELBO)-parts(2)-dyn(24)-lvm(21)_final(2).mov,resources/videos_natural\training(43).mov,False,True,left,0,41,41,41,2018-12-10 16:37:38.204455,2018-12-10 16:37:42.274688,0:00:04.070233,1,right,0,0.3172766975540071,22,f,2,23,2018_Dec_10_1633,MP_PerceptionTuring2,59.9576187785275,
43,resources/videos_generated\model(dmp)-dataset(walking)-npsi(50)_final(5).mov,resources/videos_natural\training(16).mov,True,True,left,0,42,42,42,2018-12-10 16:37:43.708770,2018-12-10 16:37:47.595992,0:00:03.887222,1,left,1,0.31734446147402195,22,f,2,23,2018_Dec_10_1633,MP_PerceptionTuring2,59.9576187785275,
44,resources/videos_generated\model(vcgpdm)-dataset(walking)-mode(ELBO)-parts(2)-dyn(26)-lvm(23)_final(6).mov,resources/videos_natural\training(47).mov,True,False,right,0,43,43,43,2018-12-10 16:37:49.030074,2018-12-10 16:37:53.100307,0:00:04.070233,1,right,1,0.2504277409225324,22,f,2,23,2018_Dec_10_1633,MP_PerceptionTuring2,59.9576187785275,
45,resources/videos_generated\model(vcgpdm)-dataset(walking)-mode(ELBO)-parts(1)-dyn(26)-lvm(23)_final(2).mov,resources/videos_natural\training(3).mov,True,False,right,0,44,44,44,2018-12-10 16:37:54.468385,2018-12-10 16:37:58.405610,0:00:03.937225,1,left,0,0.5674644036130303,22,f,2,23,2018_Dec_10_1633,MP_PerceptionTuring2,59.9576187785275,
46,resources/videos_generated\model(vcgpdm)-dataset(walking)-mode(ELBO)-parts(1)-dyn(22)-lvm(25)_final(5).mov,resources/videos_natural\training(2).mov,False,True,left,0,45,45,45,2018-12-10 16:38:32.367553,2018-12-10 16:38:36.487789,0:00:04.120236,2,left,1,0.23381955702870982,22,f,2,23,2018_Dec_10_1633,MP_PerceptionTuring2,59.9576187785275,
47,resources/videos_generated\model(vcgpdm)-dataset(walking)-mode(ELBO)-parts(2)-dyn(22)-lvm(23)_final(8).mov,resources/videos_natural\training(22).mov,False,False,right,0,46,46,46,2018-12-10 16:38:37.838866,2018-12-10 16:38:41.876097,0:00:04.037231,2,right,1,0.13366237485161037,22,f,2,23,2018_Dec_10_1633,MP_PerceptionTuring2,59.9576187785275,
48,resources/videos_generated\model(vcgpdm)-dataset(walking)-mode(ELBO)-parts(2)-dyn(23)-lvm(20)_final(8).mov,resources/videos_natural\training(44).mov,False,True,left,0,47,47,47,2018-12-10 16:38:43.127168,2018-12-10 16:38:47.047393,0:00:03.920225,2,left,1,0.2670024946155536,22,f,2,23,2018_Dec_10_1633,MP_PerceptionTuring2,59.9576187785275,
49,resources/videos_generated\model(vcgpdm)-dataset(walking)-mode(ELBO)-parts(1)-dyn(24)-lvm(27)_final(5).mov,resources/videos_natural\training(25).mov,False,True,left,0,48,48,48,2018-12-10 16:38:48.431472,2018-12-10 16:38:52.418700,0:00:03.987228,2,left,1,0.35060931811131013,22,f,2,23,2018_Dec_10_1633,MP_PerceptionTuring2,59.9576187785275,
50,resources/videos_generated\model(vcgpdm)-dataset(walking)-mode(ELBO)-parts(2)-dyn(27)-lvm(22)_final(6).mov,resources/videos_natural\training(45).mov,False,True,left,0,49,49,49,2018-12-10 16:38:53.886784,2018-12-10 16:38:57.823009,0:00:03.936225,2,left,1,0.2670512846384554,22,f,2,23,2018_Dec_10_1633,MP_PerceptionTuring2,59.9576187785275,
51,resources/videos_generated\model(vcgpdm)-dataset(walking)-mode(ELBO)-parts(2)-dyn(26)-lvm(19)_final(8).mov,resources/videos_natural\training(32).mov,False,True,left,0,50,50,50,2018-12-10 16:38:59.208088,2018-12-10 16:39:03.311323,0:00:04.103235,2,left,1,0.2671684409269801,22,f,2,23,2018_Dec_10_1633,MP_PerceptionTuring2,59.9576187785275,
52,resources/videos_generated\model(vcgpdm)-dataset(walking)-mode(ELBO)-parts(2)-dyn(24)-lvm(23)_final(2).mov,resources/videos_natural\training(14).mov,False,True,left,0,51,51,51,2018-12-10 16:39:04.695402,2018-12-10 16:39:08.599625,0:00:03.904223,2,right,0,0.15051450885766826,22,f,2,23,2018_Dec_10_1633,MP_PerceptionTuring2,59.9576187785275,
53,resources/videos_generated\model(vcgpdm)-dataset(walking)-mode(ELBO)-parts(1)-dyn(23)-lvm(24)_final(2).mov,resources/videos_natural\training(0).mov,False,True,left,0,52,52,52,2018-12-10 16:39:09.866698,2018-12-10 16:39:13.820924,0:00:03.954226,2,left,1,0.25045635235528607,22,f,2,23,2018_Dec_10_1633,MP_PerceptionTuring2,59.9576187785275,
54,resources/videos_generated\model(vcgpdm)-dataset(walking)-mode(ELBO)-parts(1)-dyn(25)-lvm(26)_final(7).mov,resources/videos_natural\training(47).mov,False,True,left,0,53,53,53,2018-12-10 16:39:15.188002,2018-12-10 16:39:19.108226,0:00:03.920224,2,right,0,0.3336809873412676,22,f,2,23,2018_Dec_10_1633,MP_PerceptionTuring2,59.9576187785275,
55,resources/videos_generated\model(vcgpdm)-dataset(walking)-mode(ELBO)-parts(2)-dyn(22)-lvm(21)_final(4).mov,resources/videos_natural\training(6).mov,False,True,left,0,54,54,54,2018-12-10 16:39:20.559309,2018-12-10 16:39:24.479534,0:00:03.920225,2,left,1,0.2503870825703416,22,f,2,23,2018_Dec_10_1633,MP_PerceptionTuring2,59.9576187785275,
56,resources/videos_generated\model(vcgpdm)-dataset(walking)-mode(ELBO)-parts(1)-dyn(22)-lvm(23)_final(7).mov,resources/videos_natural\training(31).mov,False,False,right,0,55,55,55,2018-12-10 16:39:25.847612,2018-12-10 16:39:29.833840,0:00:03.986228,2,left,0,0.18359143355610286,22,f,2,23,2018_Dec_10_1633,MP_PerceptionTuring2,59.9576187785275,
57,resources/videos_generated\model(vcgpdm)-dataset(walking)-mode(ELBO)-parts(1)-dyn(22)-lvm(23)_final(9).mov,resources/videos_natural\training(18).mov,True,True,left,0,56,56,56,2018-12-10 16:39:31.134914,2018-12-10 16:39:35.039138,0:00:03.904224,2,left,1,0.25044581130123333,22,f,2,23,2018_Dec_10_1633,MP_PerceptionTuring2,59.9576187785275,
58,resources/videos_generated\model(vcgpdm)-dataset(walking)-mode(ELBO)-parts(2)-dyn(23)-lvm(18)_final(2).mov,resources/videos_natural\training(5).mov,False,False,right,0,57,57,57,2018-12-10 16:39:36.406216,2018-12-10 16:39:40.326440,0:00:03.920224,2,right,1,0.26704014123833986,22,f,2,23,2018_Dec_10_1633,MP_PerceptionTuring2,59.9576187785275,
59,resources/videos_generated\model(vcgpdm)-dataset(walking)-mode(ELBO)-parts(1)-dyn(28)-lvm(23)_final(6)_fail.mov,resources/videos_natural\training(13).mov,True,False,right,0,58,58,58,2018-12-10 16:39:41.711519,2018-12-10 16:39:45.714748,0:00:04.003229,2,right,1,0.23387256347314178,22,f,2,23,2018_Dec_10_1633,MP_PerceptionTuring2,59.9576187785275,
60,resources/videos_generated\model(vcgpdm)-dataset(walking)-mode(ELBO)-parts(1)-dyn(22)-lvm(25)_final(9).mov,resources/videos_natural\training(45).mov,False,False,right,0,59,59,59,2018-12-10 16:39:47.065825,2018-12-10 16:39:51.153059,0:00:04.087234,2,right,1,0.4173721392708103,22,f,2,23,2018_Dec_10_1633,MP_PerceptionTuring2,59.9576187785275,
61,resources/videos_generated\model(vcgpdm)-dataset(walking)-mode(ELBO)-parts(1)-dyn(24)-lvm(23)_final(7).mov,resources/videos_natural\training(3).mov,True,True,left,0,60,60,60,2018-12-10 16:39:52.687147,2018-12-10 16:39:56.740379,0:00:04.053232,2,left,1,0.28388896234173444,22,f,2,23,2018_Dec_10_1633,MP_PerceptionTuring2,59.9576187785275,
62,resources/videos_generated\model(dmp)-dataset(walking)-npsi(90)_final(1).mov,resources/videos_natural\training(34).mov,True,True,left,0,61,61,61,2018-12-10 16:39:58.142459,2018-12-10 16:40:02.111686,0:00:03.969227,2,left,1,0.8174476132189739,22,f,2,23,2018_Dec_10_1633,MP_PerceptionTuring2,59.9576187785275,
63,resources/videos_generated\model(vcgpdm)-dataset(walking)-mode(ELBO)-parts(2)-dyn(27)-lvm(22)_final(0).mov,resources/videos_natural\training(13).mov,False,False,right,0,62,62,62,2018-12-10 16:40:04.046797,2018-12-10 16:40:08.151031,0:00:04.104234,2,right,1,0.3005441292202704,22,f,2,23,2018_Dec_10_1633,MP_PerceptionTuring2,59.9576187785275,
64,resources/videos_generated\model(vcgpdm)-dataset(walking)-mode(ELBO)-parts(1)-dyn(24)-lvm(23)_final(1).mov,resources/videos_natural\training(32).mov,True,True,left,0,63,63,63,2018-12-10 16:40:09.569113,2018-12-10 16:40:13.672347,0:00:04.103234,2,left,1,0.31729717731650453,22,f,2,23,2018_Dec_10_1633,MP_PerceptionTuring2,59.9576187785275,
65,resources/videos_generated\model(vcgpdm)-dataset(walking)-mode(ELBO)-parts(1)-dyn(25)-lvm(28)_final(9).mov,resources/videos_natural\training(6).mov,True,False,right,0,64,64,64,2018-12-10 16:40:15.106429,2018-12-10 16:40:19.026653,0:00:03.920224,2,left,0,0.3172893468190523,22,f,2,23,2018_Dec_10_1633,MP_PerceptionTuring2,59.9576187785275,
66,resources/videos_generated\model(dmp)-dataset(walking)-npsi(50)_final(7).mov,resources/videos_natural\training(11).mov,False,True,left,0,65,65,65,2018-12-10 16:40:20.461736,2018-12-10 16:40:24.547969,0:00:04.086233,2,right,0,0.31731073010041655,22,f,2,23,2018_Dec_10_1633,MP_PerceptionTuring2,59.9576187785275,
67,resources/videos_generated\model(vcgpdm)-dataset(walking)-mode(ELBO)-parts(1)-dyn(23)-lvm(24)_final(4).mov,resources/videos_natural\training(5).mov,False,True,left,0,66,66,66,2018-12-10 16:40:25.983051,2018-12-10 16:40:30.086286,0:00:04.103235,2,left,1,0.2671009781797693,22,f,2,23,2018_Dec_10_1633,MP_PerceptionTuring2,59.9576187785275,
68,resources/videos_generated\model(tmp)-dataset(walking)-numprim(14)_final(1).mov,resources/videos_natural\training(24).mov,True,True,left,0,67,67,67,2018-12-10 16:40:31.471365,2018-12-10 16:40:35.374589,0:00:03.903224,2,right,0,0.4505623050090435,22,f,2,23,2018_Dec_10_1633,MP_PerceptionTuring2,59.9576187785275,
69,resources/videos_generated\model(vcgpdm)-dataset(walking)-mode(ELBO)-parts(2)-dyn(28)-lvm(17)_final(0).mov,resources/videos_natural\training(35).mov,True,False,right,0,68,68,68,2018-12-10 16:40:36.942678,2018-12-10 16:40:40.845901,0:00:03.903223,2,right,1,0.3339378878918069,22,f,2,23,2018_Dec_10_1633,MP_PerceptionTuring2,59.9576187785275,
70,resources/videos_generated\model(vcgpdm)-dataset(walking)-mode(ELBO)-parts(1)-dyn(25)-lvm(24)_final(8).mov,resources/videos_natural\training(39).mov,True,False,right,0,69,69,69,2018-12-10 16:40:42.296984,2018-12-10 16:40:46.267212,0:00:03.970228,2,left,0,0.21710114382494794,22,f,2,23,2018_Dec_10_1633,MP_PerceptionTuring2,59.9576187785275,
71,resources/videos_generated\model(vcgpdm)-dataset(walking)-mode(ELBO)-parts(1)-dyn(22)-lvm(22)_final(3).mov,resources/videos_natural\training(0).mov,False,False,right,0,70,70,70,2018-12-10 16:40:47.601288,2018-12-10 16:40:51.538513,0:00:03.937225,2,right,1,0.30074983036456615,22,f,2,23,2018_Dec_10_1633,MP_PerceptionTuring2,59.9576187785275,
72,resources/videos_generated\model(vcgpdm)-dataset(walking)-mode(ELBO)-parts(1)-dyn(27)-lvm(28)_final(8).mov,resources/videos_natural\training(13).mov,False,False,right,0,71,71,71,2018-12-10 16:40:52.956594,2018-12-10 16:40:56.859817,0:00:03.903223,2,left,0,0.3171962843689471,22,f,2,23,2018_Dec_10_1633,MP_PerceptionTuring2,59.9576187785275,
73,resources/videos_generated\model(vcgpdm)-dataset(walking)-mode(ELBO)-parts(1)-dyn(22)-lvm(27)_final(5)_fail.mov,resources/videos_natural\training(8).mov,False,True,left,0,72,72,72,2018-12-10 16:40:58.293899,2018-12-10 16:41:02.264127,0:00:03.970228,2,left,1,0.31724838729405747,22,f,2,23,2018_Dec_10_1633,MP_PerceptionTuring2,59.9576187785275,
74,resources/videos_generated\model(vcgpdm)-dataset(walking)-mode(ELBO)-parts(2)-dyn(22)-lvm(17)_final(4).mov,resources/videos_natural\training(10).mov,False,False,right,0,73,73,73,2018-12-10 16:41:03.699209,2018-12-10 16:41:07.785442,0:00:04.086233,2,right,1,0.3180359546327054,22,f,2,23,2018_Dec_10_1633,MP_PerceptionTuring2,59.9576187785275,
75,resources/videos_generated\model(dmp)-dataset(walking)-npsi(60)_final(7).mov,resources/videos_natural\training(26).mov,True,True,left,0,74,74,74,2018-12-10 16:41:09.220524,2018-12-10 16:41:13.123748,0:00:03.903224,2,left,1,0.3839485644743945,22,f,2,23,2018_Dec_10_1633,MP_PerceptionTuring2,59.9576187785275,
76,resources/videos_generated\model(vcgpdm)-dataset(walking)-mode(ELBO)-parts(1)-dyn(22)-lvm(22)_final(7).mov,resources/videos_natural\training(8).mov,False,True,left,0,75,75,75,2018-12-10 16:41:14.624833,2018-12-10 16:41:18.595061,0:00:03.970228,2,left,1,0.33386801576125436,22,f,2,23,2018_Dec_10_1633,MP_PerceptionTuring2,59.9576187785275,
77,resources/videos_generated\model(vcgpdm)-dataset(walking)-mode(ELBO)-parts(1)-dyn(28)-lvm(25)_final(2).mov,resources/videos_natural\training(7).mov,True,False,right,0,76,76,76,2018-12-10 16:41:20.046144,2018-12-10 16:41:24.166379,0:00:04.120235,2,left,0,0.3004965438894942,22,f,2,23,2018_Dec_10_1633,MP_PerceptionTuring2,59.9576187785275,
78,resources/videos_generated\model(vcgpdm)-dataset(walking)-mode(ELBO)-parts(2)-dyn(28)-lvm(21)_final(2).mov,resources/videos_natural\training(33).mov,False,False,right,0,77,77,77,2018-12-10 16:41:25.584460,2018-12-10 16:41:29.554687,0:00:03.970227,2,right,1,0.2172101684432164,22,f,2,23,2018_Dec_10_1633,MP_PerceptionTuring2,59.9576187785275,
79,resources/videos_generated\model(vcgpdm)-dataset(walking)-mode(ELBO)-parts(1)-dyn(26)-lvm(25)_final(6).mov,resources/videos_natural\training(9).mov,True,False,right,0,78,78,78,2018-12-10 16:41:30.888764,2018-12-10 16:41:34.942996,0:00:04.054232,2,right,1,0.6341013344672319,22,f,2,23,2018_Dec_10_1633,MP_PerceptionTuring2,59.9576187785275,
80,resources/videos_generated\model(vcgpdm)-dataset(walking)-mode(ELBO)-parts(2)-dyn(25)-lvm(22)_final(6).mov,resources/videos_natural\training(21).mov,False,False,right,0,79,79,79,2018-12-10 16:41:36.694096,2018-12-10 16:41:40.614320,0:00:03.920224,2,right,1,0.3674325395118103,22,f,2,23,2018_Dec_10_1633,MP_PerceptionTuring2,59.9576187785275,
81,resources/videos_generated\model(vcgpdm)-dataset(walking)-mode(ELBO)-parts(2)-dyn(28)-lvm(23)_final(0).mov,resources/videos_natural\training(17).mov,True,False,right,0,80,80,80,2018-12-10 16:41:42.098405,2018-12-10 16:41:46.035630,0:00:03.937225,2,left,0,0.350471682060288,22,f,2,23,2018_Dec_10_1633,MP_PerceptionTuring2,59.9576187785275,
82,resources/videos_generated\model(vcgpdm)-dataset(walking)-mode(ELBO)-parts(2)-dyn(25)-lvm(18)_final(6).mov,resources/videos_natural\training(4).mov,True,True,left,0,81,81,81,2018-12-10 16:41:47.503714,2018-12-10 16:41:51.422938,0:00:03.919224,2,left,1,0.3171863456605024,22,f,2,23,2018_Dec_10_1633,MP_PerceptionTuring2,59.9576187785275,
83,resources/videos_generated\model(vcgpdm)-dataset(walking)-mode(ELBO)-parts(1)-dyn(26)-lvm(27)_final(6).mov,resources/videos_natural\training(38).mov,True,False,right,0,82,82,82,2018-12-10 16:41:52.858020,2018-12-10 16:41:56.895251,0:00:04.037231,2,left,0,0.23379877609295363,22,f,2,23,2018_Dec_10_1633,MP_PerceptionTuring2,59.9576187785275,
84,resources/videos_generated\model(vcgpdm)-dataset(walking)-mode(ELBO)-parts(1)-dyn(24)-lvm(25)_final(3).mov,resources/videos_natural\training(0).mov,True,False,right,0,83,83,83,2018-12-10 16:41:58.246329,2018-12-10 16:42:02.182554,0:00:03.936225,2,left,0,0.3339710169193495,22,f,2,23,2018_Dec_10_1633,MP_PerceptionTuring2,59.9576187785275,
85,resources/videos_generated\model(vcgpdm)-dataset(walking)-mode(ELBO)-parts(1)-dyn(28)-lvm(23)_final(8).mov,resources/videos_natural\training(39).mov,True,True,left,0,84,84,84,2018-12-10 16:42:03.633637,2018-12-10 16:42:07.553861,0:00:03.920224,2,left,1,0.3006290599996646,22,f,2,23,2018_Dec_10_1633,MP_PerceptionTuring2,59.9576187785275,
86,resources/videos_generated\model(vcgpdm)-dataset(walking)-mode(ELBO)-parts(1)-dyn(25)-lvm(22)_final(7).mov,resources/videos_natural\training(43).mov,True,False,right,0,85,85,85,2018-12-10 16:42:08.971942,2018-12-10 16:42:12.925168,0:00:03.953226,2,right,1,0.2171080708030786,22,f,2,23,2018_Dec_10_1633,MP_PerceptionTuring2,59.9576187785275,
87,resources/videos_generated\model(vcgpdm)-dataset(walking)-mode(ELBO)-parts(2)-dyn(22)-lvm(19)_final(4).mov,resources/videos_natural\training(43).mov,False,True,left,0,86,86,86,2018-12-10 16:42:14.260244,2018-12-10 16:42:18.196470,0:00:03.936226,2,left,1,0.25044581130123333,22,f,2,23,2018_Dec_10_1633,MP_PerceptionTuring2,59.9576187785275,
88,resources/videos_generated\model(vcgpdm)-dataset(walking)-mode(ELBO)-parts(1)-dyn(25)-lvm(26)_final(3)_fail.mov,resources/videos_natural\training(12).mov,False,False,right,0,87,87,87,2018-12-10 16:42:19.564548,2018-12-10 16:42:23.500773,0:00:03.936225,2,right,1,0.2504373784577183,22,f,2,23,2018_Dec_10_1633,MP_PerceptionTuring2,59.9576187785275,
89,resources/videos_generated\model(vcgpdm)-dataset(walking)-mode(ELBO)-parts(1)-dyn(22)-lvm(23)_final(5).mov,resources/videos_natural\training(36).mov,True,False,right,0,88,88,88,2018-12-10 16:42:24.868851,2018-12-10 16:42:28.806076,0:00:03.937225,2,right,1,0.4174697193157044,22,f,2,23,2018_Dec_10_1633,MP_PerceptionTuring2,59.9576187785275,
90,resources/videos_generated\model(vcgpdm)-dataset(walking)-mode(ELBO)-parts(1)-dyn(26)-lvm(27)_final(4).mov,resources/videos_natural\training(20).mov,True,False,right,0,89,89,89,2018-12-10 16:42:30.340164,2018-12-10 16:42:34.243387,0:00:03.903223,2,right,1,0.20037700833427152,22,f,2,23,2018_Dec_10_1633,MP_PerceptionTuring2,59.9576187785275,
91,resources/videos_generated\model(vcgpdm)-dataset(walking)-mode(ELBO)-parts(2)-dyn(27)-lvm(22)_final(8).mov,resources/videos_natural\training(36).mov,True,True,left,0,90,90,90,2018-12-10 16:43:07.789306,2018-12-10 16:43:11.742532,0:00:03.953226,3,left,1,0.28379861044822974,22,f,2,23,2018_Dec_10_1633,MP_PerceptionTuring2,59.9576187785275,
92,resources/videos_generated\model(dmp)-dataset(walking)-npsi(60)_final(1).mov,resources/videos_natural\training(9).mov,False,True,left,0,91,91,91,2018-12-10 16:43:13.143612,2018-12-10 16:43:17.230846,0:00:04.087234,3,left,1,0.18370828867182354,22,f,2,23,2018_Dec_10_1633,MP_PerceptionTuring2,59.9576187785275,
93,resources/videos_generated\model(dmp)-dataset(walking)-npsi(50)_final(3).mov,resources/videos_natural\training(21).mov,False,False,right,0,92,92,92,2018-12-10 16:43:18.531921,2018-12-10 16:43:22.452145,0:00:03.920224,3,left,0,0.2504506300688263,22,f,2,23,2018_Dec_10_1633,MP_PerceptionTuring2,59.9576187785275,
94,resources/videos_generated\model(dmp)-dataset(walking)-npsi(90)_final(9).mov,resources/videos_natural\training(39).mov,True,False,right,0,93,93,93,2018-12-10 16:43:23.820223,2018-12-10 16:43:27.923458,0:00:04.103235,3,left,0,0.15012177929384052,22,f,2,23,2018_Dec_10_1633,MP_PerceptionTuring2,59.9576187785275,
95,resources/videos_generated\model(vcgpdm)-dataset(walking)-mode(ELBO)-parts(2)-dyn(25)-lvm(20)_final(6).mov,resources/videos_natural\training(16).mov,True,True,left,0,94,94,94,2018-12-10 16:43:29.191530,2018-12-10 16:43:33.311766,0:00:04.120236,3,right,0,0.2669139497602373,22,f,2,23,2018_Dec_10_1633,MP_PerceptionTuring2,59.9576187785275,
96,resources/videos_generated\model(vcgpdm)-dataset(walking)-mode(ELBO)-parts(2)-dyn(26)-lvm(17)_final(2).mov,resources/videos_natural\training(39).mov,False,True,left,0,95,95,95,2018-12-10 16:43:34.695845,2018-12-10 16:43:38.633070,0:00:03.937225,3,left,1,0.1837784619760896,22,f,2,23,2018_Dec_10_1633,MP_PerceptionTuring2,59.9576187785275,
97,resources/videos_generated\model(vcgpdm)-dataset(walking)-mode(ELBO)-parts(2)-dyn(23)-lvm(22)_final(8).mov,resources/videos_natural\training(40).mov,True,True,left,0,96,96,96,2018-12-10 16:43:39.934145,2018-12-10 16:43:43.854369,0:00:03.920224,3,left,1,0.2838760119034305,22,f,2,23,2018_Dec_10_1633,MP_PerceptionTuring2,59.9576187785275,
98,resources/videos_generated\model(vcgpdm)-dataset(walking)-mode(ELBO)-parts(1)-dyn(22)-lvm(23)_final(1).mov,resources/videos_natural\training(48).mov,True,True,left,0,97,97,97,2018-12-10 16:43:45.255449,2018-12-10 16:43:49.208675,0:00:03.953226,3,left,1,0.23365300837167524,22,f,2,23,2018_Dec_10_1633,MP_PerceptionTuring2,59.9576187785275,
99,resources/videos_generated\model(vcgpdm)-dataset(walking)-mode(ELBO)-parts(2)-dyn(28)-lvm(19)_final(6).mov,resources/videos_natural\training(20).mov,False,True,left,0,98,98,98,2018-12-10 16:43:50.559752,2018-12-10 16:43:54.562981,0:00:04.003229,3,right,0,0.2673045711130726,22,f,2,23,2018_Dec_10_1633,MP_PerceptionTuring2,59.9576187785275,
100,resources/videos_generated\model(vcgpdm)-dataset(walking)-mode(ELBO)-parts(1)-dyn(23)-lvm(22)_final(2).mov,resources/videos_natural\training(37).mov,True,True,left,0,99,99,99,2018-12-10 16:43:55.948061,2018-12-10 16:43:59.901287,0:00:03.953226,3,left,1,1.5012111671326238,22,f,2,23,2018_Dec_10_1633,MP_PerceptionTuring2,59.9576187785275,
101,resources/videos_generated\model(vcgpdm)-dataset(walking)-mode(ELBO)-parts(1)-dyn(28)-lvm(25)_final(0).mov,resources/videos_natural\training(48).mov,True,False,right,0,100,100,100,2018-12-10 16:44:02.520437,2018-12-10 16:44:06.423660,0:00:03.903223,3,left,0,0.26706363273069655,22,f,2,23,2018_Dec_10_1633,MP_PerceptionTuring2,59.9576187785275,
102,resources/videos_generated\model(vcgpdm)-dataset(walking)-mode(ELBO)-parts(2)-dyn(25)-lvm(18)_final(0).mov,resources/videos_natural\training(5).mov,True,False,right,0,101,101,101,2018-12-10 16:44:07.807739,2018-12-10 16:44:11.710962,0:00:03.903223,3,right,1,0.3338641005120735,22,f,2,23,2018_Dec_10_1633,MP_PerceptionTuring2,59.9576187785275,
103,resources/videos_generated\model(vcgpdm)-dataset(walking)-mode(ELBO)-parts(1)-dyn(24)-lvm(25)_final(5).mov,resources/videos_natural\training(6).mov,False,True,left,0,102,102,102,2018-12-10 16:44:13.163045,2018-12-10 16:44:17.049268,0:00:03.886223,3,right,0,0.2504735192151202,22,f,2,23,2018_Dec_10_1633,MP_PerceptionTuring2,59.9576187785275,
104,resources/videos_generated\model(dmp)-dataset(walking)-npsi(50)_final(9).mov,resources/videos_natural\training(37).mov,False,True,left,0,103,103,103,2018-12-10 16:44:18.417346,2018-12-10 16:44:22.520581,0:00:04.103235,3,left,1,0.3173089230626829,22,f,2,23,2018_Dec_10_1633,MP_PerceptionTuring2,59.9576187785275,
105,resources/videos_generated\model(vcgpdm)-dataset(walking)-mode(ELBO)-parts(1)-dyn(25)-lvm(28)_final(1).mov,resources/videos_natural\training(3).mov,False,True,left,0,104,104,104,2018-12-10 16:44:23.955663,2018-12-10 16:44:27.891888,0:00:03.936225,3,left,1,0.35038765479885114,22,f,2,23,2018_Dec_10_1633,MP_PerceptionTuring2,59.9576187785275,
106,resources/videos_generated\model(vcgpdm)-dataset(walking)-mode(ELBO)-parts(2)-dyn(28)-lvm(21)_final(8).mov,resources/videos_natural\training(24).mov,False,True,left,0,105,105,105,2018-12-10 16:44:29.359972,2018-12-10 16:44:33.263195,0:00:03.903223,3,left,1,0.50069465547449,22,f,2,23,2018_Dec_10_1633,MP_PerceptionTuring2,59.9576187785275,
107,resources/videos_generated\model(vcgpdm)-dataset(walking)-mode(ELBO)-parts(2)-dyn(22)-lvm(23)_final(0).mov,resources/videos_natural\training(3).mov,False,False,right,0,106,106,106,2018-12-10 16:44:34.881288,2018-12-10 16:44:38.768510,0:00:03.887222,3,right,1,0.33394120079492495,22,f,2,23,2018_Dec_10_1633,MP_PerceptionTuring2,59.9576187785275,
108,resources/videos_generated\model(vcgpdm)-dataset(walking)-mode(ELBO)-parts(2)-dyn(22)-lvm(17)_final(8).mov,resources/videos_natural\training(14).mov,False,True,left,0,107,107,107,2018-12-10 16:44:40.219593,2018-12-10 16:44:44.139817,0:00:03.920224,3,right,0,0.2671100133688924,22,f,2,23,2018_Dec_10_1633,MP_PerceptionTuring2,59.9576187785275,
109,resources/videos_generated\model(vcgpdm)-dataset(walking)-mode(ELBO)-parts(2)-dyn(24)-lvm(21)_final(8).mov,resources/videos_natural\training(3).mov,False,True,left,0,108,108,108,2018-12-10 16:44:45.523896,2018-12-10 16:44:49.577128,0:00:04.053232,3,right,0,0.30052485414944385,22,f,2,23,2018_Dec_10_1633,MP_PerceptionTuring2,59.9576187785275,
110,resources/videos_generated\model(vcgpdm)-dataset(walking)-mode(ELBO)-parts(2)-dyn(23)-lvm(22)_final(2).mov,resources/videos_natural\training(30).mov,False,False,right,0,109,109,109,2018-12-10 16:44:50.995209,2018-12-10 16:44:54.998438,0:00:04.003229,3,right,1,0.2837362676414159,22,f,2,23,2018_Dec_10_1633,MP_PerceptionTuring2,59.9576187785275,
111,resources/videos_generated\model(vcgpdm)-dataset(walking)-mode(ELBO)-parts(1)-dyn(27)-lvm(22)_final(2).mov,resources/videos_natural\training(28).mov,False,True,left,0,110,110,110,2018-12-10 16:44:56.399518,2018-12-10 16:45:00.503753,0:00:04.104235,3,left,1,0.4172640181718634,22,f,2,23,2018_Dec_10_1633,MP_PerceptionTuring2,59.9576187785275,
112,resources/videos_generated\model(vcgpdm)-dataset(walking)-mode(ELBO)-parts(2)-dyn(27)-lvm(20)_final(0).mov,resources/videos_natural\training(48).mov,True,False,right,0,111,111,111,2018-12-10 16:45:02.037841,2018-12-10 16:45:05.942064,0:00:03.904223,3,right,1,0.2839479922454302,22,f,2,23,2018_Dec_10_1633,MP_PerceptionTuring2,59.9576187785275,
113,resources/videos_generated\model(vcgpdm)-dataset(walking)-mode(ELBO)-parts(1)-dyn(24)-lvm(23)_final(9).mov,resources/videos_natural\training(11).mov,False,True,left,0,112,112,112,2018-12-10 16:45:07.343144,2018-12-10 16:45:11.429378,0:00:04.086234,3,right,0,0.28378535883712175,22,f,2,23,2018_Dec_10_1633,MP_PerceptionTuring2,59.9576187785275,
114,resources/videos_generated\model(tmp)-dataset(walking)-numprim(14)_final(5).mov,resources/videos_natural\training(42).mov,True,True,left,0,113,113,113,2018-12-10 16:45:12.830458,2018-12-10 16:45:16.917692,0:00:04.087234,3,left,1,0.2503831673216155,22,f,2,23,2018_Dec_10_1633,MP_PerceptionTuring2,59.9576187785275,
115,resources/videos_generated\model(vcgpdm)-dataset(walking)-mode(ELBO)-parts(2)-dyn(24)-lvm(23)_final(0).mov,resources/videos_natural\training(31).mov,False,False,right,0,114,114,114,2018-12-10 16:45:18.285770,2018-12-10 16:45:22.389005,0:00:04.103235,3,right,1,0.30073025412093557,22,f,2,23,2018_Dec_10_1633,MP_PerceptionTuring2,59.9576187785275,
116,resources/videos_generated\model(tmp)-dataset(walking)-numprim(11)_final(1).mov,resources/videos_natural\training(17).mov,False,True,left,0,115,115,115,2018-12-10 16:45:23.807086,2018-12-10 16:45:27.811315,0:00:04.004229,3,right,0,0.30064291395729015,22,f,2,23,2018_Dec_10_1633,MP_PerceptionTuring2,59.9576187785275,
117,resources/videos_generated\model(vcgpdm)-dataset(walking)-mode(ELBO)-parts(1)-dyn(26)-lvm(23)_final(8).mov,resources/videos_natural\training(12).mov,True,True,left,0,116,116,116,2018-12-10 16:45:29.228396,2018-12-10 16:45:33.165621,0:00:03.937225,3,left,1,0.333933370297018,22,f,2,23,2018_Dec_10_1633,MP_PerceptionTuring2,59.9576187785275,
118,resources/videos_generated\model(vcgpdm)-dataset(walking)-mode(ELBO)-parts(2)-dyn(28)-lvm(21)_final(4).mov,resources/videos_natural\training(20).mov,False,True,left,0,117,117,117,2018-12-10 16:45:34.616704,2018-12-10 16:45:38.703938,0:00:04.087234,3,right,0,0.26716542919712083,22,f,2,23,2018_Dec_10_1633,MP_PerceptionTuring2,59.9576187785275,
119,resources/videos_generated\model(vcgpdm)-dataset(walking)-mode(ELBO)-parts(2)-dyn(28)-lvm(19)_final(0).mov,resources/videos_natural\training(35).mov,True,False,right,0,118,118,118,2018-12-10 16:45:40.088017,2018-12-10 16:45:43.991240,0:00:03.903223,3,right,1,0.36727261666010236,22,f,2,23,2018_Dec_10_1633,MP_PerceptionTuring2,59.9576187785275,
120,resources/videos_generated\model(vcgpdm)-dataset(walking)-mode(ELBO)-parts(1)-dyn(22)-lvm(22)_final(1).mov,resources/videos_natural\training(43).mov,True,True,left,0,119,119,119,2018-12-10 16:45:45.476325,2018-12-10 16:45:49.445552,0:00:03.969227,3,left,1,0.2338183523365842,22,f,2,23,2018_Dec_10_1633,MP_PerceptionTuring2,59.9576187785275,
121,resources/videos_generated\model(vcgpdm)-dataset(walking)-mode(ELBO)-parts(2)-dyn(23)-lvm(20)_final(2).mov,resources/videos_natural\training(9).mov,False,True,left,0,120,120,120,2018-12-10 16:45:50.796630,2018-12-10 16:45:54.883863,0:00:04.087233,3,left,1,0.2671106157149552,22,f,2,23,2018_Dec_10_1633,MP_PerceptionTuring2,59.9576187785275,
122,resources/videos_generated\model(vcgpdm)-dataset(walking)-mode(ELBO)-parts(1)-dyn(22)-lvm(25)_final(7).mov,resources/videos_natural\training(35).mov,False,False,right,0,121,121,121,2018-12-10 16:45:56.268943,2018-12-10 16:46:00.155165,0:00:03.886222,3,right,1,0.46818815239703326,22,f,2,23,2018_Dec_10_1633,MP_PerceptionTuring2,59.9576187785275,
123,resources/videos_generated\model(vcgpdm)-dataset(walking)-mode(ELBO)-parts(1)-dyn(28)-lvm(23)_final(2).mov,resources/videos_natural\training(39).mov,False,True,left,0,122,122,122,2018-12-10 16:46:01.740256,2018-12-10 16:46:05.643479,0:00:03.903223,3,right,0,0.5340239631291297,22,f,2,23,2018_Dec_10_1633,MP_PerceptionTuring2,59.9576187785275,
124,resources/videos_generated\model(vcgpdm)-dataset(walking)-mode(ELBO)-parts(2)-dyn(24)-lvm(19)_final(4).mov,resources/videos_natural\training(8).mov,False,False,right,0,123,123,123,2018-12-10 16:46:07.294573,2018-12-10 16:46:11.231798,0:00:03.937225,3,left,0,1.8186074303594069,22,f,2,23,2018_Dec_10_1633,MP_PerceptionTuring2,59.9576187785275,
125,resources/videos_generated\model(vcgpdm)-dataset(walking)-mode(ELBO)-parts(2)-dyn(28)-lvm(19)_final(8).mov,resources/videos_natural\training(40).mov,True,True,left,0,124,124,124,2018-12-10 16:46:14.166966,2018-12-10 16:46:18.087191,0:00:03.920225,3,left,1,0.2670437553138072,22,f,2,23,2018_Dec_10_1633,MP_PerceptionTuring2,59.9576187785275,
126,resources/videos_generated\model(vcgpdm)-dataset(walking)-mode(ELBO)-parts(1)-dyn(25)-lvm(22)_final(3).mov,resources/videos_natural\training(41).mov,True,True,left,0,125,125,125,2018-12-10 16:46:19.472270,2018-12-10 16:46:23.408495,0:00:03.936225,3,left,1,0.4339989958893966,22,f,2,23,2018_Dec_10_1633,MP_PerceptionTuring2,59.9576187785275,
127,resources/videos_generated\model(vcgpdm)-dataset(walking)-mode(ELBO)-parts(2)-dyn(24)-lvm(23)_final(8).mov,resources/videos_natural\training(26).mov,True,False,right,0,126,126,126,2018-12-10 16:46:24.959584,2018-12-10 16:46:29.079819,0:00:04.120235,3,right,1,0.3005284682249112,22,f,2,23,2018_Dec_10_1633,MP_PerceptionTuring2,59.9576187785275,
128,resources/videos_generated\model(vcgpdm)-dataset(walking)-mode(ELBO)-parts(1)-dyn(27)-lvm(26)_final(6).mov,resources/videos_natural\training(29).mov,False,False,right,0,127,127,127,2018-12-10 16:46:30.497900,2018-12-10 16:46:34.535131,0:00:04.037231,3,right,1,0.41732515628655165,22,f,2,23,2018_Dec_10_1633,MP_PerceptionTuring2,59.9576187785275,
129,resources/videos_generated\model(vcgpdm)-dataset(walking)-mode(ELBO)-parts(2)-dyn(24)-lvm(23)_final(6).mov,resources/videos_natural\training(34).mov,False,False,right,0,128,128,128,2018-12-10 16:46:36.069219,2018-12-10 16:46:39.989443,0:00:03.920224,3,right,1,0.267177777289362,22,f,2,23,2018_Dec_10_1633,MP_PerceptionTuring2,59.9576187785275,
130,resources/videos_generated\model(tmp)-dataset(walking)-numprim(13)_final(5).mov,resources/videos_natural\training(27).mov,False,False,right,0,129,129,129,2018-12-10 16:46:41.374523,2018-12-10 16:46:45.260745,0:00:03.886222,3,left,0,0.26723680719305776,22,f,2,23,2018_Dec_10_1633,MP_PerceptionTuring2,59.9576187785275,
131,resources/videos_generated\model(vcgpdm)-dataset(walking)-mode(ELBO)-parts(1)-dyn(27)-lvm(24)_final(4).mov,resources/videos_natural\training(36).mov,True,True,left,0,130,130,130,2018-12-10 16:46:46.645824,2018-12-10 16:46:50.582049,0:00:03.936225,3,left,1,0.3505849231000866,22,f,2,23,2018_Dec_10_1633,MP_PerceptionTuring2,59.9576187785275,
132,resources/videos_generated\model(vcgpdm)-dataset(walking)-mode(ELBO)-parts(2)-dyn(22)-lvm(19)_final(2).mov,resources/videos_natural\training(45).mov,True,True,left,0,131,131,131,2018-12-10 16:46:52.050133,2018-12-10 16:46:56.137367,0:00:04.087234,3,left,1,0.4673945615991215,22,f,2,23,2018_Dec_10_1633,MP_PerceptionTuring2,59.9576187785275,
133,resources/videos_generated\model(vcgpdm)-dataset(walking)-mode(ELBO)-parts(1)-dyn(28)-lvm(24)_final(0).mov,resources/videos_natural\training(25).mov,False,False,right,0,132,132,132,2018-12-10 16:46:57.721458,2018-12-10 16:47:01.808691,0:00:04.087233,3,right,1,0.25057049691440625,22,f,2,23,2018_Dec_10_1633,MP_PerceptionTuring2,59.9576187785275,
134,resources/videos_generated\model(vcgpdm)-dataset(walking)-mode(ELBO)-parts(1)-dyn(28)-lvm(25)_final(6).mov,resources/videos_natural\training(45).mov,True,True,left,0,133,133,133,2018-12-10 16:47:03.175769,2018-12-10 16:47:07.280004,0:00:04.104235,3,left,1,0.333821635122149,22,f,2,23,2018_Dec_10_1633,MP_PerceptionTuring2,59.9576187785275,
135,resources/videos_generated\model(vcgpdm)-dataset(walking)-mode(ELBO)-parts(2)-dyn(26)-lvm(17)_final(8).mov,resources/videos_natural\training(22).mov,True,False,right,0,134,134,134,2018-12-10 16:47:08.731087,2018-12-10 16:47:12.668312,0:00:03.937225,3,left,0,0.2838513157194029,22,f,2,23,2018_Dec_10_1633,MP_PerceptionTuring2,59.9576187785275,
136,resources/videos_generated\model(vcgpdm)-dataset(walking)-mode(ELBO)-parts(2)-dyn(23)-lvm(18)_final(4).mov,resources/videos_natural\training(33).mov,False,False,right,0,135,135,135,2018-12-10 16:47:46.514248,2018-12-10 16:47:50.617483,0:00:04.103235,4,right,1,0.2673925136227808,22,f,2,23,2018_Dec_10_1633,MP_PerceptionTuring2,59.9576187785275,
137,resources/videos_generated\model(vcgpdm)-dataset(walking)-mode(ELBO)-parts(2)-dyn(22)-lvm(21)_final(6).mov,resources/videos_natural\training(33).mov,False,True,left,0,136,136,136,2018-12-10 16:47:52.001562,2018-12-10 16:47:55.904785,0:00:03.903223,4,left,1,0.25056628049242136,22,f,2,23,2018_Dec_10_1633,MP_PerceptionTuring2,59.9576187785275,
138,resources/videos_generated\model(vcgpdm)-dataset(walking)-mode(ELBO)-parts(2)-dyn(24)-lvm(19)_final(0).mov,resources/videos_natural\training(1).mov,True,False,right,0,137,137,137,2018-12-10 16:47:57.272864,2018-12-10 16:48:01.243091,0:00:03.970227,4,right,1,0.30041402249344173,22,f,2,23,2018_Dec_10_1633,MP_PerceptionTuring2,59.9576187785275,
139,resources/videos_generated\model(vcgpdm)-dataset(walking)-mode(ELBO)-parts(1)-dyn(25)-lvm(28)_final(3).mov,resources/videos_natural\training(35).mov,True,True,left,0,138,138,138,2018-12-10 16:48:02.661172,2018-12-10 16:48:06.547394,0:00:03.886222,4,left,1,0.31715683070842715,22,f,2,23,2018_Dec_10_1633,MP_PerceptionTuring2,59.9576187785275,
140,resources/videos_generated\model(vcgpdm)-dataset(walking)-mode(ELBO)-parts(2)-dyn(27)-lvm(20)_final(2).mov,resources/videos_natural\training(47).mov,False,False,right,0,139,139,139,2018-12-10 16:48:07.982476,2018-12-10 16:48:11.885699,0:00:03.903223,4,right,1,0.23380058313114205,22,f,2,23,2018_Dec_10_1633,MP_PerceptionTuring2,59.9576187785275,
141,resources/videos_generated\model(tmp)-dataset(walking)-numprim(13)_final(1).mov,resources/videos_natural\training(10).mov,True,False,right,0,140,140,140,2018-12-10 16:48:13.236777,2018-12-10 16:48:17.140000,0:00:03.903223,4,right,1,0.3006477327248831,22,f,2,23,2018_Dec_10_1633,MP_PerceptionTuring2,59.9576187785275,
142,resources/videos_generated\model(vcgpdm)-dataset(walking)-mode(ELBO)-parts(2)-dyn(26)-lvm(17)_final(0).mov,resources/videos_natural\training(27).mov,True,False,right,0,141,141,141,2018-12-10 16:48:18.558081,2018-12-10 16:48:22.628314,0:00:04.070233,4,right,1,0.45055537803091283,22,f,2,23,2018_Dec_10_1633,MP_PerceptionTuring2,59.9576187785275,
143,resources/videos_generated\model(vcgpdm)-dataset(walking)-mode(ELBO)-parts(1)-dyn(27)-lvm(26)_final(8).mov,resources/videos_natural\training(31).mov,True,True,left,0,142,142,142,2018-12-10 16:48:24.196404,2018-12-10 16:48:28.132629,0:00:03.936225,4,left,1,0.3505505893804184,22,f,2,23,2018_Dec_10_1633,MP_PerceptionTuring2,59.9576187785275,
144,resources/videos_generated\model(vcgpdm)-dataset(walking)-mode(ELBO)-parts(2)-dyn(25)-lvm(20)_final(2).mov,resources/videos_natural\training(23).mov,False,False,right,0,143,143,143,2018-12-10 16:48:29.600713,2018-12-10 16:48:33.537938,0:00:03.937225,4,right,1,0.367300926920052,22,f,2,23,2018_Dec_10_1633,MP_PerceptionTuring2,59.9576187785275,
145,resources/videos_generated\model(vcgpdm)-dataset(walking)-mode(ELBO)-parts(2)-dyn(25)-lvm(20)_final(0).mov,resources/videos_natural\training(27).mov,False,False,right,0,144,144,144,2018-12-10 16:48:35.022023,2018-12-10 16:48:38.959248,0:00:03.937225,4,right,1,0.31717459991432406,22,f,2,23,2018_Dec_10_1633,MP_PerceptionTuring2,59.9576187785275,
146,resources/videos_generated\model(vcgpdm)-dataset(walking)-mode(ELBO)-parts(2)-dyn(22)-lvm(17)_final(2).mov,resources/videos_natural\training(4).mov,True,True,left,0,145,145,145,2018-12-10 16:48:40.393330,2018-12-10 16:48:44.330555,0:00:03.937225,4,left,1,0.3337842896730763,22,f,2,23,2018_Dec_10_1633,MP_PerceptionTuring2,59.9576187785275,
147,resources/videos_generated\model(vcgpdm)-dataset(walking)-mode(ELBO)-parts(1)-dyn(23)-lvm(28)_final(7).mov,resources/videos_natural\training(14).mov,True,False,right,0,146,146,146,2018-12-10 16:48:45.781638,2018-12-10 16:48:49.684861,0:00:03.903223,4,right,1,0.3504873430547377,22,f,2,23,2018_Dec_10_1633,MP_PerceptionTuring2,59.9576187785275,
148,resources/videos_generated\model(vcgpdm)-dataset(walking)-mode(ELBO)-parts(1)-dyn(23)-lvm(24)_final(6).mov,resources/videos_natural\training(19).mov,False,True,left,0,147,147,147,2018-12-10 16:48:51.152945,2018-12-10 16:48:55.123172,0:00:03.970227,4,left,1,0.4340773008634642,22,f,2,23,2018_Dec_10_1633,MP_PerceptionTuring2,59.9576187785275,
149,resources/videos_generated\model(vcgpdm)-dataset(walking)-mode(ELBO)-parts(1)-dyn(24)-lvm(25)_final(9).mov,resources/videos_natural\training(7).mov,False,False,right,0,148,148,148,2018-12-10 16:48:56.674261,2018-12-10 16:49:00.594485,0:00:03.920224,4,left,0,0.3338415125390384,22,f,2,23,2018_Dec_10_1633,MP_PerceptionTuring2,59.9576187785275,
150,resources/videos_generated\model(vcgpdm)-dataset(walking)-mode(ELBO)-parts(1)-dyn(22)-lvm(27)_final(3)_fail.mov,resources/videos_natural\training(12).mov,False,True,left,0,149,149,149,2018-12-10 16:49:02.045568,2018-12-10 16:49:05.998795,0:00:03.953227,4,left,1,0.7342115336605275,22,f,2,23,2018_Dec_10_1633,MP_PerceptionTuring2,59.9576187785275,
151,resources/videos_generated\model(vcgpdm)-dataset(walking)-mode(ELBO)-parts(2)-dyn(23)-lvm(18)_final(0).mov,resources/videos_natural\training(19).mov,False,True,left,0,150,150,150,2018-12-10 16:49:07.850900,2018-12-10 16:49:11.938134,0:00:04.087234,4,left,1,0.35061985916536287,22,f,2,23,2018_Dec_10_1633,MP_PerceptionTuring2,59.9576187785275,
152,resources/videos_generated\model(tmp)-dataset(walking)-numprim(15)_final(7).mov,resources/videos_natural\training(28).mov,True,False,right,0,151,151,151,2018-12-10 16:49:13.405218,2018-12-10 16:49:17.342443,0:00:03.937225,4,right,1,0.2990756097774465,22,f,2,23,2018_Dec_10_1633,MP_PerceptionTuring2,59.9576187785275,
153,resources/videos_generated\model(vcgpdm)-dataset(walking)-mode(ELBO)-parts(2)-dyn(26)-lvm(23)_final(0).mov,resources/videos_natural\training(2).mov,True,True,left,0,152,152,152,2018-12-10 16:49:18.760524,2018-12-10 16:49:22.763753,0:00:04.003229,4,left,1,0.2670476705625333,22,f,2,23,2018_Dec_10_1633,MP_PerceptionTuring2,59.9576187785275,
154,resources/videos_generated\model(vcgpdm)-dataset(walking)-mode(ELBO)-parts(2)-dyn(26)-lvm(21)_final(8).mov,resources/videos_natural\training(16).mov,False,True,left,0,153,153,153,2018-12-10 16:49:24.147833,2018-12-10 16:49:28.068057,0:00:03.920224,4,left,1,0.26722265206308293,22,f,2,23,2018_Dec_10_1633,MP_PerceptionTuring2,59.9576187785275,
155,resources/videos_generated\model(vcgpdm)-dataset(walking)-mode(ELBO)-parts(2)-dyn(25)-lvm(22)_final(4).mov,resources/videos_natural\training(11).mov,False,True,left,0,154,154,154,2018-12-10 16:49:29.453136,2018-12-10 16:49:33.489367,0:00:04.036231,4,left,1,0.26714284122363097,22,f,2,23,2018_Dec_10_1633,MP_PerceptionTuring2,59.9576187785275,
156,resources/videos_generated\model(vcgpdm)-dataset(walking)-mode(ELBO)-parts(2)-dyn(26)-lvm(23)_final(2).mov,resources/videos_natural\training(24).mov,True,True,left,0,155,155,155,2018-12-10 16:49:34.874446,2018-12-10 16:49:38.977681,0:00:04.103235,4,right,0,0.3505773937754384,22,f,2,23,2018_Dec_10_1633,MP_PerceptionTuring2,59.9576187785275,
157,resources/videos_generated\model(vcgpdm)-dataset(walking)-mode(ELBO)-parts(1)-dyn(25)-lvm(28)_final(5).mov,resources/videos_natural\training(31).mov,False,False,right,0,156,156,156,2018-12-10 16:49:40.445765,2018-12-10 16:49:44.398991,0:00:03.953226,4,right,1,0.33380296239784,22,f,2,23,2018_Dec_10_1633,MP_PerceptionTuring2,59.9576187785275,
158,resources/videos_generated\model(vcgpdm)-dataset(walking)-mode(ELBO)-parts(2)-dyn(22)-lvm(19)_final(0).mov,resources/videos_natural\training(25).mov,False,True,left,0,157,157,157,2018-12-10 16:49:45.850074,2018-12-10 16:49:49.787299,0:00:03.937225,4,left,1,0.23373071100013476,22,f,2,23,2018_Dec_10_1633,MP_PerceptionTuring2,59.9576187785275,
159,resources/videos_generated\model(vcgpdm)-dataset(walking)-mode(ELBO)-parts(1)-dyn(25)-lvm(24)_final(0).mov,resources/videos_natural\training(13).mov,True,False,right,0,158,158,158,2018-12-10 16:49:51.138376,2018-12-10 16:49:55.058601,0:00:03.920225,4,right,1,0.25050062478339896,22,f,2,23,2018_Dec_10_1633,MP_PerceptionTuring2,59.9576187785275,
160,resources/videos_generated\model(vcgpdm)-dataset(walking)-mode(ELBO)-parts(2)-dyn(27)-lvm(18)_final(6).mov,resources/videos_natural\training(24).mov,False,True,left,0,159,159,159,2018-12-10 16:49:56.425679,2018-12-10 16:50:00.512913,0:00:04.087234,4,left,1,0.33385416180408356,22,f,2,23,2018_Dec_10_1633,MP_PerceptionTuring2,59.9576187785275,
161,resources/videos_generated\model(vcgpdm)-dataset(walking)-mode(ELBO)-parts(1)-dyn(27)-lvm(22)_final(6).mov,resources/videos_natural\training(6).mov,False,True,left,0,160,160,160,2018-12-10 16:50:01.963996,2018-12-10 16:50:05.934223,0:00:03.970227,4,left,1,0.33385988409054335,22,f,2,23,2018_Dec_10_1633,MP_PerceptionTuring2,59.9576187785275,
162,resources/videos_generated\model(dmp)-dataset(walking)-npsi(70)_final(3).mov,resources/videos_natural\training(25).mov,False,False,right,0,161,161,161,2018-12-10 16:50:07.385306,2018-12-10 16:50:11.422537,0:00:04.037231,4,right,1,0.23389725965716934,22,f,2,23,2018_Dec_10_1633,MP_PerceptionTuring2,59.9576187785275,
163,resources/videos_generated\model(vcgpdm)-dataset(walking)-mode(ELBO)-parts(1)-dyn(27)-lvm(22)_final(4).mov,resources/videos_natural\training(29).mov,False,True,left,0,162,162,162,2018-12-10 16:50:12.773614,2018-12-10 16:50:16.810845,0:00:04.037231,4,right,0,0.38381153076898045,22,f,2,23,2018_Dec_10_1633,MP_PerceptionTuring2,59.9576187785275,
164,resources/videos_generated\model(vcgpdm)-dataset(walking)-mode(ELBO)-parts(1)-dyn(22)-lvm(27)_final(1)_fail.mov,resources/videos_natural\training(23).mov,False,True,left,0,163,163,163,2018-12-10 16:50:18.311931,2018-12-10 16:50:22.232155,0:00:03.920224,4,left,1,0.4173176269614487,22,f,2,23,2018_Dec_10_1633,MP_PerceptionTuring2,59.9576187785275,
165,resources/videos_generated\model(vcgpdm)-dataset(walking)-mode(ELBO)-parts(1)-dyn(27)-lvm(28)_final(6).mov,resources/videos_natural\training(41).mov,False,True,left,0,164,164,164,2018-12-10 16:50:23.766243,2018-12-10 16:50:27.853476,0:00:04.087233,4,left,1,0.23375721422235074,22,f,2,23,2018_Dec_10_1633,MP_PerceptionTuring2,59.9576187785275,
166,resources/videos_generated\model(vcgpdm)-dataset(walking)-mode(ELBO)-parts(1)-dyn(27)-lvm(28)_final(0).mov,resources/videos_natural\training(38).mov,False,True,left,0,165,165,165,2018-12-10 16:50:29.204554,2018-12-10 16:50:33.140779,0:00:03.936225,4,left,1,0.21720565084842747,22,f,2,23,2018_Dec_10_1633,MP_PerceptionTuring2,59.9576187785275,
167,resources/videos_generated\model(vcgpdm)-dataset(walking)-mode(ELBO)-parts(2)-dyn(25)-lvm(18)_final(8).mov,resources/videos_natural\training(5).mov,False,False,right,0,166,166,166,2018-12-10 16:50:34.475855,2018-12-10 16:50:38.529087,0:00:04.053232,4,right,1,0.06701460176918772,22,f,2,23,2018_Dec_10_1633,MP_PerceptionTuring2,59.9576187785275,
168,resources/videos_generated\model(vcgpdm)-dataset(walking)-mode(ELBO)-parts(1)-dyn(23)-lvm(27)_final(0).mov,resources/videos_natural\training(10).mov,True,False,right,0,167,167,167,2018-12-10 16:50:39.713155,2018-12-10 16:50:43.650380,0:00:03.937225,4,left,0,0.20021738665582234,22,f,2,23,2018_Dec_10_1633,MP_PerceptionTuring2,59.9576187785275,
169,resources/videos_generated\model(vcgpdm)-dataset(walking)-mode(ELBO)-parts(1)-dyn(27)-lvm(24)_final(6).mov,resources/videos_natural\training(28).mov,True,True,left,0,168,168,168,2018-12-10 16:50:44.968455,2018-12-10 16:50:48.888680,0:00:03.920225,4,left,1,0.2503114881528745,22,f,2,23,2018_Dec_10_1633,MP_PerceptionTuring2,59.9576187785275,
170,resources/videos_generated\model(vcgpdm)-dataset(walking)-mode(ELBO)-parts(2)-dyn(22)-lvm(23)_final(4).mov,resources/videos_natural\training(38).mov,True,False,right,0,169,169,169,2018-12-10 16:50:50.255758,2018-12-10 16:50:54.159981,0:00:03.904223,4,right,1,0.16707661328564427,22,f,2,23,2018_Dec_10_1633,MP_PerceptionTuring2,59.9576187785275,
171,resources/videos_generated\model(vcgpdm)-dataset(walking)-mode(ELBO)-parts(2)-dyn(24)-lvm(17)_final(8).mov,resources/videos_natural\training(24).mov,False,True,left,0,170,170,170,2018-12-10 16:50:55.444054,2018-12-10 16:50:59.330277,0:00:03.886223,4,left,1,0.28396485793200554,22,f,2,23,2018_Dec_10_1633,MP_PerceptionTuring2,59.9576187785275,
172,resources/videos_generated\model(vcgpdm)-dataset(walking)-mode(ELBO)-parts(2)-dyn(27)-lvm(22)_final(4).mov,resources/videos_natural\training(27).mov,True,False,right,0,171,171,171,2018-12-10 16:51:00.731357,2018-12-10 16:51:04.685583,0:00:03.954226,4,right,1,0.3339162034376386,22,f,2,23,2018_Dec_10_1633,MP_PerceptionTuring2,59.9576187785275,
173,resources/videos_generated\model(vcgpdm)-dataset(walking)-mode(ELBO)-parts(1)-dyn(22)-lvm(27)_final(7)_hip-corrected.mov,resources/videos_natural\training(34).mov,False,False,right,0,172,172,172,2018-12-10 16:51:06.136666,2018-12-10 16:51:10.239901,0:00:04.103235,4,right,1,0.23372438636761217,22,f,2,23,2018_Dec_10_1633,MP_PerceptionTuring2,59.9576187785275,
174,resources/videos_generated\model(vcgpdm)-dataset(walking)-mode(ELBO)-parts(2)-dyn(25)-lvm(22)_final(8).mov,resources/videos_natural\training(44).mov,False,True,left,0,173,173,173,2018-12-10 16:51:11.590978,2018-12-10 16:51:15.478200,0:00:03.887222,4,right,0,0.8676892894754928,22,f,2,23,2018_Dec_10_1633,MP_PerceptionTuring2,59.9576187785275,
175,resources/videos_generated\model(vcgpdm)-dataset(walking)-mode(ELBO)-parts(2)-dyn(23)-lvm(22)_final(4).mov,resources/videos_natural\training(11).mov,True,False,right,0,174,174,174,2018-12-10 16:51:17.462314,2018-12-10 16:51:21.482544,0:00:04.020230,4,right,1,0.3838299023204854,22,f,2,23,2018_Dec_10_1633,MP_PerceptionTuring2,59.9576187785275,
176,resources/videos_generated\model(vcgpdm)-dataset(walking)-mode(ELBO)-parts(1)-dyn(26)-lvm(23)_final(6)_fail.mov,resources/videos_natural\training(46).mov,True,True,left,0,175,175,175,2018-12-10 16:51:22.984630,2018-12-10 16:51:27.087864,0:00:04.103234,4,left,1,0.3839566961446508,22,f,2,23,2018_Dec_10_1633,MP_PerceptionTuring2,59.9576187785275,
177,resources/videos_generated\model(vcgpdm)-dataset(walking)-mode(ELBO)-parts(1)-dyn(27)-lvm(26)_final(2).mov,resources/videos_natural\training(40).mov,False,True,left,0,176,176,176,2018-12-10 16:51:28.588950,2018-12-10 16:51:32.626181,0:00:04.037231,4,left,1,0.45063579121597286,22,f,2,23,2018_Dec_10_1633,MP_PerceptionTuring2,59.9576187785275,
178,resources/videos_generated\model(vcgpdm)-dataset(walking)-mode(ELBO)-parts(2)-dyn(24)-lvm(23)_final(4).mov,resources/videos_natural\training(26).mov,False,True,left,0,177,177,177,2018-12-10 16:51:34.194271,2018-12-10 16:51:38.280505,0:00:04.086234,4,right,0,0.36728918117387366,22,f,2,23,2018_Dec_10_1633,MP_PerceptionTuring2,59.9576187785275,
179,resources/videos_generated\model(vcgpdm)-dataset(walking)-mode(ELBO)-parts(1)-dyn(27)-lvm(24)_final(8).mov,resources/videos_natural\training(4).mov,False,False,right,0,178,178,178,2018-12-10 16:51:39.765590,2018-12-10 16:51:43.751818,0:00:03.986228,4,left,0,0.46734245867401114,22,f,2,23,2018_Dec_10_1633,MP_PerceptionTuring2,59.9576187785275,
180,resources/videos_generated\model(dmp)-dataset(walking)-npsi(100)_final(3).mov,resources/videos_natural\training(11).mov,False,False,right,0,179,179,179,2018-12-10 16:51:45.336908,2018-12-10 16:51:49.290134,0:00:03.953226,4,left,0,0.2172243235731912,22,f,2,23,2018_Dec_10_1633,MP_PerceptionTuring2,59.9576187785275,
181,resources/videos_generated\model(vcgpdm)-dataset(walking)-mode(ELBO)-parts(2)-dyn(28)-lvm(21)_final(0).mov,resources/videos_natural\training(42).mov,True,True,left,0,180,180,180,2018-12-10 16:52:22.185016,2018-12-10 16:52:26.089239,0:00:03.904223,5,left,1,0.23370511129678562,22,f,2,23,2018_Dec_10_1633,MP_PerceptionTuring2,59.9576187785275,
182,resources/videos_generated\model(vcgpdm)-dataset(walking)-mode(ELBO)-parts(1)-dyn(22)-lvm(28)_final(2).mov,resources/videos_natural\training(25).mov,True,True,left,0,181,181,181,2018-12-10 16:52:27.440316,2018-12-10 16:52:31.543551,0:00:04.103235,5,left,1,0.3172830221865297,22,f,2,23,2018_Dec_10_1633,MP_PerceptionTuring2,59.9576187785275,
183,resources/videos_generated\model(vcgpdm)-dataset(walking)-mode(ELBO)-parts(2)-dyn(26)-lvm(19)_final(6).mov,resources/videos_natural\training(0).mov,True,True,left,0,182,182,182,2018-12-10 16:52:32.978633,2018-12-10 16:52:37.047866,0:00:04.069233,5,left,1,0.233805401898735,22,f,2,23,2018_Dec_10_1633,MP_PerceptionTuring2,59.9576187785275,
184,resources/videos_generated\model(vcgpdm)-dataset(walking)-mode(ELBO)-parts(1)-dyn(25)-lvm(22)_final(1).mov,resources/videos_natural\training(9).mov,False,True,left,0,183,183,183,2018-12-10 16:52:38.399943,2018-12-10 16:52:42.370170,0:00:03.970227,5,left,1,0.18387634319378776,22,f,2,23,2018_Dec_10_1633,MP_PerceptionTuring2,59.9576187785275,
185,resources/videos_generated\model(vcgpdm)-dataset(walking)-mode(ELBO)-parts(1)-dyn(27)-lvm(22)_final(0).mov,resources/videos_natural\training(6).mov,True,False,right,0,184,184,184,2018-12-10 16:52:43.671245,2018-12-10 16:52:47.590469,0:00:03.919224,5,left,0,0.23383431450474745,22,f,2,23,2018_Dec_10_1633,MP_PerceptionTuring2,59.9576187785275,
186,resources/videos_generated\model(vcgpdm)-dataset(walking)-mode(ELBO)-parts(1)-dyn(23)-lvm(28)_final(9).mov,resources/videos_natural\training(36).mov,False,False,right,0,185,185,185,2018-12-10 16:52:48.942546,2018-12-10 16:52:52.861770,0:00:03.919224,5,right,1,0.3005697289231648,22,f,2,23,2018_Dec_10_1633,MP_PerceptionTuring2,59.9576187785275,
187,resources/videos_generated\model(vcgpdm)-dataset(walking)-mode(ELBO)-parts(2)-dyn(25)-lvm(18)_final(4).mov,resources/videos_natural\training(15).mov,False,False,right,0,186,186,186,2018-12-10 16:52:54.279851,2018-12-10 16:52:58.384086,0:00:04.104235,5,right,1,0.28376307203689066,22,f,2,23,2018_Dec_10_1633,MP_PerceptionTuring2,59.9576187785275,
188,resources/videos_generated\model(vcgpdm)-dataset(walking)-mode(ELBO)-parts(2)-dyn(27)-lvm(18)_final(2).mov,resources/videos_natural\training(11).mov,False,False,right,0,187,187,187,2018-12-10 16:52:59.784166,2018-12-10 16:53:03.721392,0:00:03.937226,5,right,1,0.2172161919024802,22,f,2,23,2018_Dec_10_1633,MP_PerceptionTuring2,59.9576187785275,
189,resources/videos_generated\model(dmp)-dataset(walking)-npsi(90)_final(5).mov,resources/videos_natural\training(41).mov,False,True,left,0,188,188,188,2018-12-10 16:53:05.055468,2018-12-10 16:53:09.009694,0:00:03.954226,5,left,1,0.2671798854998997,22,f,2,23,2018_Dec_10_1633,MP_PerceptionTuring2,59.9576187785275,
190,resources/videos_generated\model(vcgpdm)-dataset(walking)-mode(ELBO)-parts(2)-dyn(25)-lvm(20)_final(4).mov,resources/videos_natural\training(9).mov,True,False,right,0,189,189,189,2018-12-10 16:53:10.393773,2018-12-10 16:53:14.330998,0:00:03.937225,5,right,1,0.26714856351009075,22,f,2,23,2018_Dec_10_1633,MP_PerceptionTuring2,59.9576187785275,
191,resources/videos_generated\model(dmp)-dataset(walking)-npsi(80)_final(5).mov,resources/videos_natural\training(43).mov,True,False,right,0,190,190,190,2018-12-10 16:53:15.715078,2018-12-10 16:53:19.635302,0:00:03.920224,5,right,1,0.23369005264794396,22,f,2,23,2018_Dec_10_1633,MP_PerceptionTuring2,59.9576187785275,
192,resources/videos_generated\model(vcgpdm)-dataset(walking)-mode(ELBO)-parts(2)-dyn(23)-lvm(20)_final(4).mov,resources/videos_natural\training(25).mov,False,True,left,0,191,191,191,2018-12-10 16:53:20.986379,2018-12-10 16:53:24.939605,0:00:03.953226,5,left,1,0.23371685704296397,22,f,2,23,2018_Dec_10_1633,MP_PerceptionTuring2,59.9576187785275,
193,resources/videos_generated\model(vcgpdm)-dataset(walking)-mode(ELBO)-parts(1)-dyn(27)-lvm(24)_final(2).mov,resources/videos_natural\training(32).mov,True,True,left,0,192,192,192,2018-12-10 16:53:26.290682,2018-12-10 16:53:30.194906,0:00:03.904224,5,right,0,0.31767183650163133,22,f,2,23,2018_Dec_10_1633,MP_PerceptionTuring2,59.9576187785275,
194,resources/videos_generated\model(vcgpdm)-dataset(walking)-mode(ELBO)-parts(2)-dyn(25)-lvm(18)_final(2).mov,resources/videos_natural\training(40).mov,True,True,left,0,193,193,193,2018-12-10 16:53:31.629988,2018-12-10 16:53:35.532211,0:00:03.902223,5,left,1,0.2503909978190677,22,f,2,23,2018_Dec_10_1633,MP_PerceptionTuring2,59.9576187785275,
195,resources/videos_generated\model(vcgpdm)-dataset(walking)-mode(ELBO)-parts(1)-dyn(25)-lvm(26)_final(5).mov,resources/videos_natural\training(2).mov,True,True,left,0,194,194,194,2018-12-10 16:53:36.900289,2018-12-10 16:53:40.853515,0:00:03.953226,5,left,1,0.1170430475572175,22,f,2,23,2018_Dec_10_1633,MP_PerceptionTuring2,59.9576187785275,
196,resources/videos_generated\model(vcgpdm)-dataset(walking)-mode(ELBO)-parts(1)-dyn(23)-lvm(22)_final(4)_fail.mov,resources/videos_natural\training(1).mov,True,False,right,0,195,195,195,2018-12-10 16:53:42.087586,2018-12-10 16:53:45.991809,0:00:03.904223,5,right,1,0.38391212254373386,22,f,2,23,2018_Dec_10_1633,MP_PerceptionTuring2,59.9576187785275,
197,resources/videos_generated\model(vcgpdm)-dataset(walking)-mode(ELBO)-parts(2)-dyn(26)-lvm(21)_final(0).mov,resources/videos_natural\training(20).mov,True,False,right,0,196,196,196,2018-12-10 16:53:47.492895,2018-12-10 16:53:51.446121,0:00:03.953226,5,left,0,0.2338352180236143,22,f,2,23,2018_Dec_10_1633,MP_PerceptionTuring2,59.9576187785275,
198,resources/videos_generated\model(vcgpdm)-dataset(walking)-mode(ELBO)-parts(1)-dyn(25)-lvm(25)_final(7).mov,resources/videos_natural\training(34).mov,True,True,left,0,197,197,197,2018-12-10 16:53:52.797198,2018-12-10 16:53:56.717423,0:00:03.920225,5,left,1,0.36723737942202206,22,f,2,23,2018_Dec_10_1633,MP_PerceptionTuring2,59.9576187785275,
199,resources/videos_generated\model(vcgpdm)-dataset(walking)-mode(ELBO)-parts(1)-dyn(22)-lvm(25)_final(1).mov,resources/videos_natural\training(30).mov,False,True,left,0,198,198,198,2018-12-10 16:53:58.201508,2018-12-10 16:54:02.105731,0:00:03.904223,5,left,1,0.4173393114160717,22,f,2,23,2018_Dec_10_1633,MP_PerceptionTuring2,59.9576187785275,
200,resources/videos_generated\model(vcgpdm)-dataset(walking)-mode(ELBO)-parts(2)-dyn(28)-lvm(23)_final(6).mov,resources/videos_natural\training(41).mov,False,True,left,0,199,199,199,2018-12-10 16:54:03.639819,2018-12-10 16:54:07.560043,0:00:03.920224,5,right,0,0.26695611397735775,22,f,2,23,2018_Dec_10_1633,MP_PerceptionTuring2,59.9576187785275,
201,resources/videos_generated\model(vcgpdm)-dataset(walking)-mode(ELBO)-parts(1)-dyn(22)-lvm(25)_final(3).mov,resources/videos_natural\training(18).mov,True,False,right,0,200,200,200,2018-12-10 16:54:08.944122,2018-12-10 16:54:12.864346,0:00:03.920224,5,right,1,0.2671073028122919,22,f,2,23,2018_Dec_10_1633,MP_PerceptionTuring2,59.9576187785275,
202,resources/videos_generated\model(vcgpdm)-dataset(walking)-mode(ELBO)-parts(2)-dyn(26)-lvm(21)_final(4).mov,resources/videos_natural\training(42).mov,False,False,right,0,201,201,201,2018-12-10 16:54:14.249425,2018-12-10 16:54:18.152649,0:00:03.903224,5,right,1,0.21706620775967167,22,f,2,23,2018_Dec_10_1633,MP_PerceptionTuring2,59.9576187785275,
203,resources/videos_generated\model(vcgpdm)-dataset(walking)-mode(ELBO)-parts(1)-dyn(28)-lvm(27)_final(0).mov,resources/videos_natural\training(32).mov,True,True,left,0,202,202,202,2018-12-10 16:54:19.486725,2018-12-10 16:54:23.590960,0:00:04.104235,5,left,1,0.2837459051766018,22,f,2,23,2018_Dec_10_1633,MP_PerceptionTuring2,59.9576187785275,
204,resources/videos_generated\model(vcgpdm)-dataset(walking)-mode(ELBO)-parts(2)-dyn(26)-lvm(19)_final(2).mov,resources/videos_natural\training(41).mov,False,False,right,0,203,203,203,2018-12-10 16:54:24.992040,2018-12-10 16:54:28.962267,0:00:03.970227,5,right,1,0.4508737178693991,22,f,2,23,2018_Dec_10_1633,MP_PerceptionTuring2,59.9576187785275,
205,resources/videos_generated\model(vcgpdm)-dataset(walking)-mode(ELBO)-parts(2)-dyn(22)-lvm(17)_final(6).mov,resources/videos_natural\training(4).mov,True,True,left,0,204,204,204,2018-12-10 16:54:30.530357,2018-12-10 16:54:34.416579,0:00:03.886222,5,left,1,0.33390506003752307,22,f,2,23,2018_Dec_10_1633,MP_PerceptionTuring2,59.9576187785275,
206,resources/videos_generated\model(vcgpdm)-dataset(walking)-mode(ELBO)-parts(2)-dyn(26)-lvm(23)_final(8).mov,resources/videos_natural\training(30).mov,False,True,left,0,205,205,205,2018-12-10 16:54:35.867662,2018-12-10 16:54:39.987898,0:00:04.120236,5,left,1,0.05024378446751143,22,f,2,23,2018_Dec_10_1633,MP_PerceptionTuring2,59.9576187785275,
207,resources/videos_generated\model(vcgpdm)-dataset(walking)-mode(ELBO)-parts(2)-dyn(22)-lvm(17)_final(0).mov,resources/videos_natural\training(46).mov,False,True,left,0,206,206,206,2018-12-10 16:54:41.155964,2018-12-10 16:54:45.076189,0:00:03.920225,5,left,1,0.2494808530782393,22,f,2,23,2018_Dec_10_1633,MP_PerceptionTuring2,59.9576187785275,
208,resources/videos_generated\model(vcgpdm)-dataset(walking)-mode(ELBO)-parts(2)-dyn(22)-lvm(21)_final(0).mov,resources/videos_natural\training(16).mov,False,True,left,0,207,207,207,2018-12-10 16:54:46.443267,2018-12-10 16:54:50.530501,0:00:04.087234,5,left,1,0.250455750009678,22,f,2,23,2018_Dec_10_1633,MP_PerceptionTuring2,59.9576187785275,
209,resources/videos_generated\model(vcgpdm)-dataset(walking)-mode(ELBO)-parts(1)-dyn(24)-lvm(25)_final(7).mov,resources/videos_natural\training(4).mov,True,True,left,0,208,208,208,2018-12-10 16:54:51.898579,2018-12-10 16:54:55.884807,0:00:03.986228,5,left,1,0.33391891399469387,22,f,2,23,2018_Dec_10_1633,MP_PerceptionTuring2,59.9576187785275,
210,resources/videos_generated\model(tmp)-dataset(walking)-numprim(15)_final(5).mov,resources/videos_natural\training(39).mov,False,True,left,0,209,209,209,2018-12-10 16:54:57.335890,2018-12-10 16:55:01.290116,0:00:03.954226,5,right,0,0.21715294557725429,22,f,2,23,2018_Dec_10_1633,MP_PerceptionTuring2,59.9576187785275,
211,resources/videos_generated\model(vcgpdm)-dataset(walking)-mode(ELBO)-parts(2)-dyn(28)-lvm(21)_final(6).mov,resources/videos_natural\training(22).mov,False,True,left,0,210,210,210,2018-12-10 16:55:02.626192,2018-12-10 16:55:06.711426,0:00:04.085234,5,left,1,0.26712808374759334,22,f,2,23,2018_Dec_10_1633,MP_PerceptionTuring2,59.9576187785275,
212,resources/videos_generated\model(vcgpdm)-dataset(walking)-mode(ELBO)-parts(1)-dyn(23)-lvm(22)_final(8)_fail.mov,resources/videos_natural\training(29).mov,True,True,left,0,211,211,211,2018-12-10 16:55:08.095505,2018-12-10 16:55:12.048731,0:00:03.953226,5,left,1,0.3005359975495594,22,f,2,23,2018_Dec_10_1633,MP_PerceptionTuring2,59.9576187785275,
213,resources/videos_generated\model(vcgpdm)-dataset(walking)-mode(ELBO)-parts(1)-dyn(23)-lvm(28)_final(3)_hip-corrected.mov,resources/videos_natural\training(30).mov,False,True,left,0,212,212,212,2018-12-10 16:55:13.466813,2018-12-10 16:55:17.387037,0:00:03.920224,5,right,0,0.2671850054407514,22,f,2,23,2018_Dec_10_1633,MP_PerceptionTuring2,59.9576187785275,
214,resources/videos_generated\model(dmp)-dataset(walking)-npsi(80)_final(3).mov,resources/videos_natural\training(18).mov,False,False,right,0,213,213,213,2018-12-10 16:55:18.771116,2018-12-10 16:55:22.708341,0:00:03.937225,5,right,1,0.25044129370689916,22,f,2,23,2018_Dec_10_1633,MP_PerceptionTuring2,59.9576187785275,
215,resources/videos_generated\model(vcgpdm)-dataset(walking)-mode(ELBO)-parts(1)-dyn(26)-lvm(23)_final(0).mov,resources/videos_natural\training(47).mov,False,False,right,0,214,214,214,2018-12-10 16:55:24.076419,2018-12-10 16:55:28.079648,0:00:04.003229,5,right,1,0.8844531797994932,22,f,2,23,2018_Dec_10_1633,MP_PerceptionTuring2,59.9576187785275,
216,resources/videos_generated\model(vcgpdm)-dataset(walking)-mode(ELBO)-parts(1)-dyn(22)-lvm(22)_final(9).mov,resources/videos_natural\training(39).mov,False,True,left,0,215,215,215,2018-12-10 16:55:30.080763,2018-12-10 16:55:34.167997,0:00:04.087234,5,left,1,2.519222817105856,22,f,2,23,2018_Dec_10_1633,MP_PerceptionTuring2,59.9576187785275,
217,resources/videos_generated\model(dmp)-dataset(walking)-npsi(100)_final(5).mov,resources/videos_natural\training(15).mov,True,True,left,0,216,216,216,2018-12-10 16:55:37.804205,2018-12-10 16:55:41.741430,0:00:03.937225,5,left,1,0.3005004591382203,22,f,2,23,2018_Dec_10_1633,MP_PerceptionTuring2,59.9576187785275,
218,resources/videos_generated\model(vcgpdm)-dataset(walking)-mode(ELBO)-parts(1)-dyn(25)-lvm(28)_final(7).mov,resources/videos_natural\training(24).mov,True,True,left,0,217,217,217,2018-12-10 16:55:43.159511,2018-12-10 16:55:47.062734,0:00:03.903223,5,left,1,0.2671735608673771,22,f,2,23,2018_Dec_10_1633,MP_PerceptionTuring2,59.9576187785275,
219,resources/videos_generated\model(vcgpdm)-dataset(walking)-mode(ELBO)-parts(1)-dyn(28)-lvm(27)_final(6).mov,resources/videos_natural\training(15).mov,False,False,right,0,218,218,218,2018-12-10 16:55:48.446813,2018-12-10 16:55:52.368038,0:00:03.921225,5,right,1,0.25046629106373075,22,f,2,23,2018_Dec_10_1633,MP_PerceptionTuring2,59.9576187785275,
220,resources/videos_generated\model(tmp)-dataset(walking)-numprim(13)_final(9).mov,resources/videos_natural\training(36).mov,False,True,left,0,219,219,219,2018-12-10 16:55:53.735116,2018-12-10 16:55:57.805349,0:00:04.070233,5,left,1,0.28369470577035827,22,f,2,23,2018_Dec_10_1633,MP_PerceptionTuring2,59.9576187785275,
221,resources/videos_generated\model(dmp)-dataset(walking)-npsi(70)_final(1).mov,resources/videos_natural\training(40).mov,False,False,right,0,220,220,220,2018-12-10 16:55:59.206429,2018-12-10 16:56:03.159655,0:00:03.953226,5,right,1,0.23380901597420234,22,f,2,23,2018_Dec_10_1633,MP_PerceptionTuring2,59.9576187785275,
222,resources/videos_generated\model(vcgpdm)-dataset(walking)-mode(ELBO)-parts(1)-dyn(26)-lvm(27)_final(2).mov,resources/videos_natural\training(14).mov,False,False,right,0,221,221,221,2018-12-10 16:56:04.510732,2018-12-10 16:56:08.580965,0:00:04.070233,5,right,1,0.5172239320481822,22,f,2,23,2018_Dec_10_1633,MP_PerceptionTuring2,59.9576187785275,
223,resources/videos_generated\model(vcgpdm)-dataset(walking)-mode(ELBO)-parts(1)-dyn(24)-lvm(27)_final(1).mov,resources/videos_natural\training(9).mov,True,False,right,0,222,222,222,2018-12-10 16:56:10.217058,2018-12-10 16:56:14.253289,0:00:04.036231,5,right,1,0.2337716705251296,22,f,2,23,2018_Dec_10_1633,MP_PerceptionTuring2,59.9576187785275,
224,resources/videos_generated\model(vcgpdm)-dataset(walking)-mode(ELBO)-parts(2)-dyn(24)-lvm(19)_final(6).mov,resources/videos_natural\training(16).mov,True,True,left,0,223,223,223,2018-12-10 16:56:15.604367,2018-12-10 16:56:19.607596,0:00:04.003229,5,left,1,0.33384000667410874,22,f,2,23,2018_Dec_10_1633,MP_PerceptionTuring2,59.9576187785275,
225,resources/videos_generated\model(vcgpdm)-dataset(walking)-mode(ELBO)-parts(2)-dyn(27)-lvm(18)_final(8).mov,resources/videos_natural\training(1).mov,False,False,right,0,224,224,224,2018-12-10 16:56:21.058679,2018-12-10 16:56:25.161913,0:00:04.103234,5,right,1,0.25047231452299457,22,f,2,23,2018_Dec_10_1633,MP_PerceptionTuring2,59.9576187785275,
226,resources/videos_generated\model(tmp)-dataset(walking)-numprim(14)_final(3).mov,resources/videos_natural\training(47).mov,False,False,right,0,225,225,225,2018-12-10 16:56:58.090797,2018-12-10 16:57:02.095026,0:00:04.004229,6,right,1,0.4172601029231373,22,f,2,23,2018_Dec_10_1633,MP_PerceptionTuring2,59.9576187785275,
227,resources/videos_generated\model(tmp)-dataset(walking)-numprim(11)_final(9).mov,resources/videos_natural\training(26).mov,False,True,left,0,226,226,226,2018-12-10 16:57:03.629113,2018-12-10 16:57:07.699346,0:00:04.070233,6,left,1,0.2505647746274917,22,f,2,23,2018_Dec_10_1633,MP_PerceptionTuring2,59.9576187785275,
228,resources/videos_generated\model(vcgpdm)-dataset(walking)-mode(ELBO)-parts(1)-dyn(26)-lvm(27)_final(0).mov,resources/videos_natural\training(20).mov,False,True,left,0,227,227,227,2018-12-10 16:57:09.067424,2018-12-10 16:57:12.970648,0:00:03.903224,6,right,0,0.2505792309307253,22,f,2,23,2018_Dec_10_1633,MP_PerceptionTuring2,59.9576187785275,
229,resources/videos_generated\model(vcgpdm)-dataset(walking)-mode(ELBO)-parts(1)-dyn(27)-lvm(28)_final(4).mov,resources/videos_natural\training(21).mov,True,False,right,0,228,228,228,2018-12-10 16:57:14.337726,2018-12-10 16:57:18.291952,0:00:03.954226,6,left,0,0.333746341877486,22,f,2,23,2018_Dec_10_1633,MP_PerceptionTuring2,59.9576187785275,
230,resources/videos_generated\model(tmp)-dataset(walking)-numprim(13)_final(3).mov,resources/videos_natural\training(47).mov,True,False,right,0,229,229,229,2018-12-10 16:57:19.743035,2018-12-10 16:57:23.663259,0:00:03.920224,6,left,0,0.26725668460949237,22,f,2,23,2018_Dec_10_1633,MP_PerceptionTuring2,59.9576187785275,
231,resources/videos_generated\model(vcgpdm)-dataset(walking)-mode(ELBO)-parts(1)-dyn(28)-lvm(25)_final(4).mov,resources/videos_natural\training(24).mov,False,True,left,0,230,230,230,2018-12-10 16:57:25.047338,2018-12-10 16:57:29.050567,0:00:04.003229,6,right,0,0.28399256584634713,22,f,2,23,2018_Dec_10_1633,MP_PerceptionTuring2,59.9576187785275,
232,resources/videos_generated\model(vcgpdm)-dataset(walking)-mode(ELBO)-parts(2)-dyn(26)-lvm(17)_final(4).mov,resources/videos_natural\training(22).mov,False,False,right,0,231,231,231,2018-12-10 16:57:30.451648,2018-12-10 16:57:34.555882,0:00:04.104234,6,right,1,0.2171969168321084,22,f,2,23,2018_Dec_10_1633,MP_PerceptionTuring2,59.9576187785275,
233,resources/videos_generated\model(vcgpdm)-dataset(walking)-mode(ELBO)-parts(2)-dyn(26)-lvm(19)_final(0).mov,resources/videos_natural\training(26).mov,False,False,right,0,232,232,232,2018-12-10 16:57:35.889959,2018-12-10 16:57:39.927190,0:00:04.037231,6,right,1,0.23385901068922976,22,f,2,23,2018_Dec_10_1633,MP_PerceptionTuring2,59.9576187785275,
234,resources/videos_generated\model(vcgpdm)-dataset(walking)-mode(ELBO)-parts(1)-dyn(27)-lvm(24)_final(0).mov,resources/videos_natural\training(29).mov,True,False,right,0,233,233,233,2018-12-10 16:57:41.278267,2018-12-10 16:57:45.214492,0:00:03.936225,6,left,0,0.30057575238288337,22,f,2,23,2018_Dec_10_1633,MP_PerceptionTuring2,59.9576187785275,
235,resources/videos_generated\model(vcgpdm)-dataset(walking)-mode(ELBO)-parts(2)-dyn(22)-lvm(21)_final(2).mov,resources/videos_natural\training(23).mov,False,False,right,0,234,234,234,2018-12-10 16:57:46.632573,2018-12-10 16:57:50.752809,0:00:04.120236,6,right,1,0.300515517787062,22,f,2,23,2018_Dec_10_1633,MP_PerceptionTuring2,59.9576187785275,
236,resources/videos_generated\model(dmp)-dataset(walking)-npsi(70)_final(9).mov,resources/videos_natural\training(36).mov,False,False,right,0,235,235,235,2018-12-10 16:57:52.170890,2018-12-10 16:57:56.091114,0:00:03.920224,6,right,1,1.9352709999634499,22,f,2,23,2018_Dec_10_1633,MP_PerceptionTuring2,59.9576187785275,
237,resources/videos_generated\model(vcgpdm)-dataset(walking)-mode(ELBO)-parts(1)-dyn(28)-lvm(27)_final(4).mov,resources/videos_natural\training(17).mov,True,True,left,0,236,236,236,2018-12-10 16:57:59.143289,2018-12-10 16:58:03.030511,0:00:03.887222,6,left,1,0.35082013919600286,22,f,2,23,2018_Dec_10_1633,MP_PerceptionTuring2,59.9576187785275,
238,resources/videos_generated\model(vcgpdm)-dataset(walking)-mode(ELBO)-parts(1)-dyn(26)-lvm(25)_final(0).mov,resources/videos_natural\training(5).mov,True,True,left,0,237,237,237,2018-12-10 16:58:04.498595,2018-12-10 16:58:08.551827,0:00:04.053232,6,left,1,0.7509178999448523,22,f,2,23,2018_Dec_10_1633,MP_PerceptionTuring2,59.9576187785275,
239,resources/videos_generated\model(vcgpdm)-dataset(walking)-mode(ELBO)-parts(1)-dyn(28)-lvm(25)_final(8).mov,resources/videos_natural\training(32).mov,True,True,left,0,238,238,238,2018-12-10 16:58:10.419934,2018-12-10 16:58:14.407162,0:00:03.987228,6,left,1,0.5673505602271689,22,f,2,23,2018_Dec_10_1633,MP_PerceptionTuring2,59.9576187785275,
240,resources/videos_generated\model(dmp)-dataset(walking)-npsi(100)_final(9).mov,resources/videos_natural\training(31).mov,False,True,left,0,239,239,239,2018-12-10 16:58:16.091258,2018-12-10 16:58:20.178492,0:00:04.087234,6,left,1,0.33420773888065014,22,f,2,23,2018_Dec_10_1633,MP_PerceptionTuring2,59.9576187785275,
241,resources/videos_generated\model(vcgpdm)-dataset(walking)-mode(ELBO)-parts(2)-dyn(28)-lvm(19)_final(4).mov,resources/videos_natural\training(32).mov,True,True,left,0,240,240,240,2018-12-10 16:58:21.629575,2018-12-10 16:58:25.549799,0:00:03.920224,6,left,1,0.2338020889960717,22,f,2,23,2018_Dec_10_1633,MP_PerceptionTuring2,59.9576187785275,
242,resources/videos_generated\model(dmp)-dataset(walking)-npsi(90)_final(3).mov,resources/videos_natural\training(22).mov,False,True,left,0,241,241,241,2018-12-10 16:58:26.900876,2018-12-10 16:58:30.855102,0:00:03.954226,6,right,0,0.28387330134683,22,f,2,23,2018_Dec_10_1633,MP_PerceptionTuring2,59.9576187785275,
243,resources/videos_generated\model(vcgpdm)-dataset(walking)-mode(ELBO)-parts(1)-dyn(23)-lvm(28)_final(5).mov,resources/videos_natural\training(0).mov,False,True,left,0,242,242,242,2018-12-10 16:58:32.255183,2018-12-10 16:58:36.325415,0:00:04.070232,6,left,1,0.3005344916850845,22,f,2,23,2018_Dec_10_1633,MP_PerceptionTuring2,59.9576187785275,
244,resources/videos_generated\model(vcgpdm)-dataset(walking)-mode(ELBO)-parts(2)-dyn(27)-lvm(18)_final(4).mov,resources/videos_natural\training(19).mov,False,False,right,0,243,243,243,2018-12-10 16:58:37.743496,2018-12-10 16:58:41.680722,0:00:03.937226,6,right,1,0.25044340191743686,22,f,2,23,2018_Dec_10_1633,MP_PerceptionTuring2,59.9576187785275,
245,resources/videos_generated\model(dmp)-dataset(walking)-npsi(100)_final(7).mov,resources/videos_natural\training(13).mov,False,False,right,0,244,244,244,2018-12-10 16:58:43.047800,2018-12-10 16:58:46.968024,0:00:03.920224,6,right,1,0.26703080487550324,22,f,2,23,2018_Dec_10_1633,MP_PerceptionTuring2,59.9576187785275,
246,resources/videos_generated\model(vcgpdm)-dataset(walking)-mode(ELBO)-parts(1)-dyn(22)-lvm(23)_final(3)_fail.mov,resources/videos_natural\training(44).mov,False,True,left,0,245,245,245,2018-12-10 16:58:48.353103,2018-12-10 16:58:52.473339,0:00:04.120236,6,left,1,0.28384890633560644,22,f,2,23,2018_Dec_10_1633,MP_PerceptionTuring2,59.9576187785275,
247,resources/videos_generated\model(vcgpdm)-dataset(walking)-mode(ELBO)-parts(2)-dyn(26)-lvm(21)_final(6).mov,resources/videos_natural\training(1).mov,True,False,right,0,246,246,246,2018-12-10 16:58:53.874419,2018-12-10 16:58:57.777642,0:00:03.903223,6,right,1,0.3173875292095545,22,f,2,23,2018_Dec_10_1633,MP_PerceptionTuring2,59.9576187785275,
248,resources/videos_generated\model(vcgpdm)-dataset(walking)-mode(ELBO)-parts(2)-dyn(24)-lvm(17)_final(6).mov,resources/videos_natural\training(23).mov,False,False,right,0,247,247,247,2018-12-10 16:58:59.211724,2018-12-10 16:59:03.298958,0:00:04.087234,6,right,1,0.4339128604169673,22,f,2,23,2018_Dec_10_1633,MP_PerceptionTuring2,59.9576187785275,
249,resources/videos_generated\model(vcgpdm)-dataset(walking)-mode(ELBO)-parts(1)-dyn(23)-lvm(22)_final(0).mov,resources/videos_natural\training(47).mov,True,False,right,0,248,248,248,2018-12-10 16:59:04.850047,2018-12-10 16:59:08.954282,0:00:04.104235,6,left,0,0.21709180746256607,22,f,2,23,2018_Dec_10_1633,MP_PerceptionTuring2,59.9576187785275,
250,resources/videos_generated\model(vcgpdm)-dataset(walking)-mode(ELBO)-parts(1)-dyn(28)-lvm(23)_final(4)_fail.mov,resources/videos_natural\training(45).mov,False,False,right,0,249,249,249,2018-12-10 16:59:10.288358,2018-12-10 16:59:14.175580,0:00:03.887222,6,right,1,0.2503852755326079,22,f,2,23,2018_Dec_10_1633,MP_PerceptionTuring2,59.9576187785275,
251,resources/videos_generated\model(vcgpdm)-dataset(walking)-mode(ELBO)-parts(2)-dyn(27)-lvm(20)_final(6).mov,resources/videos_natural\training(15).mov,True,False,right,0,250,250,250,2018-12-10 16:59:15.542658,2018-12-10 16:59:19.462883,0:00:03.920225,6,left,0,0.2003357476360179,22,f,2,23,2018_Dec_10_1633,MP_PerceptionTuring2,59.9576187785275,
252,resources/videos_generated\model(vcgpdm)-dataset(walking)-mode(ELBO)-parts(1)-dyn(26)-lvm(27)_final(8).mov,resources/videos_natural\training(26).mov,True,True,left,0,251,251,251,2018-12-10 16:59:20.780958,2018-12-10 16:59:24.867192,0:00:04.086234,6,left,1,0.13376929125934112,22,f,2,23,2018_Dec_10_1633,MP_PerceptionTuring2,59.9576187785275,
253,resources/videos_generated\model(tmp)-dataset(walking)-numprim(12)_final(7).mov,resources/videos_natural\training(15).mov,True,True,left,0,252,252,252,2018-12-10 16:59:26.118263,2018-12-10 16:59:30.038488,0:00:03.920225,6,right,0,0.3173032007762231,22,f,2,23,2018_Dec_10_1633,MP_PerceptionTuring2,59.9576187785275,
254,resources/videos_generated\model(vcgpdm)-dataset(walking)-mode(ELBO)-parts(1)-dyn(26)-lvm(25)_final(2).mov,resources/videos_natural\training(21).mov,True,True,left,0,253,253,253,2018-12-10 16:59:31.473570,2018-12-10 16:59:35.426796,0:00:03.953226,6,left,1,0.40051458415018715,22,f,2,23,2018_Dec_10_1633,MP_PerceptionTuring2,59.9576187785275,
255,resources/videos_generated\model(vcgpdm)-dataset(walking)-mode(ELBO)-parts(1)-dyn(26)-lvm(22)_final(2).mov,resources/videos_natural\training(0).mov,True,True,left,0,254,254,254,2018-12-10 16:59:36.944883,2018-12-10 16:59:41.065118,0:00:04.120235,6,left,1,0.21714421156138997,22,f,2,23,2018_Dec_10_1633,MP_PerceptionTuring2,59.9576187785275,
256,resources/videos_generated\model(vcgpdm)-dataset(walking)-mode(ELBO)-parts(2)-dyn(24)-lvm(17)_final(0).mov,resources/videos_natural\training(14).mov,False,False,right,0,255,255,255,2018-12-10 16:59:42.399195,2018-12-10 16:59:46.453426,0:00:04.054231,6,right,1,0.3005721383078708,22,f,2,23,2018_Dec_10_1633,MP_PerceptionTuring2,59.9576187785275,
257,resources/videos_generated\model(vcgpdm)-dataset(walking)-mode(ELBO)-parts(1)-dyn(25)-lvm(26)_final(9).mov,resources/videos_natural\training(40).mov,True,True,left,0,256,256,256,2018-12-10 16:59:47.870508,2018-12-10 16:59:51.990743,0:00:04.120235,6,left,1,0.28392540427194035,22,f,2,23,2018_Dec_10_1633,MP_PerceptionTuring2,59.9576187785275,
258,resources/videos_generated\model(dmp)-dataset(walking)-npsi(90)_final(7).mov,resources/videos_natural\training(46).mov,False,True,left,0,257,257,257,2018-12-10 16:59:53.392823,2018-12-10 16:59:57.346049,0:00:03.953226,6,left,1,0.2673030652485977,22,f,2,23,2018_Dec_10_1633,MP_PerceptionTuring2,59.9576187785275,
259,resources/videos_generated\model(tmp)-dataset(walking)-numprim(14)_final(9).mov,resources/videos_natural\training(46).mov,False,False,right,0,258,258,258,2018-12-10 16:59:58.730129,2018-12-10 17:00:02.783360,0:00:04.053231,6,left,0,0.2337942584981647,22,f,2,23,2018_Dec_10_1633,MP_PerceptionTuring2,59.9576187785275,
260,resources/videos_generated\model(vcgpdm)-dataset(walking)-mode(ELBO)-parts(2)-dyn(24)-lvm(19)_final(2).mov,resources/videos_natural\training(25).mov,True,False,right,0,259,259,259,2018-12-10 17:00:04.135438,2018-12-10 17:00:08.054662,0:00:03.919224,6,right,1,0.4506767507409677,22,f,2,23,2018_Dec_10_1633,MP_PerceptionTuring2,59.9576187785275,
261,resources/videos_generated\model(vcgpdm)-dataset(walking)-mode(ELBO)-parts(1)-dyn(25)-lvm(24)_final(2).mov,resources/videos_natural\training(17).mov,False,True,left,0,260,260,260,2018-12-10 17:00:09.622752,2018-12-10 17:00:13.726986,0:00:04.104234,6,left,1,0.2837826482800665,22,f,2,23,2018_Dec_10_1633,MP_PerceptionTuring2,59.9576187785275,
262,resources/videos_generated\model(vcgpdm)-dataset(walking)-mode(ELBO)-parts(1)-dyn(24)-lvm(27)_final(7).mov,resources/videos_natural\training(38).mov,True,True,left,0,261,261,261,2018-12-10 17:00:15.128067,2018-12-10 17:00:19.064292,0:00:03.936225,6,left,1,0.26710489342804067,22,f,2,23,2018_Dec_10_1633,MP_PerceptionTuring2,59.9576187785275,
263,resources/videos_generated\model(vcgpdm)-dataset(walking)-mode(ELBO)-parts(2)-dyn(22)-lvm(23)_final(6).mov,resources/videos_natural\training(12).mov,False,False,right,0,262,262,262,2018-12-10 17:00:20.449371,2018-12-10 17:00:24.402597,0:00:03.953226,6,right,1,0.2671844030955981,22,f,2,23,2018_Dec_10_1633,MP_PerceptionTuring2,59.9576187785275,
264,resources/videos_generated\model(vcgpdm)-dataset(walking)-mode(ELBO)-parts(1)-dyn(22)-lvm(22)_final(5).mov,resources/videos_natural\training(2).mov,False,True,left,0,263,263,263,2018-12-10 17:00:25.786676,2018-12-10 17:00:29.840908,0:00:04.054232,6,left,1,0.3841690230947279,22,f,2,23,2018_Dec_10_1633,MP_PerceptionTuring2,59.9576187785275,
265,resources/videos_generated\model(vcgpdm)-dataset(walking)-mode(ELBO)-parts(1)-dyn(23)-lvm(26)_final(8)_hip-corrected.mov,resources/videos_natural\training(16).mov,False,True,left,0,264,264,264,2018-12-10 17:00:31.341994,2018-12-10 17:00:35.379225,0:00:04.037231,6,left,1,0.3004709441856903,22,f,2,23,2018_Dec_10_1633,MP_PerceptionTuring2,59.9576187785275,
266,resources/videos_generated\model(vcgpdm)-dataset(walking)-mode(ELBO)-parts(2)-dyn(22)-lvm(23)_final(2).mov,resources/videos_natural\training(21).mov,True,True,left,0,265,265,265,2018-12-10 17:00:36.796306,2018-12-10 17:00:40.866539,0:00:04.070233,6,left,1,0.33398125680105295,22,f,2,23,2018_Dec_10_1633,MP_PerceptionTuring2,59.9576187785275,
267,resources/videos_generated\model(vcgpdm)-dataset(walking)-mode(ELBO)-parts(1)-dyn(23)-lvm(22)_final(6)_fail.mov,resources/videos_natural\training(44).mov,True,True,left,0,266,266,266,2018-12-10 17:00:42.317622,2018-12-10 17:00:46.271848,0:00:03.954226,6,left,1,0.30060617085382546,22,f,2,23,2018_Dec_10_1633,MP_PerceptionTuring2,59.9576187785275,
268,resources/videos_generated\model(vcgpdm)-dataset(walking)-mode(ELBO)-parts(1)-dyn(25)-lvm(24)_final(4).mov,resources/videos_natural\training(43).mov,True,True,left,0,267,267,267,2018-12-10 17:00:47.688929,2018-12-10 17:00:51.609153,0:00:03.920224,6,left,1,0.0002677427783055464,22,f,2,23,2018_Dec_10_1633,MP_PerceptionTuring2,59.9576187785275,
269,resources/videos_generated\model(vcgpdm)-dataset(walking)-mode(ELBO)-parts(1)-dyn(27)-lvm(28)_final(2).mov,resources/videos_natural\training(28).mov,True,False,right,0,268,268,268,2018-12-10 17:00:52.727217,2018-12-10 17:00:56.680443,0:00:03.953226,6,left,0,0.40051578884322225,22,f,2,23,2018_Dec_10_1633,MP_PerceptionTuring2,59.9576187785275,
270,resources/videos_generated\model(tmp)-dataset(walking)-numprim(12)_final(9).mov,resources/videos_natural\training(41).mov,False,True,left,0,269,269,269,2018-12-10 17:00:58.198530,2018-12-10 17:01:02.134755,0:00:03.936225,6,left,1,0.23370571364284842,22,f,2,23,2018_Dec_10_1633,MP_PerceptionTuring2,59.9576187785275,
271,resources/videos_generated\model(vcgpdm)-dataset(walking)-mode(ELBO)-parts(2)-dyn(28)-lvm(23)_final(2).mov,resources/videos_natural\training(7).mov,True,True,left,0,270,270,270,2018-12-10 17:01:35.880685,2018-12-10 17:01:39.800910,0:00:03.920225,7,left,1,0.23371324296749663,22,f,2,23,2018_Dec_10_1633,MP_PerceptionTuring2,59.9576187785275,
272,resources/videos_generated\model(vcgpdm)-dataset(walking)-mode(ELBO)-parts(1)-dyn(25)-lvm(22)_final(5).mov,resources/videos_natural\training(4).mov,True,False,right,0,271,271,271,2018-12-10 17:01:41.151987,2018-12-10 17:01:45.055210,0:00:03.903223,7,right,1,0.3338984342317417,22,f,2,23,2018_Dec_10_1633,MP_PerceptionTuring2,59.9576187785275,
273,resources/videos_generated\model(dmp)-dataset(walking)-npsi(100)_final(1).mov,resources/videos_natural\training(22).mov,False,False,right,0,272,272,272,2018-12-10 17:01:46.506293,2018-12-10 17:01:50.593527,0:00:04.087234,7,right,1,0.2504385831498439,22,f,2,23,2018_Dec_10_1633,MP_PerceptionTuring2,59.9576187785275,
274,resources/videos_generated\model(vcgpdm)-dataset(walking)-mode(ELBO)-parts(2)-dyn(24)-lvm(17)_final(2).mov,resources/videos_natural\training(7).mov,True,True,left,0,273,273,273,2018-12-10 17:01:51.961605,2018-12-10 17:01:55.898830,0:00:03.937225,7,left,1,0.317317958251806,22,f,2,23,2018_Dec_10_1633,MP_PerceptionTuring2,59.9576187785275,
275,resources/videos_generated\model(vcgpdm)-dataset(walking)-mode(ELBO)-parts(1)-dyn(26)-lvm(25)_final(8).mov,resources/videos_natural\training(37).mov,False,True,left,0,274,274,274,2018-12-10 17:01:57.332912,2018-12-10 17:02:01.286138,0:00:03.953226,7,left,1,0.7842387747559769,22,f,2,23,2018_Dec_10_1633,MP_PerceptionTuring2,59.9576187785275,
276,resources/videos_generated\model(vcgpdm)-dataset(walking)-mode(ELBO)-parts(2)-dyn(26)-lvm(17)_final(6).mov,resources/videos_natural\training(24).mov,True,True,left,0,275,275,275,2018-12-10 17:02:03.188247,2018-12-10 17:02:07.108471,0:00:03.920224,7,left,1,0.23381503943437565,22,f,2,23,2018_Dec_10_1633,MP_PerceptionTuring2,59.9576187785275,
277,resources/videos_generated\model(vcgpdm)-dataset(walking)-mode(ELBO)-parts(1)-dyn(23)-lvm(26)_final(6)_hip-corrected.mov,resources/videos_natural\training(12).mov,True,True,left,0,276,276,276,2018-12-10 17:02:08.459549,2018-12-10 17:02:12.545782,0:00:04.086233,7,left,1,0.36726026856831595,22,f,2,23,2018_Dec_10_1633,MP_PerceptionTuring2,59.9576187785275,
278,resources/videos_generated\model(vcgpdm)-dataset(walking)-mode(ELBO)-parts(2)-dyn(27)-lvm(22)_final(2).mov,resources/videos_natural\training(38).mov,False,True,left,0,277,277,277,2018-12-10 17:02:14.030867,2018-12-10 17:02:18.134102,0:00:04.103235,7,left,1,0.3171655647247462,22,f,2,23,2018_Dec_10_1633,MP_PerceptionTuring2,59.9576187785275,
279,resources/videos_generated\model(vcgpdm)-dataset(walking)-mode(ELBO)-parts(2)-dyn(28)-lvm(23)_final(4)_fail.mov,resources/videos_natural\training(10).mov,True,True,left,0,278,278,278,2018-12-10 17:02:19.569184,2018-12-10 17:02:23.472407,0:00:03.903223,7,left,1,0.2672304825609899,22,f,2,23,2018_Dec_10_1633,MP_PerceptionTuring2,59.9576187785275,
280,resources/videos_generated\model(vcgpdm)-dataset(walking)-mode(ELBO)-parts(2)-dyn(23)-lvm(22)_final(6).mov,resources/videos_natural\training(1).mov,False,False,right,0,279,279,279,2018-12-10 17:02:24.856487,2018-12-10 17:02:28.793712,0:00:03.937225,7,right,1,0.1837149144776049,22,f,2,23,2018_Dec_10_1633,MP_PerceptionTuring2,59.9576187785275,
281,resources/videos_generated\model(vcgpdm)-dataset(walking)-mode(ELBO)-parts(1)-dyn(22)-lvm(27)_final(9)_hip-corrected.mov,resources/videos_natural\training(17).mov,True,True,left,0,280,280,280,2018-12-10 17:02:30.094786,2018-12-10 17:02:34.031011,0:00:03.936225,7,left,1,0.41734081728100136,22,f,2,23,2018_Dec_10_1633,MP_PerceptionTuring2,59.9576187785275,
282,resources/videos_generated\model(dmp)-dataset(walking)-npsi(80)_final(7).mov,resources/videos_natural\training(27).mov,False,False,right,0,281,281,281,2018-12-10 17:02:35.566099,2018-12-10 17:02:39.619331,0:00:04.053232,7,left,0,0.3176504532202671,22,f,2,23,2018_Dec_10_1633,MP_PerceptionTuring2,59.9576187785275,
283,resources/videos_generated\model(dmp)-dataset(walking)-npsi(60)_final(5).mov,resources/videos_natural\training(48).mov,True,True,left,0,282,282,282,2018-12-10 17:02:41.054413,2018-12-10 17:02:45.040641,0:00:03.986228,7,left,1,0.2838242101506694,22,f,2,23,2018_Dec_10_1633,MP_PerceptionTuring2,59.9576187785275,
284,resources/videos_generated\model(vcgpdm)-dataset(walking)-mode(ELBO)-parts(1)-dyn(27)-lvm(26)_final(4).mov,resources/videos_natural\training(44).mov,True,True,left,0,283,283,283,2018-12-10 17:02:46.441721,2018-12-10 17:02:50.394947,0:00:03.953226,7,left,1,0.3172285098771681,22,f,2,23,2018_Dec_10_1633,MP_PerceptionTuring2,59.9576187785275,
285,resources/videos_generated\model(vcgpdm)-dataset(walking)-mode(ELBO)-parts(2)-dyn(24)-lvm(19)_final(8).mov,resources/videos_natural\training(12).mov,False,True,left,0,284,284,284,2018-12-10 17:02:51.830029,2018-12-10 17:02:55.800256,0:00:03.970227,7,right,0,0.2337246875404162,22,f,2,23,2018_Dec_10_1633,MP_PerceptionTuring2,59.9576187785275,
286,resources/videos_generated\model(vcgpdm)-dataset(walking)-mode(ELBO)-parts(2)-dyn(22)-lvm(19)_final(6).mov,resources/videos_natural\training(23).mov,False,True,left,0,285,285,285,2018-12-10 17:02:57.151334,2018-12-10 17:03:01.254568,0:00:04.103234,7,left,1,0.4009232758817234,22,f,2,23,2018_Dec_10_1633,MP_PerceptionTuring2,59.9576187785275,
287,resources/videos_generated\model(vcgpdm)-dataset(walking)-mode(ELBO)-parts(2)-dyn(24)-lvm(17)_final(4).mov,resources/videos_natural\training(18).mov,False,True,left,0,286,286,286,2018-12-10 17:03:02.772655,2018-12-10 17:03:06.709880,0:00:03.937225,7,left,1,0.00037345449254644336,22,f,2,23,2018_Dec_10_1633,MP_PerceptionTuring2,59.9576187785275,
288,resources/videos_generated\model(vcgpdm)-dataset(walking)-mode(ELBO)-parts(2)-dyn(25)-lvm(20)_final(8).mov,resources/videos_natural\training(43).mov,False,True,left,0,287,287,287,2018-12-10 17:03:07.826944,2018-12-10 17:03:11.747169,0:00:03.920225,7,left,1,0.3004101072447156,22,f,2,23,2018_Dec_10_1633,MP_PerceptionTuring2,59.9576187785275,
289,resources/videos_generated\model(vcgpdm)-dataset(walking)-mode(ELBO)-parts(1)-dyn(24)-lvm(23)_final(3)_fail.mov,resources/videos_natural\training(28).mov,True,False,right,0,288,288,288,2018-12-10 17:03:13.165250,2018-12-10 17:03:17.201481,0:00:04.036231,7,right,1,0.28391155031476956,22,f,2,23,2018_Dec_10_1633,MP_PerceptionTuring2,59.9576187785275,
290,resources/videos_generated\model(vcgpdm)-dataset(walking)-mode(ELBO)-parts(2)-dyn(26)-lvm(23)_final(4).mov,resources/videos_natural\training(21).mov,False,True,left,0,289,289,289,2018-12-10 17:03:18.603561,2018-12-10 17:03:22.506784,0:00:03.903223,7,left,1,0.016861771541698545,22,f,2,23,2018_Dec_10_1633,MP_PerceptionTuring2,59.9576187785275,
291,resources/videos_generated\model(vcgpdm)-dataset(walking)-mode(ELBO)-parts(1)-dyn(27)-lvm(22)_final(8).mov,resources/videos_natural\training(42).mov,True,True,left,0,290,290,290,2018-12-10 17:03:23.640849,2018-12-10 17:03:27.561073,0:00:03.920224,7,right,0,0.4505635097011691,22,f,2,23,2018_Dec_10_1633,MP_PerceptionTuring2,59.9576187785275,
292,resources/videos_generated\model(dmp)-dataset(walking)-npsi(60)_final(9).mov,resources/videos_natural\training(6).mov,False,False,right,0,291,291,291,2018-12-10 17:03:29.129163,2018-12-10 17:03:33.082389,0:00:03.953226,7,left,0,0.31726525298017805,22,f,2,23,2018_Dec_10_1633,MP_PerceptionTuring2,59.9576187785275,
