n_trial,mov_file_generated,mov_file_natural,mirrored,switch_stim_pos,correct_answer,trials.thisRepN,trials.thisTrialN,trials.thisN,trials.thisIndex,stimulus_onset,stimulus_off,stimulus_length,block,response.keys,response.corr,response.rt,age,gender,condition,participant,date,expName,frameRate,
1,resources/videos_generated\model(vcgpdm)-dataset(walking)-mode(ELBO)-parts(1)-dyn(25)-lvm(28)_final(2).mov,resources/videos_natural\training(46).mov,True,False,right,0,0,0,0,2018-12-10 15:58:21.165640,2018-12-10 15:58:25.819906,0:00:04.654266,1,left,0,2.118773587491205,22,f,1,23,2018_Dec_10_1557,MP_PerceptionTuring2,59.96043390873272,
2,resources/videos_generated\model(vcgpdm)-dataset(walking)-mode(ELBO)-parts(2)-dyn(26)-lvm(17)_final(5).mov,resources/videos_natural\training(25).mov,True,False,right,0,1,1,1,2018-12-10 15:58:29.122095,2018-12-10 15:58:33.076321,0:00:03.954226,1,left,0,0.7008060292421305,22,f,1,23,2018_Dec_10_1557,MP_PerceptionTuring2,59.96043390873272,
3,resources/videos_generated\model(dmp)-dataset(walking)-npsi(50)_final(2).mov,resources/videos_natural\training(21).mov,True,True,left,0,2,2,2,2018-12-10 15:58:34.894425,2018-12-10 15:58:38.964658,0:00:04.070233,1,left,1,0.483745242596342,22,f,1,23,2018_Dec_10_1557,MP_PerceptionTuring2,59.96043390873272,
4,resources/videos_generated\model(vcgpdm)-dataset(walking)-mode(ELBO)-parts(1)-dyn(25)-lvm(23)_final(0).mov,resources/videos_natural\training(24).mov,False,False,right,0,3,3,3,2018-12-10 15:58:40.565750,2018-12-10 15:58:44.635982,0:00:04.070232,1,left,0,0.5340992563737927,22,f,1,23,2018_Dec_10_1557,MP_PerceptionTuring2,59.96043390873272,
5,resources/videos_generated\model(vcgpdm)-dataset(walking)-mode(ELBO)-parts(1)-dyn(26)-lvm(27)_final(1).mov,resources/videos_natural\training(20).mov,False,False,right,0,4,4,4,2018-12-10 15:58:46.287077,2018-12-10 15:58:50.374311,0:00:04.087234,1,right,1,0.45069873636850843,22,f,1,23,2018_Dec_10_1557,MP_PerceptionTuring2,59.96043390873272,
6,resources/videos_generated\model(vcgpdm)-dataset(walking)-mode(ELBO)-parts(2)-dyn(28)-lvm(23)_final(1).mov,resources/videos_natural\training(13).mov,False,False,right,0,5,5,5,2018-12-10 15:58:52.009404,2018-12-10 15:58:55.962630,0:00:03.953226,1,right,1,0.5171097874893462,22,f,1,23,2018_Dec_10_1557,MP_PerceptionTuring2,59.96043390873272,
7,resources/videos_generated\model(vcgpdm)-dataset(walking)-mode(ELBO)-parts(1)-dyn(27)-lvm(26)_final(5).mov,resources/videos_natural\training(1).mov,True,True,left,0,6,6,6,2018-12-10 15:58:57.596724,2018-12-10 15:59:01.650956,0:00:04.054232,1,left,1,0.48403436865555705,22,f,1,23,2018_Dec_10_1557,MP_PerceptionTuring2,59.96043390873272,
8,resources/videos_generated\model(vcgpdm)-dataset(walking)-mode(ELBO)-parts(1)-dyn(25)-lvm(25)_final(2).mov,resources/videos_natural\training(27).mov,True,True,left,0,7,7,7,2018-12-10 15:59:03.252047,2018-12-10 15:59:07.205273,0:00:03.953226,1,right,0,0.317109245377992,22,f,1,23,2018_Dec_10_1557,MP_PerceptionTuring2,59.96043390873272,
9,resources/videos_generated\model(vcgpdm)-dataset(walking)-mode(ELBO)-parts(2)-dyn(27)-lvm(18)_final(3).mov,resources/videos_natural\training(46).mov,False,False,right,0,8,8,8,2018-12-10 15:59:08.640355,2018-12-10 15:59:12.743590,0:00:04.103235,1,right,1,0.434030920225041,22,f,1,23,2018_Dec_10_1557,MP_PerceptionTuring2,59.96043390873272,
10,resources/videos_generated\model(vcgpdm)-dataset(walking)-mode(ELBO)-parts(2)-dyn(28)-lvm(19)_final(5).mov,resources/videos_natural\training(30).mov,False,True,left,0,9,9,9,2018-12-10 15:59:14.294679,2018-12-10 15:59:18.381913,0:00:04.087234,1,right,0,0.41722004691666825,22,f,1,23,2018_Dec_10_1557,MP_PerceptionTuring2,59.96043390873272,
11,resources/videos_generated\model(vcgpdm)-dataset(walking)-mode(ELBO)-parts(1)-dyn(27)-lvm(28)_final(7).mov,resources/videos_natural\training(21).mov,False,False,right,0,10,10,10,2018-12-10 15:59:19.916000,2018-12-10 15:59:23.836225,0:00:03.920225,1,left,0,0.45074240645044483,22,f,1,23,2018_Dec_10_1557,MP_PerceptionTuring2,59.96043390873272,
12,resources/videos_generated\model(vcgpdm)-dataset(walking)-mode(ELBO)-parts(1)-dyn(24)-lvm(25)_final(8).mov,resources/videos_natural\training(37).mov,False,False,right,0,11,11,11,2018-12-10 15:59:25.404314,2018-12-10 15:59:29.458546,0:00:04.054232,1,right,1,0.3504704773682761,22,f,1,23,2018_Dec_10_1557,MP_PerceptionTuring2,59.96043390873272,
13,resources/videos_generated\model(vcgpdm)-dataset(walking)-mode(ELBO)-parts(1)-dyn(22)-lvm(28)_final(0).mov,resources/videos_natural\training(20).mov,True,False,right,0,12,12,12,2018-12-10 15:59:30.925630,2018-12-10 15:59:34.829853,0:00:03.904223,1,left,0,0.26701604739980667,22,f,1,23,2018_Dec_10_1557,MP_PerceptionTuring2,59.96043390873272,
14,resources/videos_generated\model(dmp)-dataset(walking)-npsi(70)_final(2).mov,resources/videos_natural\training(11).mov,True,True,left,0,13,13,13,2018-12-10 15:59:36.213933,2018-12-10 15:59:40.317167,0:00:04.103234,1,right,0,0.8509883443044828,22,f,1,23,2018_Dec_10_1557,MP_PerceptionTuring2,59.96043390873272,
15,resources/videos_generated\model(vcgpdm)-dataset(walking)-mode(ELBO)-parts(2)-dyn(26)-lvm(19)_final(3).mov,resources/videos_natural\training(9).mov,True,False,right,0,14,14,14,2018-12-10 15:59:42.285280,2018-12-10 15:59:46.172502,0:00:03.887222,1,left,0,0.4006386674179794,22,f,1,23,2018_Dec_10_1557,MP_PerceptionTuring2,59.96043390873272,
16,resources/videos_generated\model(vcgpdm)-dataset(walking)-mode(ELBO)-parts(1)-dyn(22)-lvm(25)_final(4).mov,resources/videos_natural\training(25).mov,True,False,right,0,15,15,15,2018-12-10 15:59:47.690589,2018-12-10 15:59:51.593812,0:00:03.903223,1,right,1,0.6673559512231577,22,f,1,23,2018_Dec_10_1557,MP_PerceptionTuring2,59.96043390873272,
17,resources/videos_generated\model(vcgpdm)-dataset(walking)-mode(ELBO)-parts(1)-dyn(22)-lvm(25)_final(6).mov,resources/videos_natural\training(22).mov,False,True,left,0,16,16,16,2018-12-10 15:59:53.378914,2018-12-10 15:59:57.315139,0:00:03.936225,1,left,1,0.5007301938861701,22,f,1,23,2018_Dec_10_1557,MP_PerceptionTuring2,59.96043390873272,
18,resources/videos_generated\model(dmp)-dataset(walking)-npsi(60)_final(0).mov,resources/videos_natural\training(45).mov,True,False,right,0,17,17,17,2018-12-10 15:59:58.933232,2018-12-10 16:00:02.870457,0:00:03.937225,1,left,0,0.2503334737803016,22,f,1,23,2018_Dec_10_1557,MP_PerceptionTuring2,59.96043390873272,
19,resources/videos_generated\model(vcgpdm)-dataset(walking)-mode(ELBO)-parts(2)-dyn(22)-lvm(19)_final(9).mov,resources/videos_natural\training(23).mov,True,True,left,0,18,18,18,2018-12-10 16:00:04.238535,2018-12-10 16:00:08.157760,0:00:03.919225,1,left,1,0.2671844030948023,22,f,1,23,2018_Dec_10_1557,MP_PerceptionTuring2,59.96043390873272,
20,resources/videos_generated\model(vcgpdm)-dataset(walking)-mode(ELBO)-parts(1)-dyn(22)-lvm(22)_final(2).mov,resources/videos_natural\training(26).mov,False,False,right,0,19,19,19,2018-12-10 16:00:09.542839,2018-12-10 16:00:13.513066,0:00:03.970227,1,right,1,0.26718349957582177,22,f,1,23,2018_Dec_10_1557,MP_PerceptionTuring2,59.96043390873272,
21,resources/videos_generated\model(vcgpdm)-dataset(walking)-mode(ELBO)-parts(1)-dyn(26)-lvm(23)_final(9).mov,resources/videos_natural\training(24).mov,True,True,left,0,20,20,20,2018-12-10 16:00:14.897145,2018-12-10 16:00:18.800368,0:00:03.903223,1,left,1,0.26729583709675353,22,f,1,23,2018_Dec_10_1557,MP_PerceptionTuring2,59.96043390873272,
22,resources/videos_generated\model(vcgpdm)-dataset(walking)-mode(ELBO)-parts(1)-dyn(22)-lvm(27)_final(8)_fail.mov,resources/videos_natural\training(22).mov,True,False,right,0,21,21,21,2018-12-10 16:00:20.185448,2018-12-10 16:00:24.121673,0:00:03.936225,1,right,1,0.3003760746981925,22,f,1,23,2018_Dec_10_1557,MP_PerceptionTuring2,59.96043390873272,
23,resources/videos_generated\model(vcgpdm)-dataset(walking)-mode(ELBO)-parts(1)-dyn(26)-lvm(22)_final(7).mov,resources/videos_natural\training(6).mov,False,True,left,0,22,22,22,2018-12-10 16:00:25.539754,2018-12-10 16:00:29.642989,0:00:04.103235,1,right,0,0.3005462374309218,22,f,1,23,2018_Dec_10_1557,MP_PerceptionTuring2,59.96043390873272,
24,resources/videos_generated\model(vcgpdm)-dataset(walking)-mode(ELBO)-parts(2)-dyn(24)-lvm(17)_final(9).mov,resources/videos_natural\training(10).mov,True,True,left,0,23,23,23,2018-12-10 16:00:31.061070,2018-12-10 16:00:35.165304,0:00:04.104234,1,left,1,0.38397536886918715,22,f,1,23,2018_Dec_10_1557,MP_PerceptionTuring2,59.96043390873272,
25,resources/videos_generated\model(vcgpdm)-dataset(walking)-mode(ELBO)-parts(1)-dyn(23)-lvm(24)_final(5).mov,resources/videos_natural\training(3).mov,False,False,right,0,24,24,24,2018-12-10 16:00:36.666390,2018-12-10 16:00:40.736623,0:00:04.070233,1,right,1,0.2671100133690061,22,f,1,23,2018_Dec_10_1557,MP_PerceptionTuring2,59.96043390873272,
26,resources/videos_generated\model(vcgpdm)-dataset(walking)-mode(ELBO)-parts(2)-dyn(24)-lvm(19)_final(5).mov,resources/videos_natural\training(33).mov,True,True,left,0,25,25,25,2018-12-10 16:00:42.120702,2018-12-10 16:00:46.174934,0:00:04.054232,1,left,1,0.4335132038751226,22,f,1,23,2018_Dec_10_1557,MP_PerceptionTuring2,59.96043390873272,
27,resources/videos_generated\model(vcgpdm)-dataset(walking)-mode(ELBO)-parts(1)-dyn(25)-lvm(26)_final(6)_fail.mov,resources/videos_natural\training(45).mov,False,False,right,0,26,26,26,2018-12-10 16:00:47.726023,2018-12-10 16:00:51.645247,0:00:03.919224,1,right,1,0.31723031691524284,22,f,1,23,2018_Dec_10_1557,MP_PerceptionTuring2,59.96043390873272,
28,resources/videos_generated\model(vcgpdm)-dataset(walking)-mode(ELBO)-parts(1)-dyn(22)-lvm(23)_final(6)_fail.mov,resources/videos_natural\training(10).mov,True,False,right,0,27,27,27,2018-12-10 16:00:53.080329,2018-12-10 16:00:56.984552,0:00:03.904223,1,right,1,0.484019008833684,22,f,1,23,2018_Dec_10_1557,MP_PerceptionTuring2,59.96043390873272,
29,resources/videos_generated\model(vcgpdm)-dataset(walking)-mode(ELBO)-parts(2)-dyn(23)-lvm(22)_final(1).mov,resources/videos_natural\training(39).mov,True,True,left,0,28,28,28,2018-12-10 16:00:58.584644,2018-12-10 16:01:02.704880,0:00:04.120236,1,left,1,0.5007419396322348,22,f,1,23,2018_Dec_10_1557,MP_PerceptionTuring2,59.96043390873272,
30,resources/videos_generated\model(vcgpdm)-dataset(walking)-mode(ELBO)-parts(1)-dyn(26)-lvm(23)_final(3)_fail.mov,resources/videos_natural\training(6).mov,False,False,right,0,29,29,29,2018-12-10 16:01:04.322972,2018-12-10 16:01:08.243196,0:00:03.920224,1,right,1,0.28428711301910425,22,f,1,23,2018_Dec_10_1557,MP_PerceptionTuring2,59.96043390873272,
31,resources/videos_generated\model(vcgpdm)-dataset(walking)-mode(ELBO)-parts(1)-dyn(26)-lvm(27)_final(9).mov,resources/videos_natural\training(28).mov,False,False,right,0,30,30,30,2018-12-10 16:01:09.644276,2018-12-10 16:01:13.548500,0:00:03.904224,1,right,1,0.28382180076744135,22,f,1,23,2018_Dec_10_1557,MP_PerceptionTuring2,59.96043390873272,
32,resources/videos_generated\model(vcgpdm)-dataset(walking)-mode(ELBO)-parts(1)-dyn(24)-lvm(23)_final(8).mov,resources/videos_natural\training(19).mov,True,False,right,0,31,31,31,2018-12-10 16:01:14.949580,2018-12-10 16:01:18.852803,0:00:03.903223,1,right,1,0.43391918505005833,22,f,1,23,2018_Dec_10_1557,MP_PerceptionTuring2,59.96043390873272,
33,resources/videos_generated\model(vcgpdm)-dataset(walking)-mode(ELBO)-parts(2)-dyn(23)-lvm(18)_final(9).mov,resources/videos_natural\training(6).mov,True,False,right,0,32,32,32,2018-12-10 16:01:20.403892,2018-12-10 16:01:24.324116,0:00:03.920224,1,right,1,0.33392734683775416,22,f,1,23,2018_Dec_10_1557,MP_PerceptionTuring2,59.96043390873272,
34,resources/videos_generated\model(vcgpdm)-dataset(walking)-mode(ELBO)-parts(2)-dyn(27)-lvm(22)_final(3).mov,resources/videos_natural\training(12).mov,False,False,right,0,33,33,33,2018-12-10 16:01:25.775199,2018-12-10 16:01:29.712424,0:00:03.937225,1,right,1,0.2838413770110719,22,f,1,23,2018_Dec_10_1557,MP_PerceptionTuring2,59.96043390873272,
35,resources/videos_generated\model(vcgpdm)-dataset(walking)-mode(ELBO)-parts(2)-dyn(26)-lvm(17)_final(1).mov,resources/videos_natural\training(21).mov,True,False,right,0,34,34,34,2018-12-10 16:01:31.113504,2018-12-10 16:01:35.033729,0:00:03.920225,1,left,0,0.26705971748174306,22,f,1,23,2018_Dec_10_1557,MP_PerceptionTuring2,59.96043390873272,
36,resources/videos_generated\model(vcgpdm)-dataset(walking)-mode(ELBO)-parts(2)-dyn(24)-lvm(23)_final(9).mov,resources/videos_natural\training(37).mov,False,True,left,0,35,35,35,2018-12-10 16:01:36.417808,2018-12-10 16:01:40.355033,0:00:03.937225,1,right,0,0.2839901564623233,22,f,1,23,2018_Dec_10_1557,MP_PerceptionTuring2,59.96043390873272,
37,resources/videos_generated\model(vcgpdm)-dataset(walking)-mode(ELBO)-parts(2)-dyn(28)-lvm(17)_final(9).mov,resources/videos_natural\training(27).mov,False,True,left,0,36,36,36,2018-12-10 16:01:41.756113,2018-12-10 16:01:45.659336,0:00:03.903223,1,right,0,0.2671639233321912,22,f,1,23,2018_Dec_10_1557,MP_PerceptionTuring2,59.96043390873272,
38,resources/videos_generated\model(vcgpdm)-dataset(walking)-mode(ELBO)-parts(2)-dyn(26)-lvm(17)_final(3).mov,resources/videos_natural\training(34).mov,False,True,left,0,37,37,37,2018-12-10 16:01:47.043416,2018-12-10 16:01:50.930638,0:00:03.887222,1,right,0,0.2839040209905761,22,f,1,23,2018_Dec_10_1557,MP_PerceptionTuring2,59.96043390873272,
39,resources/videos_generated\model(vcgpdm)-dataset(walking)-mode(ELBO)-parts(2)-dyn(22)-lvm(19)_final(1).mov,resources/videos_natural\training(13).mov,False,True,left,0,38,38,38,2018-12-10 16:01:52.331718,2018-12-10 16:01:56.434953,0:00:04.103235,1,left,1,0.26712567436402423,22,f,1,23,2018_Dec_10_1557,MP_PerceptionTuring2,59.96043390873272,
40,resources/videos_generated\model(vcgpdm)-dataset(walking)-mode(ELBO)-parts(2)-dyn(22)-lvm(17)_final(7).mov,resources/videos_natural\training(4).mov,False,False,right,0,39,39,39,2018-12-10 16:01:57.820032,2018-12-10 16:02:01.923267,0:00:04.103235,1,left,0,0.36731508205002683,22,f,1,23,2018_Dec_10_1557,MP_PerceptionTuring2,59.96043390873272,
41,resources/videos_generated\model(tmp)-dataset(walking)-numprim(14)_final(6).mov,resources/videos_natural\training(3).mov,True,False,right,0,40,40,40,2018-12-10 16:02:03.407352,2018-12-10 16:02:07.361578,0:00:03.954226,1,right,1,0.26712868609376983,22,f,1,23,2018_Dec_10_1557,MP_PerceptionTuring2,59.96043390873272,
42,resources/videos_generated\model(vcgpdm)-dataset(walking)-mode(ELBO)-parts(1)-dyn(23)-lvm(26)_final(5)_hip-corrected.mov,resources/videos_natural\training(31).mov,False,True,left,0,41,41,41,2018-12-10 16:02:08.745657,2018-12-10 16:02:12.832891,0:00:04.087234,1,left,1,0.4673361340412612,22,f,1,23,2018_Dec_10_1557,MP_PerceptionTuring2,59.96043390873272,
43,resources/videos_generated\model(vcgpdm)-dataset(walking)-mode(ELBO)-parts(1)-dyn(28)-lvm(23)_final(3)_fail.mov,resources/videos_natural\training(31).mov,False,True,left,0,42,42,42,2018-12-10 16:02:14.416981,2018-12-10 16:02:18.337205,0:00:03.920224,1,left,1,0.3673668838023332,22,f,1,23,2018_Dec_10_1557,MP_PerceptionTuring2,59.96043390873272,
44,resources/videos_generated\model(dmp)-dataset(walking)-npsi(60)_final(6).mov,resources/videos_natural\training(39).mov,False,True,left,0,43,43,43,2018-12-10 16:02:19.822290,2018-12-10 16:02:23.725514,0:00:03.903224,1,right,0,0.21720745788627482,22,f,1,23,2018_Dec_10_1557,MP_PerceptionTuring2,59.96043390873272,
45,resources/videos_generated\model(tmp)-dataset(walking)-numprim(11)_final(8).mov,resources/videos_natural\training(38).mov,False,True,left,0,44,44,44,2018-12-10 16:02:25.059590,2018-12-10 16:02:29.179826,0:00:04.120236,1,left,1,0.8676498358155413,22,f,1,23,2018_Dec_10_1557,MP_PerceptionTuring2,59.96043390873272,
46,resources/videos_generated\model(vcgpdm)-dataset(walking)-mode(ELBO)-parts(1)-dyn(23)-lvm(22)_final(9)_fail.mov,resources/videos_natural\training(18).mov,False,False,right,0,45,45,45,2018-12-10 16:03:03.809806,2018-12-10 16:03:07.747032,0:00:03.937226,2,right,1,0.4507405994124838,22,f,1,23,2018_Dec_10_1557,MP_PerceptionTuring2,59.96043390873272,
47,resources/videos_generated\model(vcgpdm)-dataset(walking)-mode(ELBO)-parts(1)-dyn(28)-lvm(25)_final(9).mov,resources/videos_natural\training(46).mov,True,False,right,0,46,46,46,2018-12-10 16:03:09.315121,2018-12-10 16:03:13.235345,0:00:03.920224,2,left,0,0.31717098583851566,22,f,1,23,2018_Dec_10_1557,MP_PerceptionTuring2,59.96043390873272,
48,resources/videos_generated\model(vcgpdm)-dataset(walking)-mode(ELBO)-parts(1)-dyn(24)-lvm(25)_final(0).mov,resources/videos_natural\training(8).mov,True,False,right,0,47,47,47,2018-12-10 16:03:14.669428,2018-12-10 16:03:18.622654,0:00:03.953226,2,right,1,0.45060145749641833,22,f,1,23,2018_Dec_10_1557,MP_PerceptionTuring2,59.96043390873272,
49,resources/videos_generated\model(vcgpdm)-dataset(walking)-mode(ELBO)-parts(1)-dyn(25)-lvm(28)_final(6).mov,resources/videos_natural\training(23).mov,False,False,right,0,48,48,48,2018-12-10 16:03:20.190743,2018-12-10 16:03:24.310979,0:00:04.120236,2,right,1,0.43398875600792053,22,f,1,23,2018_Dec_10_1557,MP_PerceptionTuring2,59.96043390873272,
50,resources/videos_generated\model(tmp)-dataset(walking)-numprim(15)_final(0).mov,resources/videos_natural\training(2).mov,True,False,right,0,49,49,49,2018-12-10 16:03:25.862068,2018-12-10 16:03:29.949301,0:00:04.087233,2,left,0,0.25105538540947236,22,f,1,23,2018_Dec_10_1557,MP_PerceptionTuring2,59.96043390873272,
51,resources/videos_generated\model(vcgpdm)-dataset(walking)-mode(ELBO)-parts(1)-dyn(22)-lvm(27)_final(4)_fail.mov,resources/videos_natural\training(42).mov,False,False,right,0,50,50,50,2018-12-10 16:03:31.317380,2018-12-10 16:03:35.303608,0:00:03.986228,2,right,1,0.31715050607601825,22,f,1,23,2018_Dec_10_1557,MP_PerceptionTuring2,59.96043390873272,
52,resources/videos_generated\model(vcgpdm)-dataset(walking)-mode(ELBO)-parts(2)-dyn(27)-lvm(22)_final(7).mov,resources/videos_natural\training(47).mov,False,False,right,0,51,51,51,2018-12-10 16:03:36.738690,2018-12-10 16:03:40.674915,0:00:03.936225,2,right,1,0.25054037961649556,22,f,1,23,2018_Dec_10_1557,MP_PerceptionTuring2,59.96043390873272,
53,resources/videos_generated\model(vcgpdm)-dataset(walking)-mode(ELBO)-parts(2)-dyn(23)-lvm(22)_final(3).mov,resources/videos_natural\training(1).mov,True,False,right,0,52,52,52,2018-12-10 16:03:42.042993,2018-12-10 16:03:45.946216,0:00:03.903223,2,right,1,0.4172387196413183,22,f,1,23,2018_Dec_10_1557,MP_PerceptionTuring2,59.96043390873272,
54,resources/videos_generated\model(tmp)-dataset(walking)-numprim(11)_final(0).mov,resources/videos_natural\training(27).mov,True,False,right,0,53,53,53,2018-12-10 16:03:47.481304,2018-12-10 16:03:51.584539,0:00:04.103235,2,left,0,0.48399130091968345,22,f,1,23,2018_Dec_10_1557,MP_PerceptionTuring2,59.96043390873272,
55,resources/videos_generated\model(vcgpdm)-dataset(walking)-mode(ELBO)-parts(1)-dyn(28)-lvm(25)_final(1).mov,resources/videos_natural\training(42).mov,True,True,left,0,54,54,54,2018-12-10 16:03:53.185631,2018-12-10 16:03:57.089854,0:00:03.904223,2,left,1,0.23379486084456857,22,f,1,23,2018_Dec_10_1557,MP_PerceptionTuring2,59.96043390873272,
56,resources/videos_generated\model(vcgpdm)-dataset(walking)-mode(ELBO)-parts(1)-dyn(25)-lvm(22)_final(6).mov,resources/videos_natural\training(14).mov,False,True,left,0,55,55,55,2018-12-10 16:03:58.440931,2018-12-10 16:04:02.578168,0:00:04.137237,2,left,1,0.25037714386223797,22,f,1,23,2018_Dec_10_1557,MP_PerceptionTuring2,59.96043390873272,
57,resources/videos_generated\model(vcgpdm)-dataset(walking)-mode(ELBO)-parts(1)-dyn(27)-lvm(26)_final(1).mov,resources/videos_natural\training(47).mov,False,True,left,0,56,56,56,2018-12-10 16:04:03.945246,2018-12-10 16:04:07.982477,0:00:04.037231,2,left,1,0.5673891103681399,22,f,1,23,2018_Dec_10_1557,MP_PerceptionTuring2,59.96043390873272,
58,resources/videos_generated\model(vcgpdm)-dataset(walking)-mode(ELBO)-parts(1)-dyn(26)-lvm(25)_final(1).mov,resources/videos_natural\training(0).mov,False,False,right,0,57,57,57,2018-12-10 16:04:09.667573,2018-12-10 16:04:13.603798,0:00:03.936225,2,right,1,0.31718724917936925,22,f,1,23,2018_Dec_10_1557,MP_PerceptionTuring2,59.96043390873272,
59,resources/videos_generated\model(vcgpdm)-dataset(walking)-mode(ELBO)-parts(1)-dyn(25)-lvm(26)_final(8).mov,resources/videos_natural\training(4).mov,True,True,left,0,58,58,58,2018-12-10 16:04:15.037880,2018-12-10 16:04:18.958105,0:00:03.920225,2,left,1,0.21714511507968837,22,f,1,23,2018_Dec_10_1557,MP_PerceptionTuring2,59.96043390873272,
60,resources/videos_generated\model(tmp)-dataset(walking)-numprim(12)_final(4).mov,resources/videos_natural\training(17).mov,False,True,left,0,59,59,59,2018-12-10 16:04:20.293181,2018-12-10 16:04:24.379415,0:00:04.086234,2,right,0,0.28374229110113447,22,f,1,23,2018_Dec_10_1557,MP_PerceptionTuring2,59.96043390873272,
61,resources/videos_generated\model(vcgpdm)-dataset(walking)-mode(ELBO)-parts(1)-dyn(27)-lvm(28)_final(5).mov,resources/videos_natural\training(10).mov,False,True,left,0,60,60,60,2018-12-10 16:04:25.780495,2018-12-10 16:04:29.867729,0:00:04.087234,2,right,0,0.2673187262430474,22,f,1,23,2018_Dec_10_1557,MP_PerceptionTuring2,59.96043390873272,
62,resources/videos_generated\model(vcgpdm)-dataset(walking)-mode(ELBO)-parts(1)-dyn(23)-lvm(22)_final(5)_fail.mov,resources/videos_natural\training(16).mov,True,True,left,0,61,61,61,2018-12-10 16:04:31.252808,2018-12-10 16:04:35.339042,0:00:04.086234,2,left,1,0.4674978639307028,22,f,1,23,2018_Dec_10_1557,MP_PerceptionTuring2,59.96043390873272,
63,resources/videos_generated\model(vcgpdm)-dataset(walking)-mode(ELBO)-parts(2)-dyn(27)-lvm(22)_final(1).mov,resources/videos_natural\training(6).mov,False,True,left,0,62,62,62,2018-12-10 16:04:36.924132,2018-12-10 16:04:40.860357,0:00:03.936225,2,left,1,0.3338827732369509,22,f,1,23,2018_Dec_10_1557,MP_PerceptionTuring2,59.96043390873272,
64,resources/videos_generated\model(vcgpdm)-dataset(walking)-mode(ELBO)-parts(2)-dyn(26)-lvm(17)_final(7).mov,resources/videos_natural\training(1).mov,False,False,right,0,63,63,63,2018-12-10 16:04:42.312440,2018-12-10 16:04:46.415675,0:00:04.103235,2,left,0,0.26709314768231707,22,f,1,23,2018_Dec_10_1557,MP_PerceptionTuring2,59.96043390873272,
65,resources/videos_generated\model(dmp)-dataset(walking)-npsi(90)_final(6).mov,resources/videos_natural\training(19).mov,True,False,right,0,64,64,64,2018-12-10 16:04:47.799754,2018-12-10 16:04:51.703978,0:00:03.904224,2,left,0,0.25036027817543527,22,f,1,23,2018_Dec_10_1557,MP_PerceptionTuring2,59.96043390873272,
66,resources/videos_generated\model(vcgpdm)-dataset(walking)-mode(ELBO)-parts(2)-dyn(28)-lvm(21)_final(1).mov,resources/videos_natural\training(42).mov,False,True,left,0,65,65,65,2018-12-10 16:04:53.071056,2018-12-10 16:04:56.958278,0:00:03.887222,2,right,0,0.23375390131946006,22,f,1,23,2018_Dec_10_1557,MP_PerceptionTuring2,59.96043390873272,
67,resources/videos_generated\model(vcgpdm)-dataset(walking)-mode(ELBO)-parts(1)-dyn(27)-lvm(28)_final(9).mov,resources/videos_natural\training(42).mov,False,True,left,0,66,66,66,2018-12-10 16:04:58.309355,2018-12-10 16:05:02.245581,0:00:03.936226,2,left,1,0.26736721509269046,22,f,1,23,2018_Dec_10_1557,MP_PerceptionTuring2,59.96043390873272,
68,resources/videos_generated\model(vcgpdm)-dataset(walking)-mode(ELBO)-parts(2)-dyn(24)-lvm(21)_final(7).mov,resources/videos_natural\training(29).mov,False,True,left,0,67,67,67,2018-12-10 16:05:03.630660,2018-12-10 16:05:07.716893,0:00:04.086233,2,left,1,0.26711573565569324,22,f,1,23,2018_Dec_10_1557,MP_PerceptionTuring2,59.96043390873272,
69,resources/videos_generated\model(vcgpdm)-dataset(walking)-mode(ELBO)-parts(2)-dyn(22)-lvm(17)_final(5).mov,resources/videos_natural\training(31).mov,True,False,right,0,68,68,68,2018-12-10 16:05:09.101973,2018-12-10 16:05:13.189206,0:00:04.087233,2,left,0,0.2837606626528668,22,f,1,23,2018_Dec_10_1557,MP_PerceptionTuring2,59.96043390873272,
70,resources/videos_generated\model(vcgpdm)-dataset(walking)-mode(ELBO)-parts(1)-dyn(28)-lvm(27)_final(9).mov,resources/videos_natural\training(0).mov,False,True,left,0,69,69,69,2018-12-10 16:05:14.590287,2018-12-10 16:05:18.693521,0:00:04.103234,2,left,1,0.2502834790658426,22,f,1,23,2018_Dec_10_1557,MP_PerceptionTuring2,59.96043390873272,
71,resources/videos_generated\model(vcgpdm)-dataset(walking)-mode(ELBO)-parts(2)-dyn(24)-lvm(19)_final(1).mov,resources/videos_natural\training(11).mov,False,True,left,0,70,70,70,2018-12-10 16:05:20.061600,2018-12-10 16:05:23.964823,0:00:03.903223,2,left,1,0.25062350335849715,22,f,1,23,2018_Dec_10_1557,MP_PerceptionTuring2,59.96043390873272,
72,resources/videos_generated\model(vcgpdm)-dataset(walking)-mode(ELBO)-parts(1)-dyn(24)-lvm(27)_final(6).mov,resources/videos_natural\training(4).mov,True,False,right,0,71,71,71,2018-12-10 16:05:25.332901,2018-12-10 16:05:29.253125,0:00:03.920224,2,left,0,0.3505340248666471,22,f,1,23,2018_Dec_10_1557,MP_PerceptionTuring2,59.96043390873272,
73,resources/videos_generated\model(vcgpdm)-dataset(walking)-mode(ELBO)-parts(2)-dyn(28)-lvm(19)_final(3).mov,resources/videos_natural\training(22).mov,True,False,right,0,72,72,72,2018-12-10 16:05:30.720209,2018-12-10 16:05:34.740439,0:00:04.020230,2,right,1,0.2839380535370992,22,f,1,23,2018_Dec_10_1557,MP_PerceptionTuring2,59.96043390873272,
74,resources/videos_generated\model(vcgpdm)-dataset(walking)-mode(ELBO)-parts(2)-dyn(24)-lvm(21)_final(3).mov,resources/videos_natural\training(42).mov,True,True,left,0,73,73,73,2018-12-10 16:05:36.141519,2018-12-10 16:05:40.061743,0:00:03.920224,2,right,0,0.3004929298136858,22,f,1,23,2018_Dec_10_1557,MP_PerceptionTuring2,59.96043390873272,
75,resources/videos_generated\model(vcgpdm)-dataset(walking)-mode(ELBO)-parts(1)-dyn(25)-lvm(26)_final(4)_fail.mov,resources/videos_natural\training(36).mov,False,False,right,0,74,74,74,2018-12-10 16:05:41.479825,2018-12-10 16:05:45.550057,0:00:04.070232,2,right,1,0.5672647259279984,22,f,1,23,2018_Dec_10_1557,MP_PerceptionTuring2,59.96043390873272,
76,resources/videos_generated\model(tmp)-dataset(walking)-numprim(15)_final(8).mov,resources/videos_natural\training(33).mov,True,True,left,0,75,75,75,2018-12-10 16:05:47.235154,2018-12-10 16:05:51.155378,0:00:03.920224,2,left,1,0.7330318391037736,22,f,1,23,2018_Dec_10_1557,MP_PerceptionTuring2,59.96043390873272,
77,resources/videos_generated\model(vcgpdm)-dataset(walking)-mode(ELBO)-parts(2)-dyn(28)-lvm(21)_final(5).mov,resources/videos_natural\training(5).mov,True,False,right,0,76,76,76,2018-12-10 16:05:53.006484,2018-12-10 16:05:56.959710,0:00:03.953226,2,right,1,0.30047485943509855,22,f,1,23,2018_Dec_10_1557,MP_PerceptionTuring2,59.96043390873272,
78,resources/videos_generated\model(vcgpdm)-dataset(walking)-mode(ELBO)-parts(1)-dyn(26)-lvm(25)_final(3).mov,resources/videos_natural\training(3).mov,True,False,right,0,77,77,77,2018-12-10 16:05:58.377791,2018-12-10 16:06:02.298015,0:00:03.920224,2,right,1,0.5505625760649764,22,f,1,23,2018_Dec_10_1557,MP_PerceptionTuring2,59.96043390873272,
79,resources/videos_generated\model(vcgpdm)-dataset(walking)-mode(ELBO)-parts(2)-dyn(24)-lvm(23)_final(5).mov,resources/videos_natural\training(24).mov,True,True,left,0,78,78,78,2018-12-10 16:06:03.966111,2018-12-10 16:06:07.919337,0:00:03.953226,2,left,1,0.40062692167180103,22,f,1,23,2018_Dec_10_1557,MP_PerceptionTuring2,59.96043390873272,
80,resources/videos_generated\model(vcgpdm)-dataset(walking)-mode(ELBO)-parts(2)-dyn(25)-lvm(22)_final(5).mov,resources/videos_natural\training(36).mov,False,True,left,0,79,79,79,2018-12-10 16:06:09.437424,2018-12-10 16:06:13.357648,0:00:03.920224,2,left,1,0.33387674977734605,22,f,1,23,2018_Dec_10_1557,MP_PerceptionTuring2,59.96043390873272,
81,resources/videos_generated\model(vcgpdm)-dataset(walking)-mode(ELBO)-parts(1)-dyn(28)-lvm(23)_final(1).mov,resources/videos_natural\training(9).mov,False,False,right,0,80,80,80,2018-12-10 16:06:14.808731,2018-12-10 16:06:18.895965,0:00:04.087234,2,right,1,0.5174826396365688,22,f,1,23,2018_Dec_10_1557,MP_PerceptionTuring2,59.96043390873272,
82,resources/videos_generated\model(dmp)-dataset(walking)-npsi(90)_final(0).mov,resources/videos_natural\training(36).mov,True,False,right,0,81,81,81,2018-12-10 16:06:20.530058,2018-12-10 16:06:24.467283,0:00:03.937225,2,left,0,0.2671741632134399,22,f,1,23,2018_Dec_10_1557,MP_PerceptionTuring2,59.96043390873272,
83,resources/videos_generated\model(vcgpdm)-dataset(walking)-mode(ELBO)-parts(1)-dyn(27)-lvm(24)_final(9).mov,resources/videos_natural\training(3).mov,True,False,right,0,82,82,82,2018-12-10 16:06:25.851362,2018-12-10 16:06:29.771587,0:00:03.920225,2,left,0,0.30046130665095916,22,f,1,23,2018_Dec_10_1557,MP_PerceptionTuring2,59.96043390873272,
84,resources/videos_generated\model(vcgpdm)-dataset(walking)-mode(ELBO)-parts(1)-dyn(23)-lvm(27)_final(2).mov,resources/videos_natural\training(2).mov,True,False,right,0,83,83,83,2018-12-10 16:06:31.189668,2018-12-10 16:06:35.142894,0:00:03.953226,2,right,1,0.21713095994971354,22,f,1,23,2018_Dec_10_1557,MP_PerceptionTuring2,59.96043390873272,
85,resources/videos_generated\model(vcgpdm)-dataset(walking)-mode(ELBO)-parts(2)-dyn(25)-lvm(20)_final(7).mov,resources/videos_natural\training(40).mov,True,False,right,0,84,84,84,2018-12-10 16:06:36.476970,2018-12-10 16:06:40.581205,0:00:04.104235,2,left,0,0.3504783078656146,22,f,1,23,2018_Dec_10_1557,MP_PerceptionTuring2,59.96043390873272,
86,resources/videos_generated\model(vcgpdm)-dataset(walking)-mode(ELBO)-parts(2)-dyn(26)-lvm(21)_final(5).mov,resources/videos_natural\training(30).mov,False,True,left,0,85,85,85,2018-12-10 16:06:42.049289,2018-12-10 16:06:45.985514,0:00:03.936225,2,left,1,0.4505833871178311,22,f,1,23,2018_Dec_10_1557,MP_PerceptionTuring2,59.96043390873272,
87,resources/videos_generated\model(vcgpdm)-dataset(walking)-mode(ELBO)-parts(2)-dyn(23)-lvm(18)_final(5).mov,resources/videos_natural\training(6).mov,True,True,left,0,86,86,86,2018-12-10 16:06:47.553604,2018-12-10 16:06:51.640838,0:00:04.087234,2,left,1,0.40063746272608114,22,f,1,23,2018_Dec_10_1557,MP_PerceptionTuring2,59.96043390873272,
88,resources/videos_generated\model(vcgpdm)-dataset(walking)-mode(ELBO)-parts(2)-dyn(27)-lvm(22)_final(5).mov,resources/videos_natural\training(12).mov,True,True,left,0,87,87,87,2018-12-10 16:06:53.158924,2018-12-10 16:06:57.262159,0:00:04.103235,2,left,1,0.25035666409962687,22,f,1,23,2018_Dec_10_1557,MP_PerceptionTuring2,59.96043390873272,
89,resources/videos_generated\model(tmp)-dataset(walking)-numprim(14)_final(2).mov,resources/videos_natural\training(48).mov,False,True,left,0,88,88,88,2018-12-10 16:06:58.630237,2018-12-10 16:07:02.666468,0:00:04.036231,2,left,1,0.3005426233552271,22,f,1,23,2018_Dec_10_1557,MP_PerceptionTuring2,59.96043390873272,
90,resources/videos_generated\model(vcgpdm)-dataset(walking)-mode(ELBO)-parts(1)-dyn(23)-lvm(28)_final(6)_hip-corrected.mov,resources/videos_natural\training(43).mov,True,True,left,0,89,89,89,2018-12-10 16:07:04.084549,2018-12-10 16:07:08.187784,0:00:04.103235,2,left,1,0.4674174507454154,22,f,1,23,2018_Dec_10_1557,MP_PerceptionTuring2,59.96043390873272,
91,resources/videos_generated\model(vcgpdm)-dataset(walking)-mode(ELBO)-parts(1)-dyn(26)-lvm(23)_final(7).mov,resources/videos_natural\training(9).mov,False,True,left,0,90,90,90,2018-12-10 16:07:42.601752,2018-12-10 16:07:46.671985,0:00:04.070233,3,right,0,1.234566767187971,22,f,1,23,2018_Dec_10_1557,MP_PerceptionTuring2,59.96043390873272,
92,resources/videos_generated\model(tmp)-dataset(walking)-numprim(13)_final(2).mov,resources/videos_natural\training(31).mov,True,False,right,0,91,91,91,2018-12-10 16:07:49.023120,2018-12-10 16:07:52.943344,0:00:03.920224,3,left,0,0.26748467255424657,22,f,1,23,2018_Dec_10_1557,MP_PerceptionTuring2,59.96043390873272,
93,resources/videos_generated\model(dmp)-dataset(walking)-npsi(50)_final(0).mov,resources/videos_natural\training(0).mov,True,False,right,0,92,92,92,2018-12-10 16:07:54.328423,2018-12-10 16:07:58.264648,0:00:03.936225,3,left,0,0.2838410758381542,22,f,1,23,2018_Dec_10_1557,MP_PerceptionTuring2,59.96043390873272,
94,resources/videos_generated\model(dmp)-dataset(walking)-npsi(100)_final(0).mov,resources/videos_natural\training(29).mov,False,False,right,0,93,93,93,2018-12-10 16:07:59.665728,2018-12-10 16:08:03.568952,0:00:03.903224,3,right,1,0.4673773947392874,22,f,1,23,2018_Dec_10_1557,MP_PerceptionTuring2,59.96043390873272,
95,resources/videos_generated\model(vcgpdm)-dataset(walking)-mode(ELBO)-parts(1)-dyn(23)-lvm(28)_final(2).mov,resources/videos_natural\training(27).mov,False,False,right,0,94,94,94,2018-12-10 16:08:05.154042,2018-12-10 16:08:09.241276,0:00:04.087234,3,right,1,0.35051896621757805,22,f,1,23,2018_Dec_10_1557,MP_PerceptionTuring2,59.96043390873272,
96,resources/videos_generated\model(vcgpdm)-dataset(walking)-mode(ELBO)-parts(1)-dyn(28)-lvm(27)_final(3).mov,resources/videos_natural\training(37).mov,False,False,right,0,95,95,95,2018-12-10 16:08:10.709360,2018-12-10 16:08:14.628584,0:00:03.919224,3,right,1,0.3506014876138579,22,f,1,23,2018_Dec_10_1557,MP_PerceptionTuring2,59.96043390873272,
97,resources/videos_generated\model(vcgpdm)-dataset(walking)-mode(ELBO)-parts(1)-dyn(22)-lvm(27)_final(2)_hip-corrected.mov,resources/videos_natural\training(23).mov,False,False,right,0,96,96,96,2018-12-10 16:08:16.096668,2018-12-10 16:08:19.999891,0:00:03.903223,3,right,1,0.36722473015652213,22,f,1,23,2018_Dec_10_1557,MP_PerceptionTuring2,59.96043390873272,
98,resources/videos_generated\model(vcgpdm)-dataset(walking)-mode(ELBO)-parts(1)-dyn(27)-lvm(24)_final(7).mov,resources/videos_natural\training(30).mov,True,True,left,0,97,97,97,2018-12-10 16:08:21.484976,2018-12-10 16:08:25.588211,0:00:04.103235,3,left,1,0.4007940726748984,22,f,1,23,2018_Dec_10_1557,MP_PerceptionTuring2,59.96043390873272,
99,resources/videos_generated\model(vcgpdm)-dataset(walking)-mode(ELBO)-parts(2)-dyn(22)-lvm(23)_final(3).mov,resources/videos_natural\training(35).mov,True,False,right,0,98,98,98,2018-12-10 16:08:27.106298,2018-12-10 16:08:31.226534,0:00:04.120236,3,right,1,0.46725933493189586,22,f,1,23,2018_Dec_10_1557,MP_PerceptionTuring2,59.96043390873272,
100,resources/videos_generated\model(vcgpdm)-dataset(walking)-mode(ELBO)-parts(2)-dyn(28)-lvm(23)_final(9).mov,resources/videos_natural\training(48).mov,True,False,right,0,99,99,99,2018-12-10 16:08:32.811624,2018-12-10 16:08:36.898858,0:00:04.087234,3,right,1,0.30063237290278266,22,f,1,23,2018_Dec_10_1557,MP_PerceptionTuring2,59.96043390873272,
101,resources/videos_generated\model(vcgpdm)-dataset(walking)-mode(ELBO)-parts(2)-dyn(22)-lvm(23)_final(5).mov,resources/videos_natural\training(31).mov,False,True,left,0,100,100,100,2018-12-10 16:08:38.315939,2018-12-10 16:08:42.420174,0:00:04.104235,3,left,1,0.2837431946200013,22,f,1,23,2018_Dec_10_1557,MP_PerceptionTuring2,59.96043390873272,
102,resources/videos_generated\model(vcgpdm)-dataset(walking)-mode(ELBO)-parts(2)-dyn(25)-lvm(18)_final(1).mov,resources/videos_natural\training(17).mov,True,False,right,0,101,101,101,2018-12-10 16:08:43.821254,2018-12-10 16:08:47.741478,0:00:03.920224,3,right,1,0.36724310170825447,22,f,1,23,2018_Dec_10_1557,MP_PerceptionTuring2,59.96043390873272,
103,resources/videos_generated\model(vcgpdm)-dataset(walking)-mode(ELBO)-parts(1)-dyn(24)-lvm(25)_final(2).mov,resources/videos_natural\training(19).mov,True,True,left,0,102,102,102,2018-12-10 16:08:49.225563,2018-12-10 16:08:53.345799,0:00:04.120236,3,left,1,0.2504939989776176,22,f,1,23,2018_Dec_10_1557,MP_PerceptionTuring2,59.96043390873272,
104,resources/videos_generated\model(dmp)-dataset(walking)-npsi(80)_final(6).mov,resources/videos_natural\training(36).mov,True,True,left,0,103,103,103,2018-12-10 16:08:54.713877,2018-12-10 16:08:58.667103,0:00:03.953226,3,left,1,0.2504569547013489,22,f,1,23,2018_Dec_10_1557,MP_PerceptionTuring2,59.96043390873272,
105,resources/videos_generated\model(vcgpdm)-dataset(walking)-mode(ELBO)-parts(1)-dyn(23)-lvm(24)_final(7).mov,resources/videos_natural\training(22).mov,True,False,right,0,104,104,104,2018-12-10 16:09:00.035181,2018-12-10 16:09:03.955406,0:00:03.920225,3,right,1,0.3506457600417434,22,f,1,23,2018_Dec_10_1557,MP_PerceptionTuring2,59.96043390873272,
106,resources/videos_generated\model(tmp)-dataset(walking)-numprim(12)_final(8).mov,resources/videos_natural\training(14).mov,True,False,right,0,105,105,105,2018-12-10 16:09:05.422489,2018-12-10 16:09:09.326713,0:00:03.904224,3,right,1,0.25052622448652073,22,f,1,23,2018_Dec_10_1557,MP_PerceptionTuring2,59.96043390873272,
107,resources/videos_generated\model(vcgpdm)-dataset(walking)-mode(ELBO)-parts(1)-dyn(26)-lvm(27)_final(3).mov,resources/videos_natural\training(18).mov,True,True,left,0,106,106,106,2018-12-10 16:09:10.693791,2018-12-10 16:09:14.648017,0:00:03.954226,3,left,1,0.3672181043511955,22,f,1,23,2018_Dec_10_1557,MP_PerceptionTuring2,59.96043390873272,
108,resources/videos_generated\model(vcgpdm)-dataset(walking)-mode(ELBO)-parts(2)-dyn(28)-lvm(19)_final(7).mov,resources/videos_natural\training(41).mov,True,False,right,0,107,107,107,2018-12-10 16:09:16.132102,2018-12-10 16:09:20.069327,0:00:03.937225,3,right,1,0.2503647957701105,22,f,1,23,2018_Dec_10_1557,MP_PerceptionTuring2,59.96043390873272,
109,resources/videos_generated\model(vcgpdm)-dataset(walking)-mode(ELBO)-parts(2)-dyn(23)-lvm(18)_final(3).mov,resources/videos_natural\training(20).mov,False,True,left,0,108,108,108,2018-12-10 16:09:21.436405,2018-12-10 16:09:25.356630,0:00:03.920225,3,left,1,0.5174546305495369,22,f,1,23,2018_Dec_10_1557,MP_PerceptionTuring2,59.96043390873272,
110,resources/videos_generated\model(vcgpdm)-dataset(walking)-mode(ELBO)-parts(2)-dyn(28)-lvm(21)_final(7).mov,resources/videos_natural\training(48).mov,True,False,right,0,109,109,109,2018-12-10 16:09:26.991723,2018-12-10 16:09:30.911947,0:00:03.920224,3,right,1,0.3173266922685798,22,f,1,23,2018_Dec_10_1557,MP_PerceptionTuring2,59.96043390873272,
111,resources/videos_generated\model(vcgpdm)-dataset(walking)-mode(ELBO)-parts(1)-dyn(22)-lvm(22)_final(6).mov,resources/videos_natural\training(14).mov,False,False,right,0,110,110,110,2018-12-10 16:09:32.346029,2018-12-10 16:09:36.233252,0:00:03.887223,3,right,1,0.28387962597935257,22,f,1,23,2018_Dec_10_1557,MP_PerceptionTuring2,59.96043390873272,
112,resources/videos_generated\model(vcgpdm)-dataset(walking)-mode(ELBO)-parts(2)-dyn(28)-lvm(17)_final(3).mov,resources/videos_natural\training(27).mov,False,False,right,0,111,111,111,2018-12-10 16:09:37.634332,2018-12-10 16:09:41.554556,0:00:03.920224,3,right,1,0.43391647449311677,22,f,1,23,2018_Dec_10_1557,MP_PerceptionTuring2,59.96043390873272,
113,resources/videos_generated\model(vcgpdm)-dataset(walking)-mode(ELBO)-parts(2)-dyn(23)-lvm(20)_final(7).mov,resources/videos_natural\training(4).mov,True,False,right,0,112,112,112,2018-12-10 16:09:43.105645,2018-12-10 16:09:47.008868,0:00:03.903223,3,right,1,0.2838118620593377,22,f,1,23,2018_Dec_10_1557,MP_PerceptionTuring2,59.96043390873272,
114,resources/videos_generated\model(vcgpdm)-dataset(walking)-mode(ELBO)-parts(1)-dyn(28)-lvm(27)_final(7).mov,resources/videos_natural\training(29).mov,False,False,right,0,113,113,113,2018-12-10 16:09:48.409948,2018-12-10 16:09:52.330172,0:00:03.920224,3,right,1,0.28375463919314825,22,f,1,23,2018_Dec_10_1557,MP_PerceptionTuring2,59.96043390873272,
115,resources/videos_generated\model(vcgpdm)-dataset(walking)-mode(ELBO)-parts(2)-dyn(25)-lvm(20)_final(1).mov,resources/videos_natural\training(17).mov,False,False,right,0,114,114,114,2018-12-10 16:09:53.731253,2018-12-10 16:09:57.668478,0:00:03.937225,3,right,1,0.3673997116568444,22,f,1,23,2018_Dec_10_1557,MP_PerceptionTuring2,59.96043390873272,
116,resources/videos_generated\model(vcgpdm)-dataset(walking)-mode(ELBO)-parts(2)-dyn(26)-lvm(21)_final(1).mov,resources/videos_natural\training(47).mov,False,True,left,0,115,115,115,2018-12-10 16:09:59.152563,2018-12-10 16:10:03.072787,0:00:03.920224,3,left,1,0.3507508694110584,22,f,1,23,2018_Dec_10_1557,MP_PerceptionTuring2,59.96043390873272,
117,resources/videos_generated\model(vcgpdm)-dataset(walking)-mode(ELBO)-parts(2)-dyn(25)-lvm(18)_final(7).mov,resources/videos_natural\training(44).mov,True,False,right,0,116,116,116,2018-12-10 16:10:04.540871,2018-12-10 16:10:08.477096,0:00:03.936225,3,left,0,0.28388775764960883,22,f,1,23,2018_Dec_10_1557,MP_PerceptionTuring2,59.96043390873272,
118,resources/videos_generated\model(vcgpdm)-dataset(walking)-mode(ELBO)-parts(1)-dyn(27)-lvm(22)_final(5).mov,resources/videos_natural\training(32).mov,False,False,right,0,117,117,117,2018-12-10 16:10:09.879176,2018-12-10 16:10:13.815401,0:00:03.936225,3,right,1,0.6341745195009025,22,f,1,23,2018_Dec_10_1557,MP_PerceptionTuring2,59.96043390873272,
119,resources/videos_generated\model(vcgpdm)-dataset(walking)-mode(ELBO)-parts(1)-dyn(22)-lvm(22)_final(8).mov,resources/videos_natural\training(16).mov,False,True,left,0,118,118,118,2018-12-10 16:10:15.567502,2018-12-10 16:10:19.670736,0:00:04.103234,3,right,0,0.2671765725972364,22,f,1,23,2018_Dec_10_1557,MP_PerceptionTuring2,59.96043390873272,
120,resources/videos_generated\model(dmp)-dataset(walking)-npsi(50)_final(6).mov,resources/videos_natural\training(10).mov,False,True,left,0,119,119,119,2018-12-10 16:10:21.054815,2018-12-10 16:10:24.975040,0:00:03.920225,3,left,1,0.38396422546884423,22,f,1,23,2018_Dec_10_1557,MP_PerceptionTuring2,59.96043390873272,
121,resources/videos_generated\model(tmp)-dataset(walking)-numprim(15)_final(2).mov,resources/videos_natural\training(30).mov,True,True,left,0,120,120,120,2018-12-10 16:10:26.476125,2018-12-10 16:10:30.380349,0:00:03.904224,3,left,1,0.28376819197728764,22,f,1,23,2018_Dec_10_1557,MP_PerceptionTuring2,59.96043390873272,
122,resources/videos_generated\model(vcgpdm)-dataset(walking)-mode(ELBO)-parts(2)-dyn(23)-lvm(20)_final(1).mov,resources/videos_natural\training(40).mov,False,False,right,0,121,121,121,2018-12-10 16:10:31.781429,2018-12-10 16:10:35.767657,0:00:03.986228,3,right,1,0.2670889312607869,22,f,1,23,2018_Dec_10_1557,MP_PerceptionTuring2,59.96043390873272,
123,resources/videos_generated\model(tmp)-dataset(walking)-numprim(13)_final(6).mov,resources/videos_natural\training(33).mov,True,False,right,0,122,122,122,2018-12-10 16:10:37.152736,2018-12-10 16:10:41.105962,0:00:03.953226,3,right,1,0.23379847492037698,22,f,1,23,2018_Dec_10_1557,MP_PerceptionTuring2,59.96043390873272,
124,resources/videos_generated\model(vcgpdm)-dataset(walking)-mode(ELBO)-parts(2)-dyn(28)-lvm(21)_final(9).mov,resources/videos_natural\training(41).mov,True,True,left,0,123,123,123,2018-12-10 16:10:42.457039,2018-12-10 16:10:46.377264,0:00:03.920225,3,left,1,0.35061263101397344,22,f,1,23,2018_Dec_10_1557,MP_PerceptionTuring2,59.96043390873272,
125,resources/videos_generated\model(vcgpdm)-dataset(walking)-mode(ELBO)-parts(1)-dyn(27)-lvm(22)_final(9).mov,resources/videos_natural\training(18).mov,True,True,left,0,124,124,124,2018-12-10 16:10:47.845348,2018-12-10 16:10:51.714569,0:00:03.869221,3,left,1,0.4339291237583893,22,f,1,23,2018_Dec_10_1557,MP_PerceptionTuring2,59.96043390873272,
126,resources/videos_generated\model(vcgpdm)-dataset(walking)-mode(ELBO)-parts(2)-dyn(24)-lvm(21)_final(1).mov,resources/videos_natural\training(5).mov,False,True,left,0,125,125,125,2018-12-10 16:10:53.266658,2018-12-10 16:10:57.202883,0:00:03.936225,3,left,1,0.30054171983624656,22,f,1,23,2018_Dec_10_1557,MP_PerceptionTuring2,59.96043390873272,
127,resources/videos_generated\model(tmp)-dataset(walking)-numprim(15)_final(6).mov,resources/videos_natural\training(20).mov,False,True,left,0,126,126,126,2018-12-10 16:10:58.620964,2018-12-10 16:11:02.591191,0:00:03.970227,3,left,1,0.31714147088678146,22,f,1,23,2018_Dec_10_1557,MP_PerceptionTuring2,59.96043390873272,
128,resources/videos_generated\model(vcgpdm)-dataset(walking)-mode(ELBO)-parts(1)-dyn(23)-lvm(28)_final(8).mov,resources/videos_natural\training(7).mov,False,False,right,0,127,127,127,2018-12-10 16:11:04.025273,2018-12-10 16:11:08.079505,0:00:04.054232,3,right,1,0.30056581367466606,22,f,1,23,2018_Dec_10_1557,MP_PerceptionTuring2,59.96043390873272,
129,resources/videos_generated\model(vcgpdm)-dataset(walking)-mode(ELBO)-parts(1)-dyn(26)-lvm(23)_final(1).mov,resources/videos_natural\training(40).mov,False,False,right,0,128,128,128,2018-12-10 16:11:09.496586,2018-12-10 16:11:13.533817,0:00:04.037231,3,right,1,0.2505650758007505,22,f,1,23,2018_Dec_10_1557,MP_PerceptionTuring2,59.96043390873272,
130,resources/videos_generated\model(dmp)-dataset(walking)-npsi(70)_final(8).mov,resources/videos_natural\training(32).mov,True,False,right,0,129,129,129,2018-12-10 16:11:14.901895,2018-12-10 16:11:18.855121,0:00:03.953226,3,left,0,0.333914998745513,22,f,1,23,2018_Dec_10_1557,MP_PerceptionTuring2,59.96043390873272,
131,resources/videos_generated\model(vcgpdm)-dataset(walking)-mode(ELBO)-parts(1)-dyn(22)-lvm(25)_final(8).mov,resources/videos_natural\training(41).mov,True,False,right,0,130,130,130,2018-12-10 16:11:20.306204,2018-12-10 16:11:24.226429,0:00:03.920225,3,right,1,0.4339053310930012,22,f,1,23,2018_Dec_10_1557,MP_PerceptionTuring2,59.96043390873272,
132,resources/videos_generated\model(vcgpdm)-dataset(walking)-mode(ELBO)-parts(1)-dyn(24)-lvm(23)_final(0).mov,resources/videos_natural\training(12).mov,False,False,right,0,131,131,131,2018-12-10 16:11:25.777517,2018-12-10 16:11:29.697742,0:00:03.920225,3,right,1,0.21715866786371407,22,f,1,23,2018_Dec_10_1557,MP_PerceptionTuring2,59.96043390873272,
133,resources/videos_generated\model(dmp)-dataset(walking)-npsi(50)_final(4).mov,resources/videos_natural\training(2).mov,True,True,left,0,132,132,132,2018-12-10 16:11:31.031818,2018-12-10 16:11:34.952042,0:00:03.920224,3,left,1,0.2671380224562654,22,f,1,23,2018_Dec_10_1557,MP_PerceptionTuring2,59.96043390873272,
134,resources/videos_generated\model(vcgpdm)-dataset(walking)-mode(ELBO)-parts(1)-dyn(23)-lvm(22)_final(1)_fail.mov,resources/videos_natural\training(30).mov,False,False,right,0,133,133,133,2018-12-10 16:11:36.337121,2018-12-10 16:11:40.273346,0:00:03.936225,3,right,1,0.36656726954470287,22,f,1,23,2018_Dec_10_1557,MP_PerceptionTuring2,59.96043390873272,
135,resources/videos_generated\model(vcgpdm)-dataset(walking)-mode(ELBO)-parts(1)-dyn(25)-lvm(24)_final(1).mov,resources/videos_natural\training(25).mov,False,True,left,0,134,134,134,2018-12-10 16:11:41.758431,2018-12-10 16:11:45.678656,0:00:03.920225,3,right,0,0.30053810576055184,22,f,1,23,2018_Dec_10_1557,MP_PerceptionTuring2,59.96043390873272,
136,resources/videos_generated\model(vcgpdm)-dataset(walking)-mode(ELBO)-parts(1)-dyn(24)-lvm(27)_final(8).mov,resources/videos_natural\training(32).mov,False,True,left,0,135,135,135,2018-12-10 16:12:19.340581,2018-12-10 16:12:23.293807,0:00:03.953226,4,left,1,0.2504244280198691,22,f,1,23,2018_Dec_10_1557,MP_PerceptionTuring2,59.96043390873272,
137,resources/videos_generated\model(vcgpdm)-dataset(walking)-mode(ELBO)-parts(1)-dyn(22)-lvm(27)_final(0)_hip-correted.mov,resources/videos_natural\training(23).mov,False,True,left,0,136,136,136,2018-12-10 16:12:24.661885,2018-12-10 16:12:28.749119,0:00:04.087234,4,left,1,0.43396616803465804,22,f,1,23,2018_Dec_10_1557,MP_PerceptionTuring2,59.96043390873272,
138,resources/videos_generated\model(vcgpdm)-dataset(walking)-mode(ELBO)-parts(1)-dyn(27)-lvm(26)_final(9).mov,resources/videos_natural\training(17).mov,False,True,left,0,137,137,137,2018-12-10 16:12:30.300208,2018-12-10 16:12:34.403442,0:00:04.103234,4,left,1,0.6510106913397067,22,f,1,23,2018_Dec_10_1557,MP_PerceptionTuring2,59.96043390873272,
139,resources/videos_generated\model(vcgpdm)-dataset(walking)-mode(ELBO)-parts(2)-dyn(27)-lvm(22)_final(9).mov,resources/videos_natural\training(39).mov,False,False,right,0,138,138,138,2018-12-10 16:12:36.171544,2018-12-10 16:12:40.108769,0:00:03.937225,4,left,0,0.3838630313482554,22,f,1,23,2018_Dec_10_1557,MP_PerceptionTuring2,59.96043390873272,
140,resources/videos_generated\model(vcgpdm)-dataset(walking)-mode(ELBO)-parts(1)-dyn(25)-lvm(28)_final(0).mov,resources/videos_natural\training(47).mov,True,True,left,0,139,139,139,2018-12-10 16:12:41.609855,2018-12-10 16:12:45.513078,0:00:03.903223,4,left,1,0.25044310074440546,22,f,1,23,2018_Dec_10_1557,MP_PerceptionTuring2,59.96043390873272,
141,resources/videos_generated\model(vcgpdm)-dataset(walking)-mode(ELBO)-parts(2)-dyn(22)-lvm(21)_final(1).mov,resources/videos_natural\training(28).mov,True,False,right,0,140,140,140,2018-12-10 16:12:46.881156,2018-12-10 16:12:50.818381,0:00:03.937225,4,left,0,0.3172050183850388,22,f,1,23,2018_Dec_10_1557,MP_PerceptionTuring2,59.96043390873272,
142,resources/videos_generated\model(vcgpdm)-dataset(walking)-mode(ELBO)-parts(2)-dyn(22)-lvm(19)_final(3).mov,resources/videos_natural\training(15).mov,False,False,right,0,141,141,141,2018-12-10 16:12:52.252463,2018-12-10 16:12:56.372699,0:00:04.120236,4,right,1,0.7507377985039057,22,f,1,23,2018_Dec_10_1557,MP_PerceptionTuring2,59.96043390873272,
143,resources/videos_generated\model(vcgpdm)-dataset(walking)-mode(ELBO)-parts(2)-dyn(22)-lvm(23)_final(1).mov,resources/videos_natural\training(34).mov,True,False,right,0,142,142,142,2018-12-10 16:12:58.240806,2018-12-10 16:13:02.144029,0:00:03.903223,4,right,1,0.40055072490827115,22,f,1,23,2018_Dec_10_1557,MP_PerceptionTuring2,59.96043390873272,
144,resources/videos_generated\model(vcgpdm)-dataset(walking)-mode(ELBO)-parts(1)-dyn(26)-lvm(23)_final(5).mov,resources/videos_natural\training(38).mov,True,True,left,0,143,143,143,2018-12-10 16:13:03.662116,2018-12-10 16:13:07.732349,0:00:04.070233,4,left,1,0.50066785107947,22,f,1,23,2018_Dec_10_1557,MP_PerceptionTuring2,59.96043390873272,
145,resources/videos_generated\model(vcgpdm)-dataset(walking)-mode(ELBO)-parts(1)-dyn(23)-lvm(24)_final(9).mov,resources/videos_natural\training(41).mov,False,False,right,0,144,144,144,2018-12-10 16:13:09.350441,2018-12-10 16:13:13.437675,0:00:04.087234,4,right,1,0.31718755035240065,22,f,1,23,2018_Dec_10_1557,MP_PerceptionTuring2,59.96043390873272,
146,resources/videos_generated\model(vcgpdm)-dataset(walking)-mode(ELBO)-parts(2)-dyn(25)-lvm(20)_final(5).mov,resources/videos_natural\training(37).mov,True,True,left,0,145,145,145,2018-12-10 16:13:14.871757,2018-12-10 16:13:18.791981,0:00:03.920224,4,left,1,0.26722566379271484,22,f,1,23,2018_Dec_10_1557,MP_PerceptionTuring2,59.96043390873272,
147,resources/videos_generated\model(vcgpdm)-dataset(walking)-mode(ELBO)-parts(1)-dyn(28)-lvm(23)_final(9).mov,resources/videos_natural\training(22).mov,False,False,right,0,146,146,146,2018-12-10 16:13:20.177061,2018-12-10 16:13:24.130287,0:00:03.953226,4,right,1,0.3503334436629757,22,f,1,23,2018_Dec_10_1557,MP_PerceptionTuring2,59.96043390873272,
148,resources/videos_generated\model(vcgpdm)-dataset(walking)-mode(ELBO)-parts(1)-dyn(26)-lvm(25)_final(5).mov,resources/videos_natural\training(31).mov,True,True,left,0,147,147,147,2018-12-10 16:13:25.598371,2018-12-10 16:13:29.684604,0:00:04.086233,4,left,1,0.26706995736299177,22,f,1,23,2018_Dec_10_1557,MP_PerceptionTuring2,59.96043390873272,
149,resources/videos_generated\model(vcgpdm)-dataset(walking)-mode(ELBO)-parts(1)-dyn(25)-lvm(22)_final(4).mov,resources/videos_natural\training(12).mov,True,False,right,0,148,148,148,2018-12-10 16:13:31.069684,2018-12-10 16:13:35.089914,0:00:04.020230,4,right,1,0.5006759827499536,22,f,1,23,2018_Dec_10_1557,MP_PerceptionTuring2,59.96043390873272,
150,resources/videos_generated\model(vcgpdm)-dataset(walking)-mode(ELBO)-parts(1)-dyn(25)-lvm(22)_final(8).mov,resources/videos_natural\training(44).mov,True,True,left,0,149,149,149,2018-12-10 16:13:36.708006,2018-12-10 16:13:40.778239,0:00:04.070233,4,left,1,0.25047622977217543,22,f,1,23,2018_Dec_10_1557,MP_PerceptionTuring2,59.96043390873272,
151,resources/videos_generated\model(vcgpdm)-dataset(walking)-mode(ELBO)-parts(1)-dyn(27)-lvm(22)_final(7).mov,resources/videos_natural\training(14).mov,True,True,left,0,150,150,150,2018-12-10 16:13:42.145317,2018-12-10 16:13:46.215550,0:00:04.070233,4,left,1,0.2504711098315511,22,f,1,23,2018_Dec_10_1557,MP_PerceptionTuring2,59.96043390873272,
152,resources/videos_generated\model(vcgpdm)-dataset(walking)-mode(ELBO)-parts(2)-dyn(23)-lvm(18)_final(7).mov,resources/videos_natural\training(29).mov,False,False,right,0,151,151,151,2018-12-10 16:13:47.583628,2018-12-10 16:13:51.486851,0:00:03.903223,4,right,1,0.283913357352958,22,f,1,23,2018_Dec_10_1557,MP_PerceptionTuring2,59.96043390873272,
153,resources/videos_generated\model(vcgpdm)-dataset(walking)-mode(ELBO)-parts(1)-dyn(25)-lvm(23)_final(7).mov,resources/videos_natural\training(44).mov,False,False,right,0,152,152,152,2018-12-10 16:13:52.887932,2018-12-10 16:13:57.009167,0:00:04.121235,4,left,0,0.6507833057407879,22,f,1,23,2018_Dec_10_1557,MP_PerceptionTuring2,59.96043390873272,
154,resources/videos_generated\model(vcgpdm)-dataset(walking)-mode(ELBO)-parts(2)-dyn(26)-lvm(19)_final(7).mov,resources/videos_natural\training(16).mov,False,False,right,0,153,153,153,2018-12-10 16:13:58.777268,2018-12-10 16:14:02.696493,0:00:03.919225,4,right,1,0.2837696978422173,22,f,1,23,2018_Dec_10_1557,MP_PerceptionTuring2,59.96043390873272,
155,resources/videos_generated\model(dmp)-dataset(walking)-npsi(60)_final(4).mov,resources/videos_natural\training(28).mov,True,False,right,0,154,154,154,2018-12-10 16:14:04.097573,2018-12-10 16:14:08.151805,0:00:04.054232,4,left,0,0.2670952558933095,22,f,1,23,2018_Dec_10_1557,MP_PerceptionTuring2,59.96043390873272,
156,resources/videos_generated\model(vcgpdm)-dataset(walking)-mode(ELBO)-parts(2)-dyn(27)-lvm(18)_final(1).mov,resources/videos_natural\training(26).mov,True,True,left,0,155,155,155,2018-12-10 16:14:09.535884,2018-12-10 16:14:13.506111,0:00:03.970227,4,right,0,0.30038330284946824,22,f,1,23,2018_Dec_10_1557,MP_PerceptionTuring2,59.96043390873272,
157,resources/videos_generated\model(tmp)-dataset(walking)-numprim(14)_final(4).mov,resources/videos_natural\training(10).mov,True,False,right,0,156,156,156,2018-12-10 16:14:14.924192,2018-12-10 16:14:18.827415,0:00:03.903223,4,left,0,0.2171327669875609,22,f,1,23,2018_Dec_10_1557,MP_PerceptionTuring2,59.96043390873272,
158,resources/videos_generated\model(vcgpdm)-dataset(walking)-mode(ELBO)-parts(2)-dyn(28)-lvm(19)_final(9).mov,resources/videos_natural\training(7).mov,True,True,left,0,157,157,157,2018-12-10 16:14:20.162492,2018-12-10 16:14:24.231724,0:00:04.069232,4,right,0,0.2838597485626906,22,f,1,23,2018_Dec_10_1557,MP_PerceptionTuring2,59.96043390873272,
159,resources/videos_generated\model(vcgpdm)-dataset(walking)-mode(ELBO)-parts(2)-dyn(22)-lvm(17)_final(3).mov,resources/videos_natural\training(43).mov,True,False,right,0,158,158,158,2018-12-10 16:14:25.633804,2018-12-10 16:14:29.553029,0:00:03.919225,4,right,1,0.3337951319003878,22,f,1,23,2018_Dec_10_1557,MP_PerceptionTuring2,59.96043390873272,
160,resources/videos_generated\model(vcgpdm)-dataset(walking)-mode(ELBO)-parts(2)-dyn(25)-lvm(22)_final(7).mov,resources/videos_natural\training(48).mov,False,True,left,0,159,159,159,2018-12-10 16:14:31.005112,2018-12-10 16:14:34.924336,0:00:03.919224,4,right,0,0.333894820156047,22,f,1,23,2018_Dec_10_1557,MP_PerceptionTuring2,59.96043390873272,
161,resources/videos_generated\model(vcgpdm)-dataset(walking)-mode(ELBO)-parts(2)-dyn(23)-lvm(20)_final(3).mov,resources/videos_natural\training(37).mov,True,False,right,0,160,160,160,2018-12-10 16:14:36.376419,2018-12-10 16:14:40.379648,0:00:04.003229,4,right,1,0.2671079051581273,22,f,1,23,2018_Dec_10_1557,MP_PerceptionTuring2,59.96043390873272,
162,resources/videos_generated\model(dmp)-dataset(walking)-npsi(100)_final(6).mov,resources/videos_natural\training(7).mov,True,True,left,0,161,161,161,2018-12-10 16:14:41.763727,2018-12-10 16:14:45.700952,0:00:03.937225,4,left,1,0.2004634449790501,22,f,1,23,2018_Dec_10_1557,MP_PerceptionTuring2,59.96043390873272,
163,resources/videos_generated\model(dmp)-dataset(walking)-npsi(70)_final(0).mov,resources/videos_natural\training(18).mov,False,True,left,0,162,162,162,2018-12-10 16:14:47.018028,2018-12-10 16:14:50.988255,0:00:03.970227,4,right,0,0.28375825326907034,22,f,1,23,2018_Dec_10_1557,MP_PerceptionTuring2,59.96043390873272,
164,resources/videos_generated\model(vcgpdm)-dataset(walking)-mode(ELBO)-parts(1)-dyn(27)-lvm(22)_final(1).mov,resources/videos_natural\training(47).mov,False,True,left,0,163,163,163,2018-12-10 16:14:52.390335,2018-12-10 16:14:56.459568,0:00:04.069233,4,right,0,0.33409841308957766,22,f,1,23,2018_Dec_10_1557,MP_PerceptionTuring2,59.96043390873272,
165,resources/videos_generated\model(vcgpdm)-dataset(walking)-mode(ELBO)-parts(1)-dyn(25)-lvm(22)_final(2).mov,resources/videos_natural\training(21).mov,False,True,left,0,164,164,164,2018-12-10 16:14:57.911651,2018-12-10 16:15:01.831875,0:00:03.920224,4,left,1,0.2837564462311093,22,f,1,23,2018_Dec_10_1557,MP_PerceptionTuring2,59.96043390873272,
166,resources/videos_generated\model(dmp)-dataset(walking)-npsi(100)_final(2).mov,resources/videos_natural\training(8).mov,True,False,right,0,165,165,165,2018-12-10 16:15:03.232955,2018-12-10 16:15:07.119177,0:00:03.886222,4,right,1,0.28386486850331494,22,f,1,23,2018_Dec_10_1557,MP_PerceptionTuring2,59.96043390873272,
167,resources/videos_generated\model(dmp)-dataset(walking)-npsi(60)_final(8).mov,resources/videos_natural\training(15).mov,True,True,left,0,166,166,166,2018-12-10 16:15:08.520257,2018-12-10 16:15:12.657494,0:00:04.137237,4,left,1,0.36732231020164363,22,f,1,23,2018_Dec_10_1557,MP_PerceptionTuring2,59.96043390873272,
168,resources/videos_generated\model(vcgpdm)-dataset(walking)-mode(ELBO)-parts(1)-dyn(23)-lvm(28)_final(0).mov,resources/videos_natural\training(23).mov,True,True,left,0,167,167,167,2018-12-10 16:15:14.141579,2018-12-10 16:15:18.111806,0:00:03.970227,4,left,1,0.41703663257294465,22,f,1,23,2018_Dec_10_1557,MP_PerceptionTuring2,59.96043390873272,
169,resources/videos_generated\model(vcgpdm)-dataset(walking)-mode(ELBO)-parts(2)-dyn(23)-lvm(20)_final(5).mov,resources/videos_natural\training(4).mov,True,False,right,0,168,168,168,2018-12-10 16:15:19.646894,2018-12-10 16:15:23.567118,0:00:03.920224,4,right,1,0.5173483164880963,22,f,1,23,2018_Dec_10_1557,MP_PerceptionTuring2,59.96043390873272,
170,resources/videos_generated\model(vcgpdm)-dataset(walking)-mode(ELBO)-parts(1)-dyn(28)-lvm(25)_final(5).mov,resources/videos_natural\training(23).mov,False,False,right,0,169,169,169,2018-12-10 16:15:25.201212,2018-12-10 16:15:29.121436,0:00:03.920224,4,right,1,0.38383863633703186,22,f,1,23,2018_Dec_10_1557,MP_PerceptionTuring2,59.96043390873272,
171,resources/videos_generated\model(vcgpdm)-dataset(walking)-mode(ELBO)-parts(1)-dyn(24)-lvm(25)_final(6).mov,resources/videos_natural\training(37).mov,True,False,right,0,170,170,170,2018-12-10 16:15:30.622522,2018-12-10 16:15:34.542746,0:00:03.920224,4,left,0,0.2839245007530735,22,f,1,23,2018_Dec_10_1557,MP_PerceptionTuring2,59.96043390873272,
172,resources/videos_generated\model(vcgpdm)-dataset(walking)-mode(ELBO)-parts(2)-dyn(22)-lvm(17)_final(1).mov,resources/videos_natural\training(38).mov,True,False,right,0,171,171,171,2018-12-10 16:15:35.943826,2018-12-10 16:15:39.998058,0:00:04.054232,4,right,1,0.4338815384276131,22,f,1,23,2018_Dec_10_1557,MP_PerceptionTuring2,59.96043390873272,
173,resources/videos_generated\model(vcgpdm)-dataset(walking)-mode(ELBO)-parts(2)-dyn(22)-lvm(21)_final(9).mov,resources/videos_natural\training(34).mov,False,True,left,0,172,172,172,2018-12-10 16:15:41.549147,2018-12-10 16:15:45.469371,0:00:03.920224,4,left,1,0.26704977877352576,22,f,1,23,2018_Dec_10_1557,MP_PerceptionTuring2,59.96043390873272,
174,resources/videos_generated\model(vcgpdm)-dataset(walking)-mode(ELBO)-parts(2)-dyn(22)-lvm(21)_final(3).mov,resources/videos_natural\training(2).mov,False,False,right,0,173,173,173,2018-12-10 16:15:46.853450,2018-12-10 16:15:50.756673,0:00:03.903223,4,right,1,0.25042954796026606,22,f,1,23,2018_Dec_10_1557,MP_PerceptionTuring2,59.96043390873272,
175,resources/videos_generated\model(vcgpdm)-dataset(walking)-mode(ELBO)-parts(2)-dyn(22)-lvm(19)_final(7).mov,resources/videos_natural\training(16).mov,False,False,right,0,174,174,174,2018-12-10 16:15:52.124751,2018-12-10 16:15:56.061977,0:00:03.937226,4,right,1,0.38386845246191115,22,f,1,23,2018_Dec_10_1557,MP_PerceptionTuring2,59.96043390873272,
176,resources/videos_generated\model(tmp)-dataset(walking)-numprim(13)_final(4).mov,resources/videos_natural\training(42).mov,True,True,left,0,175,175,175,2018-12-10 16:15:57.563063,2018-12-10 16:16:01.666297,0:00:04.103234,4,left,1,0.2505313444271451,22,f,1,23,2018_Dec_10_1557,MP_PerceptionTuring2,59.96043390873272,
177,resources/videos_generated\model(tmp)-dataset(walking)-numprim(13)_final(8).mov,resources/videos_natural\training(2).mov,False,False,right,0,176,176,176,2018-12-10 16:16:03.034375,2018-12-10 16:16:07.137610,0:00:04.103235,4,right,1,0.28385884504382375,22,f,1,23,2018_Dec_10_1557,MP_PerceptionTuring2,59.96043390873272,
178,resources/videos_generated\model(vcgpdm)-dataset(walking)-mode(ELBO)-parts(1)-dyn(23)-lvm(24)_final(1).mov,resources/videos_natural\training(38).mov,False,False,right,0,177,177,177,2018-12-10 16:16:08.538690,2018-12-10 16:16:12.592922,0:00:04.054232,4,right,1,0.5172197156264247,22,f,1,23,2018_Dec_10_1557,MP_PerceptionTuring2,59.96043390873272,
179,resources/videos_generated\model(vcgpdm)-dataset(walking)-mode(ELBO)-parts(1)-dyn(28)-lvm(23)_final(5).mov,resources/videos_natural\training(16).mov,True,True,left,0,178,178,178,2018-12-10 16:16:14.227016,2018-12-10 16:16:18.197243,0:00:03.970227,4,left,1,0.6009196015722864,22,f,1,23,2018_Dec_10_1557,MP_PerceptionTuring2,59.96043390873272,
180,resources/videos_generated\model(vcgpdm)-dataset(walking)-mode(ELBO)-parts(1)-dyn(22)-lvm(23)_final(8).mov,resources/videos_natural\training(25).mov,False,True,left,0,179,179,179,2018-12-10 16:16:19.915341,2018-12-10 16:16:23.818564,0:00:03.903223,4,right,0,0.31722037820691185,22,f,1,23,2018_Dec_10_1557,MP_PerceptionTuring2,59.96043390873272,
181,resources/videos_generated\model(tmp)-dataset(walking)-numprim(15)_final(4).mov,resources/videos_natural\training(43).mov,True,False,right,0,180,180,180,2018-12-10 16:16:58.148528,2018-12-10 16:17:02.085753,0:00:03.937225,5,left,0,0.26702960018383237,22,f,1,23,2018_Dec_10_1557,MP_PerceptionTuring2,59.96043390873272,
182,resources/videos_generated\model(vcgpdm)-dataset(walking)-mode(ELBO)-parts(2)-dyn(28)-lvm(17)_final(7).mov,resources/videos_natural\training(15).mov,True,True,left,0,181,181,181,2018-12-10 16:17:03.469832,2018-12-10 16:17:07.573067,0:00:04.103235,5,left,1,0.45125470168682114,22,f,1,23,2018_Dec_10_1557,MP_PerceptionTuring2,59.96043390873272,
183,resources/videos_generated\model(dmp)-dataset(walking)-npsi(70)_final(4).mov,resources/videos_natural\training(11).mov,False,False,right,0,182,182,182,2018-12-10 16:17:09.141157,2018-12-10 16:17:13.111384,0:00:03.970227,5,right,1,0.2336813186316249,22,f,1,23,2018_Dec_10_1557,MP_PerceptionTuring2,59.96043390873272,
184,resources/videos_generated\model(vcgpdm)-dataset(walking)-mode(ELBO)-parts(1)-dyn(24)-lvm(27)_final(0).mov,resources/videos_natural\training(21).mov,True,True,left,0,183,183,183,2018-12-10 16:17:14.462461,2018-12-10 16:17:18.432688,0:00:03.970227,5,left,1,0.2672747549881933,22,f,1,23,2018_Dec_10_1557,MP_PerceptionTuring2,59.96043390873272,
185,resources/videos_generated\model(vcgpdm)-dataset(walking)-mode(ELBO)-parts(2)-dyn(27)-lvm(18)_final(7).mov,resources/videos_natural\training(42).mov,True,False,right,0,184,184,184,2018-12-10 16:17:19.817767,2018-12-10 16:17:23.904001,0:00:04.086234,5,right,1,0.20040561976725257,22,f,1,23,2018_Dec_10_1557,MP_PerceptionTuring2,59.96043390873272,
186,resources/videos_generated\model(vcgpdm)-dataset(walking)-mode(ELBO)-parts(2)-dyn(26)-lvm(23)_final(5).mov,resources/videos_natural\training(33).mov,True,True,left,0,185,185,185,2018-12-10 16:17:25.222076,2018-12-10 16:17:29.125300,0:00:03.903224,5,left,1,0.26720006408959307,22,f,1,23,2018_Dec_10_1557,MP_PerceptionTuring2,59.96043390873272,
187,resources/videos_generated\model(vcgpdm)-dataset(walking)-mode(ELBO)-parts(2)-dyn(26)-lvm(23)_final(7).mov,resources/videos_natural\training(44).mov,False,False,right,0,186,186,186,2018-12-10 16:17:30.509379,2018-12-10 16:17:34.413602,0:00:03.904223,5,right,1,0.28374108640923623,22,f,1,23,2018_Dec_10_1557,MP_PerceptionTuring2,59.96043390873272,
188,resources/videos_generated\model(vcgpdm)-dataset(walking)-mode(ELBO)-parts(1)-dyn(28)-lvm(25)_final(3).mov,resources/videos_natural\training(1).mov,True,False,right,0,187,187,187,2018-12-10 16:17:35.814682,2018-12-10 16:17:39.767908,0:00:03.953226,5,right,1,0.5840195810624209,22,f,1,23,2018_Dec_10_1557,MP_PerceptionTuring2,59.96043390873272,
189,resources/videos_generated\model(vcgpdm)-dataset(walking)-mode(ELBO)-parts(1)-dyn(25)-lvm(26)_final(0).mov,resources/videos_natural\training(21).mov,True,False,right,0,188,188,188,2018-12-10 16:17:41.469006,2018-12-10 16:17:45.556239,0:00:04.087233,5,left,0,0.6507218664532957,22,f,1,23,2018_Dec_10_1557,MP_PerceptionTuring2,59.96043390873272,
190,resources/videos_generated\model(vcgpdm)-dataset(walking)-mode(ELBO)-parts(2)-dyn(25)-lvm(18)_final(9).mov,resources/videos_natural\training(34).mov,False,False,right,0,189,189,189,2018-12-10 16:17:47.324341,2018-12-10 16:17:51.227564,0:00:03.903223,5,right,1,0.28372120899257425,22,f,1,23,2018_Dec_10_1557,MP_PerceptionTuring2,59.96043390873272,
191,resources/videos_generated\model(vcgpdm)-dataset(walking)-mode(ELBO)-parts(1)-dyn(22)-lvm(25)_final(0).mov,resources/videos_natural\training(25).mov,False,True,left,0,190,190,190,2018-12-10 16:17:52.628644,2018-12-10 16:17:56.698877,0:00:04.070233,5,left,1,0.40068775861345785,22,f,1,23,2018_Dec_10_1557,MP_PerceptionTuring2,59.96043390873272,
192,resources/videos_generated\model(dmp)-dataset(walking)-npsi(100)_final(4).mov,resources/videos_natural\training(6).mov,False,False,right,0,191,191,191,2018-12-10 16:17:58.216964,2018-12-10 16:18:02.171190,0:00:03.954226,5,left,0,0.6675664711351601,22,f,1,23,2018_Dec_10_1557,MP_PerceptionTuring2,59.96043390873272,
193,resources/videos_generated\model(vcgpdm)-dataset(walking)-mode(ELBO)-parts(1)-dyn(24)-lvm(23)_final(4)_fail.mov,resources/videos_natural\training(1).mov,False,False,right,0,192,192,192,2018-12-10 16:18:03.955292,2018-12-10 16:18:07.875516,0:00:03.920224,5,right,1,0.33375597941289925,22,f,1,23,2018_Dec_10_1557,MP_PerceptionTuring2,59.96043390873272,
194,resources/videos_generated\model(vcgpdm)-dataset(walking)-mode(ELBO)-parts(2)-dyn(28)-lvm(23)_final(7).mov,resources/videos_natural\training(11).mov,True,True,left,0,193,193,193,2018-12-10 16:18:09.326599,2018-12-10 16:18:13.296826,0:00:03.970227,5,right,0,0.23381112418519479,22,f,1,23,2018_Dec_10_1557,MP_PerceptionTuring2,59.96043390873272,
195,resources/videos_generated\model(vcgpdm)-dataset(walking)-mode(ELBO)-parts(1)-dyn(26)-lvm(25)_final(7).mov,resources/videos_natural\training(4).mov,True,False,right,0,194,194,194,2018-12-10 16:18:14.647903,2018-12-10 16:18:18.668133,0:00:04.020230,5,right,1,0.4163050834083606,22,f,1,23,2018_Dec_10_1557,MP_PerceptionTuring2,59.96043390873272,
196,resources/videos_generated\model(vcgpdm)-dataset(walking)-mode(ELBO)-parts(2)-dyn(28)-lvm(17)_final(5).mov,resources/videos_natural\training(9).mov,False,False,right,0,195,195,195,2018-12-10 16:18:20.203221,2018-12-10 16:18:24.123445,0:00:03.920224,5,left,0,0.4506240454697945,22,f,1,23,2018_Dec_10_1557,MP_PerceptionTuring2,59.96043390873272,
197,resources/videos_generated\model(tmp)-dataset(walking)-numprim(11)_final(6).mov,resources/videos_natural\training(17).mov,True,True,left,0,196,196,196,2018-12-10 16:18:25.690535,2018-12-10 16:18:29.644761,0:00:03.954226,5,right,0,0.3006097849292928,22,f,1,23,2018_Dec_10_1557,MP_PerceptionTuring2,59.96043390873272,
198,resources/videos_generated\model(dmp)-dataset(walking)-npsi(90)_final(2).mov,resources/videos_natural\training(40).mov,True,True,left,0,197,197,197,2018-12-10 16:18:31.062842,2018-12-10 16:18:35.132075,0:00:04.069233,5,right,0,0.33393788789203427,22,f,1,23,2018_Dec_10_1557,MP_PerceptionTuring2,59.96043390873272,
199,resources/videos_generated\model(vcgpdm)-dataset(walking)-mode(ELBO)-parts(2)-dyn(26)-lvm(23)_final(1).mov,resources/videos_natural\training(21).mov,False,True,left,0,198,198,198,2018-12-10 16:18:36.584158,2018-12-10 16:18:40.554385,0:00:03.970227,5,left,1,0.2838130667510086,22,f,1,23,2018_Dec_10_1557,MP_PerceptionTuring2,59.96043390873272,
200,resources/videos_generated\model(vcgpdm)-dataset(walking)-mode(ELBO)-parts(1)-dyn(27)-lvm(26)_final(3).mov,resources/videos_natural\training(35).mov,False,False,right,0,199,199,199,2018-12-10 16:18:41.955465,2018-12-10 16:18:45.891690,0:00:03.936225,5,right,1,0.2837299430088933,22,f,1,23,2018_Dec_10_1557,MP_PerceptionTuring2,59.96043390873272,
201,resources/videos_generated\model(vcgpdm)-dataset(walking)-mode(ELBO)-parts(1)-dyn(25)-lvm(24)_final(5).mov,resources/videos_natural\training(15).mov,True,False,right,0,200,200,200,2018-12-10 16:18:47.292771,2018-12-10 16:18:51.330001,0:00:04.037230,5,right,1,0.3007835617377168,22,f,1,23,2018_Dec_10_1557,MP_PerceptionTuring2,59.96043390873272,
202,resources/videos_generated\model(vcgpdm)-dataset(walking)-mode(ELBO)-parts(2)-dyn(22)-lvm(23)_final(7).mov,resources/videos_natural\training(8).mov,False,True,left,0,201,201,201,2018-12-10 16:18:52.748083,2018-12-10 16:18:56.668307,0:00:03.920224,5,left,1,0.2171722206476261,22,f,1,23,2018_Dec_10_1557,MP_PerceptionTuring2,59.96043390873272,
203,resources/videos_generated\model(vcgpdm)-dataset(walking)-mode(ELBO)-parts(1)-dyn(26)-lvm(22)_final(0).mov,resources/videos_natural\training(35).mov,True,True,left,0,202,202,202,2018-12-10 16:18:58.002383,2018-12-10 16:19:02.122619,0:00:04.120236,5,left,1,0.41720619295961114,22,f,1,23,2018_Dec_10_1557,MP_PerceptionTuring2,59.96043390873272,
204,resources/videos_generated\model(dmp)-dataset(walking)-npsi(70)_final(6).mov,resources/videos_natural\training(20).mov,True,False,right,0,203,203,203,2018-12-10 16:19:03.656706,2018-12-10 16:19:07.560930,0:00:03.904224,5,left,0,0.3172288110504269,22,f,1,23,2018_Dec_10_1557,MP_PerceptionTuring2,59.96043390873272,
205,resources/videos_generated\model(vcgpdm)-dataset(walking)-mode(ELBO)-parts(1)-dyn(24)-lvm(23)_final(2).mov,resources/videos_natural\training(46).mov,False,False,right,0,204,204,204,2018-12-10 16:19:08.995012,2018-12-10 16:19:13.082246,0:00:04.087234,5,right,1,0.25049339663178216,22,f,1,23,2018_Dec_10_1557,MP_PerceptionTuring2,59.96043390873272,
206,resources/videos_generated\model(vcgpdm)-dataset(walking)-mode(ELBO)-parts(1)-dyn(23)-lvm(26)_final(1)_hip-corrected.mov,resources/videos_natural\training(7).mov,True,False,right,0,205,205,205,2018-12-10 16:19:14.449324,2018-12-10 16:19:18.403550,0:00:03.954226,5,right,1,0.36729942105512237,22,f,1,23,2018_Dec_10_1557,MP_PerceptionTuring2,59.96043390873272,
207,resources/videos_generated\model(vcgpdm)-dataset(walking)-mode(ELBO)-parts(2)-dyn(25)-lvm(18)_final(5).mov,resources/videos_natural\training(29).mov,True,True,left,0,206,206,206,2018-12-10 16:19:19.887635,2018-12-10 16:19:23.824860,0:00:03.937225,5,left,1,0.30047094418637244,22,f,1,23,2018_Dec_10_1557,MP_PerceptionTuring2,59.96043390873272,
208,resources/videos_generated\model(vcgpdm)-dataset(walking)-mode(ELBO)-parts(1)-dyn(27)-lvm(22)_final(3).mov,resources/videos_natural\training(41).mov,False,True,left,0,207,207,207,2018-12-10 16:19:25.242941,2018-12-10 16:19:29.162165,0:00:03.919224,5,right,0,0.35077104800075176,22,f,1,23,2018_Dec_10_1557,MP_PerceptionTuring2,59.96043390873272,
209,resources/videos_generated\model(vcgpdm)-dataset(walking)-mode(ELBO)-parts(1)-dyn(26)-lvm(27)_final(7).mov,resources/videos_natural\training(33).mov,True,True,left,0,208,208,208,2018-12-10 16:19:30.630249,2018-12-10 16:19:34.718483,0:00:04.088234,5,left,1,0.40177800479523285,22,f,1,23,2018_Dec_10_1557,MP_PerceptionTuring2,59.96043390873272,
210,resources/videos_generated\model(vcgpdm)-dataset(walking)-mode(ELBO)-parts(2)-dyn(26)-lvm(23)_final(3).mov,resources/videos_natural\training(15).mov,True,False,right,0,209,209,209,2018-12-10 16:19:36.235570,2018-12-10 16:19:40.188796,0:00:03.953226,5,right,1,0.23373372272999404,22,f,1,23,2018_Dec_10_1557,MP_PerceptionTuring2,59.96043390873272,
211,resources/videos_generated\model(vcgpdm)-dataset(walking)-mode(ELBO)-parts(1)-dyn(22)-lvm(22)_final(0).mov,resources/videos_natural\training(30).mov,True,True,left,0,210,210,210,2018-12-10 16:19:41.539873,2018-12-10 16:19:45.460097,0:00:03.920224,5,left,1,0.2839507028020307,22,f,1,23,2018_Dec_10_1557,MP_PerceptionTuring2,59.96043390873272,
212,resources/videos_generated\model(vcgpdm)-dataset(walking)-mode(ELBO)-parts(1)-dyn(27)-lvm(28)_final(3).mov,resources/videos_natural\training(1).mov,True,True,left,0,211,211,211,2018-12-10 16:19:46.861178,2018-12-10 16:19:50.998414,0:00:04.137236,5,left,1,0.30047184770523927,22,f,1,23,2018_Dec_10_1557,MP_PerceptionTuring2,59.96043390873272,
213,resources/videos_generated\model(vcgpdm)-dataset(walking)-mode(ELBO)-parts(2)-dyn(22)-lvm(21)_final(7).mov,resources/videos_natural\training(27).mov,True,False,right,0,212,212,212,2018-12-10 16:19:52.416495,2018-12-10 16:19:56.519730,0:00:04.103235,5,left,0,0.35061293218700484,22,f,1,23,2018_Dec_10_1557,MP_PerceptionTuring2,59.96043390873272,
214,resources/videos_generated\model(vcgpdm)-dataset(walking)-mode(ELBO)-parts(1)-dyn(22)-lvm(23)_final(4)_fail.mov,resources/videos_natural\training(36).mov,True,False,right,0,213,213,213,2018-12-10 16:19:57.987814,2018-12-10 16:20:01.908038,0:00:03.920224,5,right,1,0.3837452727134405,22,f,1,23,2018_Dec_10_1557,MP_PerceptionTuring2,59.96043390873272,
215,resources/videos_generated\model(vcgpdm)-dataset(walking)-mode(ELBO)-parts(1)-dyn(28)-lvm(23)_final(7).mov,resources/videos_natural\training(34).mov,True,True,left,0,214,214,214,2018-12-10 16:20:03.409124,2018-12-10 16:20:07.512359,0:00:04.103235,5,right,0,0.26721271335463825,22,f,1,23,2018_Dec_10_1557,MP_PerceptionTuring2,59.96043390873272,
216,resources/videos_generated\model(vcgpdm)-dataset(walking)-mode(ELBO)-parts(2)-dyn(26)-lvm(21)_final(7).mov,resources/videos_natural\training(45).mov,False,True,left,0,215,215,215,2018-12-10 16:20:08.896438,2018-12-10 16:20:12.833663,0:00:03.937225,5,left,1,0.4839361862646001,22,f,1,23,2018_Dec_10_1557,MP_PerceptionTuring2,59.96043390873272,
217,resources/videos_generated\model(vcgpdm)-dataset(walking)-mode(ELBO)-parts(1)-dyn(27)-lvm(26)_final(7).mov,resources/videos_natural\training(32).mov,True,True,left,0,216,216,216,2018-12-10 16:20:14.434755,2018-12-10 16:20:18.338978,0:00:03.904223,5,left,1,0.33399360489306673,22,f,1,23,2018_Dec_10_1557,MP_PerceptionTuring2,59.96043390873272,
218,resources/videos_generated\model(vcgpdm)-dataset(walking)-mode(ELBO)-parts(1)-dyn(26)-lvm(27)_final(5).mov,resources/videos_natural\training(12).mov,True,False,right,0,217,217,217,2018-12-10 16:20:19.790061,2018-12-10 16:20:23.726286,0:00:03.936225,5,left,0,0.3004366104667042,22,f,1,23,2018_Dec_10_1557,MP_PerceptionTuring2,59.96043390873272,
219,resources/videos_generated\model(vcgpdm)-dataset(walking)-mode(ELBO)-parts(2)-dyn(28)-lvm(23)_final(3).mov,resources/videos_natural\training(19).mov,True,True,left,0,218,218,218,2018-12-10 16:20:25.144367,2018-12-10 16:20:29.047591,0:00:03.903224,5,left,1,0.23371354414030066,22,f,1,23,2018_Dec_10_1557,MP_PerceptionTuring2,59.96043390873272,
220,resources/videos_generated\model(vcgpdm)-dataset(walking)-mode(ELBO)-parts(2)-dyn(25)-lvm(20)_final(9).mov,resources/videos_natural\training(5).mov,True,False,right,0,219,219,219,2018-12-10 16:20:30.398668,2018-12-10 16:20:34.351894,0:00:03.953226,5,left,0,0.33400053187142476,22,f,1,23,2018_Dec_10_1557,MP_PerceptionTuring2,59.96043390873272,
221,resources/videos_generated\model(vcgpdm)-dataset(walking)-mode(ELBO)-parts(2)-dyn(23)-lvm(20)_final(9).mov,resources/videos_natural\training(34).mov,False,False,right,0,220,220,220,2018-12-10 16:20:35.803977,2018-12-10 16:20:39.723201,0:00:03.919224,5,right,1,0.15061088421089153,22,f,1,23,2018_Dec_10_1557,MP_PerceptionTuring2,59.96043390873272,
222,resources/videos_generated\model(vcgpdm)-dataset(walking)-mode(ELBO)-parts(2)-dyn(25)-lvm(18)_final(3).mov,resources/videos_natural\training(8).mov,True,False,right,0,221,221,221,2018-12-10 16:20:40.991274,2018-12-10 16:20:44.894497,0:00:03.903223,5,left,0,0.26721632743056034,22,f,1,23,2018_Dec_10_1557,MP_PerceptionTuring2,59.96043390873272,
223,resources/videos_generated\model(vcgpdm)-dataset(walking)-mode(ELBO)-parts(1)-dyn(27)-lvm(24)_final(5).mov,resources/videos_natural\training(13).mov,False,True,left,0,222,222,222,2018-12-10 16:20:46.279576,2018-12-10 16:20:50.199800,0:00:03.920224,5,left,1,0.2671332036882177,22,f,1,23,2018_Dec_10_1557,MP_PerceptionTuring2,59.96043390873272,
224,resources/videos_generated\model(vcgpdm)-dataset(walking)-mode(ELBO)-parts(1)-dyn(23)-lvm(26)_final(9).mov,resources/videos_natural\training(19).mov,True,False,right,0,223,223,223,2018-12-10 16:20:51.583880,2018-12-10 16:20:55.504104,0:00:03.920224,5,left,0,0.2163102635836367,22,f,1,23,2018_Dec_10_1557,MP_PerceptionTuring2,59.96043390873272,
225,resources/videos_generated\model(vcgpdm)-dataset(walking)-mode(ELBO)-parts(1)-dyn(23)-lvm(24)_final(3).mov,resources/videos_natural\training(27).mov,False,False,right,0,224,224,224,2018-12-10 16:20:56.839180,2018-12-10 16:21:00.808407,0:00:03.969227,5,right,1,0.4004148958949827,22,f,1,23,2018_Dec_10_1557,MP_PerceptionTuring2,59.96043390873272,
226,resources/videos_generated\model(tmp)-dataset(walking)-numprim(12)_final(2).mov,resources/videos_natural\training(40).mov,True,True,left,0,225,225,225,2018-12-10 16:21:39.024593,2018-12-10 16:21:43.094826,0:00:04.070233,6,right,0,0.33398697908728536,22,f,1,23,2018_Dec_10_1557,MP_PerceptionTuring2,59.96043390873272,
227,resources/videos_generated\model(vcgpdm)-dataset(walking)-mode(ELBO)-parts(2)-dyn(26)-lvm(19)_final(9).mov,resources/videos_natural\training(24).mov,False,False,right,0,226,226,226,2018-12-10 16:21:44.546909,2018-12-10 16:21:48.483134,0:00:03.936225,6,right,1,0.2839540157049214,22,f,1,23,2018_Dec_10_1557,MP_PerceptionTuring2,59.96043390873272,
228,resources/videos_generated\model(tmp)-dataset(walking)-numprim(14)_final(8).mov,resources/videos_natural\training(3).mov,False,False,right,0,227,227,227,2018-12-10 16:21:49.884214,2018-12-10 16:21:53.954447,0:00:04.070233,6,right,1,0.40066005069934363,22,f,1,23,2018_Dec_10_1557,MP_PerceptionTuring2,59.96043390873272,
229,resources/videos_generated\model(vcgpdm)-dataset(walking)-mode(ELBO)-parts(1)-dyn(23)-lvm(26)_final(3)_hip-corrected.mov,resources/videos_natural\training(30).mov,False,True,left,0,228,228,228,2018-12-10 16:21:55.472534,2018-12-10 16:21:59.375757,0:00:03.903223,6,right,0,0.3338918084261877,22,f,1,23,2018_Dec_10_1557,MP_PerceptionTuring2,59.96043390873272,
230,resources/videos_generated\model(vcgpdm)-dataset(walking)-mode(ELBO)-parts(2)-dyn(25)-lvm(22)_final(9).mov,resources/videos_natural\training(48).mov,False,True,left,0,229,229,229,2018-12-10 16:22:00.826840,2018-12-10 16:22:04.780066,0:00:03.953226,6,left,1,0.3005031696950482,22,f,1,23,2018_Dec_10_1557,MP_PerceptionTuring2,59.96043390873272,
231,resources/videos_generated\model(vcgpdm)-dataset(walking)-mode(ELBO)-parts(2)-dyn(27)-lvm(20)_final(1).mov,resources/videos_natural\training(40).mov,False,False,right,0,230,230,230,2018-12-10 16:22:06.198147,2018-12-10 16:22:10.302382,0:00:04.104235,6,right,1,0.5005790050511223,22,f,1,23,2018_Dec_10_1557,MP_PerceptionTuring2,59.96043390873272,
232,resources/videos_generated\model(vcgpdm)-dataset(walking)-mode(ELBO)-parts(2)-dyn(24)-lvm(23)_final(1).mov,resources/videos_natural\training(35).mov,True,True,left,0,231,231,231,2018-12-10 16:22:11.920475,2018-12-10 16:22:16.023709,0:00:04.103234,6,left,1,0.4839699176382055,22,f,1,23,2018_Dec_10_1557,MP_PerceptionTuring2,59.96043390873272,
233,resources/videos_generated\model(dmp)-dataset(walking)-npsi(60)_final(2).mov,resources/videos_natural\training(18).mov,False,False,right,0,232,232,232,2018-12-10 16:22:17.624801,2018-12-10 16:22:21.528024,0:00:03.903223,6,right,1,0.3339851720495517,22,f,1,23,2018_Dec_10_1557,MP_PerceptionTuring2,59.96043390873272,
234,resources/videos_generated\model(vcgpdm)-dataset(walking)-mode(ELBO)-parts(2)-dyn(26)-lvm(21)_final(3).mov,resources/videos_natural\training(35).mov,False,False,right,0,233,233,233,2018-12-10 16:22:22.979107,2018-12-10 16:22:26.916332,0:00:03.937225,6,right,1,0.4840906880026523,22,f,1,23,2018_Dec_10_1557,MP_PerceptionTuring2,59.96043390873272,
235,resources/videos_generated\model(vcgpdm)-dataset(walking)-mode(ELBO)-parts(2)-dyn(28)-lvm(17)_final(1).mov,resources/videos_natural\training(39).mov,False,True,left,0,234,234,234,2018-12-10 16:22:28.517424,2018-12-10 16:22:32.437648,0:00:03.920224,6,left,1,0.28393323476961996,22,f,1,23,2018_Dec_10_1557,MP_PerceptionTuring2,59.96043390873272,
236,resources/videos_generated\model(dmp)-dataset(walking)-npsi(80)_final(8).mov,resources/videos_natural\training(47).mov,False,True,left,0,235,235,235,2018-12-10 16:22:33.838728,2018-12-10 16:22:37.775953,0:00:03.937225,6,right,0,0.35046324921677297,22,f,1,23,2018_Dec_10_1557,MP_PerceptionTuring2,59.96043390873272,
237,resources/videos_generated\model(vcgpdm)-dataset(walking)-mode(ELBO)-parts(1)-dyn(27)-lvm(28)_final(1).mov,resources/videos_natural\training(14).mov,False,True,left,0,236,236,236,2018-12-10 16:22:39.244037,2018-12-10 16:22:43.180263,0:00:03.936226,6,right,0,0.2837212089928016,22,f,1,23,2018_Dec_10_1557,MP_PerceptionTuring2,59.96043390873272,
238,resources/videos_generated\model(vcgpdm)-dataset(walking)-mode(ELBO)-parts(2)-dyn(27)-lvm(20)_final(7).mov,resources/videos_natural\training(32).mov,True,True,left,0,237,237,237,2018-12-10 16:22:44.581343,2018-12-10 16:22:48.501567,0:00:03.920224,6,left,1,0.2670817031091701,22,f,1,23,2018_Dec_10_1557,MP_PerceptionTuring2,59.96043390873272,
239,resources/videos_generated\model(vcgpdm)-dataset(walking)-mode(ELBO)-parts(2)-dyn(24)-lvm(17)_final(1).mov,resources/videos_natural\training(45).mov,True,True,left,0,238,238,238,2018-12-10 16:22:49.885646,2018-12-10 16:22:53.805870,0:00:03.920224,6,left,1,0.35061323336003625,22,f,1,23,2018_Dec_10_1557,MP_PerceptionTuring2,59.96043390873272,
240,resources/videos_generated\model(vcgpdm)-dataset(walking)-mode(ELBO)-parts(1)-dyn(22)-lvm(27)_final(6)_fail.mov,resources/videos_natural\training(0).mov,True,False,right,0,239,239,239,2018-12-10 16:22:55.273954,2018-12-10 16:22:59.211179,0:00:03.937225,6,right,1,1.2180106862197135,22,f,1,23,2018_Dec_10_1557,MP_PerceptionTuring2,59.96043390873272,
241,resources/videos_generated\model(vcgpdm)-dataset(walking)-mode(ELBO)-parts(1)-dyn(28)-lvm(25)_final(7).mov,resources/videos_natural\training(36).mov,True,True,left,0,240,240,240,2018-12-10 16:23:01.546313,2018-12-10 16:23:05.449536,0:00:03.903223,6,right,0,0.4333331024340623,22,f,1,23,2018_Dec_10_1557,MP_PerceptionTuring2,59.96043390873272,
242,resources/videos_generated\model(vcgpdm)-dataset(walking)-mode(ELBO)-parts(1)-dyn(28)-lvm(27)_final(1).mov,resources/videos_natural\training(13).mov,False,True,left,0,241,241,241,2018-12-10 16:23:07.000625,2018-12-10 16:23:11.087859,0:00:04.087234,6,right,0,0.33377977207828735,22,f,1,23,2018_Dec_10_1557,MP_PerceptionTuring2,59.96043390873272,
243,resources/videos_generated\model(vcgpdm)-dataset(walking)-mode(ELBO)-parts(2)-dyn(27)-lvm(18)_final(9).mov,resources/videos_natural\training(7).mov,True,True,left,0,242,242,242,2018-12-10 16:23:12.538942,2018-12-10 16:23:16.593174,0:00:04.054232,6,right,0,0.41752483397090145,22,f,1,23,2018_Dec_10_1557,MP_PerceptionTuring2,59.96043390873272,
244,resources/videos_generated\model(vcgpdm)-dataset(walking)-mode(ELBO)-parts(1)-dyn(25)-lvm(28)_final(8).mov,resources/videos_natural\training(5).mov,False,True,left,0,243,243,243,2018-12-10 16:23:18.127261,2018-12-10 16:23:22.080487,0:00:03.953226,6,left,1,0.3007073649744143,22,f,1,23,2018_Dec_10_1557,MP_PerceptionTuring2,59.96043390873272,
245,resources/videos_generated\model(vcgpdm)-dataset(walking)-mode(ELBO)-parts(2)-dyn(24)-lvm(17)_final(3).mov,resources/videos_natural\training(11).mov,False,False,right,0,244,244,244,2018-12-10 16:23:23.498569,2018-12-10 16:23:27.418793,0:00:03.920224,6,left,0,0.3838392386828673,22,f,1,23,2018_Dec_10_1557,MP_PerceptionTuring2,59.96043390873272,
246,resources/videos_generated\model(dmp)-dataset(walking)-npsi(100)_final(8).mov,resources/videos_natural\training(44).mov,False,False,right,0,245,245,245,2018-12-10 16:23:28.919879,2018-12-10 16:23:32.873105,0:00:03.953226,6,right,1,0.31734054622529584,22,f,1,23,2018_Dec_10_1557,MP_PerceptionTuring2,59.96043390873272,
247,resources/videos_generated\model(vcgpdm)-dataset(walking)-mode(ELBO)-parts(2)-dyn(24)-lvm(19)_final(9).mov,resources/videos_natural\training(15).mov,True,False,right,0,246,246,246,2018-12-10 16:23:34.309187,2018-12-10 16:23:38.428423,0:00:04.119236,6,left,0,0.31706406943135335,22,f,1,23,2018_Dec_10_1557,MP_PerceptionTuring2,59.96043390873272,
248,resources/videos_generated\model(vcgpdm)-dataset(walking)-mode(ELBO)-parts(1)-dyn(25)-lvm(24)_final(3).mov,resources/videos_natural\training(13).mov,False,True,left,0,247,247,247,2018-12-10 16:23:39.862505,2018-12-10 16:23:43.782729,0:00:03.920224,6,left,1,0.2838612544276202,22,f,1,23,2018_Dec_10_1557,MP_PerceptionTuring2,59.96043390873272,
249,resources/videos_generated\model(vcgpdm)-dataset(walking)-mode(ELBO)-parts(2)-dyn(25)-lvm(22)_final(1).mov,resources/videos_natural\training(16).mov,True,True,left,0,248,248,248,2018-12-10 16:23:45.183809,2018-12-10 16:23:49.288044,0:00:04.104235,6,left,1,0.38407565947090916,22,f,1,23,2018_Dec_10_1557,MP_PerceptionTuring2,59.96043390873272,
250,resources/videos_generated\model(vcgpdm)-dataset(walking)-mode(ELBO)-parts(2)-dyn(26)-lvm(19)_final(5).mov,resources/videos_natural\training(20).mov,True,True,left,0,249,249,249,2018-12-10 16:23:50.789130,2018-12-10 16:23:54.809359,0:00:04.020229,6,left,1,0.28381156088607895,22,f,1,23,2018_Dec_10_1557,MP_PerceptionTuring2,59.96043390873272,
251,resources/videos_generated\model(vcgpdm)-dataset(walking)-mode(ELBO)-parts(2)-dyn(24)-lvm(23)_final(3).mov,resources/videos_natural\training(45).mov,True,False,right,0,250,250,250,2018-12-10 16:23:56.210440,2018-12-10 16:24:00.330675,0:00:04.120235,6,right,1,1.7683666576213,22,f,1,23,2018_Dec_10_1557,MP_PerceptionTuring2,59.96043390873272,
252,resources/videos_generated\model(vcgpdm)-dataset(walking)-mode(ELBO)-parts(2)-dyn(26)-lvm(21)_final(9).mov,resources/videos_natural\training(43).mov,True,True,left,0,251,251,251,2018-12-10 16:24:03.215840,2018-12-10 16:24:07.270072,0:00:04.054232,6,left,1,0.35060269230575614,22,f,1,23,2018_Dec_10_1557,MP_PerceptionTuring2,59.96043390873272,
253,resources/videos_generated\model(vcgpdm)-dataset(walking)-mode(ELBO)-parts(2)-dyn(26)-lvm(23)_final(9).mov,resources/videos_natural\training(0).mov,True,False,right,0,252,252,252,2018-12-10 16:24:08.738156,2018-12-10 16:24:12.657380,0:00:03.919224,6,right,1,0.31720110313654004,22,f,1,23,2018_Dec_10_1557,MP_PerceptionTuring2,59.96043390873272,
254,resources/videos_generated\model(vcgpdm)-dataset(walking)-mode(ELBO)-parts(2)-dyn(24)-lvm(21)_final(5).mov,resources/videos_natural\training(27).mov,True,True,left,0,253,253,253,2018-12-10 16:24:14.092462,2018-12-10 16:24:18.129693,0:00:04.037231,6,left,1,0.2839799165810746,22,f,1,23,2018_Dec_10_1557,MP_PerceptionTuring2,59.96043390873272,
255,resources/videos_generated\model(vcgpdm)-dataset(walking)-mode(ELBO)-parts(2)-dyn(24)-lvm(17)_final(7).mov,resources/videos_natural\training(44).mov,False,False,right,0,254,254,254,2018-12-10 16:24:19.530773,2018-12-10 16:24:23.433997,0:00:03.903224,6,left,0,0.25044008901477355,22,f,1,23,2018_Dec_10_1557,MP_PerceptionTuring2,59.96043390873272,
256,resources/videos_generated\model(vcgpdm)-dataset(walking)-mode(ELBO)-parts(2)-dyn(26)-lvm(17)_final(9).mov,resources/videos_natural\training(5).mov,False,False,right,0,255,255,255,2018-12-10 16:24:24.802075,2018-12-10 16:24:28.738300,0:00:03.936225,6,right,1,0.4339351472178805,22,f,1,23,2018_Dec_10_1557,MP_PerceptionTuring2,59.96043390873272,
257,resources/videos_generated\model(dmp)-dataset(walking)-npsi(90)_final(8).mov,resources/videos_natural\training(46).mov,True,False,right,0,256,256,256,2018-12-10 16:24:30.289389,2018-12-10 16:24:34.209613,0:00:03.920224,6,left,0,0.33396830636297636,22,f,1,23,2018_Dec_10_1557,MP_PerceptionTuring2,59.96043390873272,
258,resources/videos_generated\model(vcgpdm)-dataset(walking)-mode(ELBO)-parts(1)-dyn(24)-lvm(27)_final(4).mov,resources/videos_natural\training(38).mov,True,False,right,0,257,257,257,2018-12-10 16:24:35.660696,2018-12-10 16:24:39.613922,0:00:03.953226,6,left,0,0.26702237203221557,22,f,1,23,2018_Dec_10_1557,MP_PerceptionTuring2,59.96043390873272,
259,resources/videos_generated\model(vcgpdm)-dataset(walking)-mode(ELBO)-parts(1)-dyn(23)-lvm(22)_final(3)_fail.mov,resources/videos_natural\training(26).mov,True,True,left,0,258,258,258,2018-12-10 16:24:40.999001,2018-12-10 16:24:44.952227,0:00:03.953226,6,left,1,0.40037935748341624,22,f,1,23,2018_Dec_10_1557,MP_PerceptionTuring2,59.96043390873272,
260,resources/videos_generated\model(vcgpdm)-dataset(walking)-mode(ELBO)-parts(2)-dyn(27)-lvm(20)_final(9).mov,resources/videos_natural\training(23).mov,False,False,right,0,259,259,259,2018-12-10 16:24:46.470314,2018-12-10 16:24:50.540547,0:00:04.070233,6,left,0,0.40069227620824677,22,f,1,23,2018_Dec_10_1557,MP_PerceptionTuring2,59.96043390873272,
261,resources/videos_generated\model(vcgpdm)-dataset(walking)-mode(ELBO)-parts(2)-dyn(22)-lvm(17)_final(9).mov,resources/videos_natural\training(9).mov,False,False,right,0,260,260,260,2018-12-10 16:24:52.058634,2018-12-10 16:24:56.011860,0:00:03.953226,6,right,1,0.5173624716180711,22,f,1,23,2018_Dec_10_1557,MP_PerceptionTuring2,59.96043390873272,
262,resources/videos_generated\model(vcgpdm)-dataset(walking)-mode(ELBO)-parts(2)-dyn(24)-lvm(23)_final(7).mov,resources/videos_natural\training(4).mov,False,False,right,0,261,261,261,2018-12-10 16:24:57.646954,2018-12-10 16:25:01.717186,0:00:04.070232,6,right,1,0.3839042920458269,22,f,1,23,2018_Dec_10_1557,MP_PerceptionTuring2,59.96043390873272,
263,resources/videos_generated\model(vcgpdm)-dataset(walking)-mode(ELBO)-parts(1)-dyn(22)-lvm(23)_final(0).mov,resources/videos_natural\training(0).mov,False,True,left,0,262,262,262,2018-12-10 16:25:03.218272,2018-12-10 16:25:07.305506,0:00:04.087234,6,left,1,0.3339695110548746,22,f,1,23,2018_Dec_10_1557,MP_PerceptionTuring2,59.96043390873272,
264,resources/videos_generated\model(vcgpdm)-dataset(walking)-mode(ELBO)-parts(1)-dyn(22)-lvm(25)_final(2).mov,resources/videos_natural\training(22).mov,False,True,left,0,263,263,263,2018-12-10 16:25:08.756589,2018-12-10 16:25:12.759818,0:00:04.003229,6,left,1,0.31723543685620825,22,f,1,23,2018_Dec_10_1557,MP_PerceptionTuring2,59.96043390873272,
265,resources/videos_generated\model(vcgpdm)-dataset(walking)-mode(ELBO)-parts(1)-dyn(27)-lvm(24)_final(3).mov,resources/videos_natural\training(26).mov,False,False,right,0,264,264,264,2018-12-10 16:25:14.193900,2018-12-10 16:25:18.114124,0:00:03.920224,6,right,1,0.3840428316161706,22,f,1,23,2018_Dec_10_1557,MP_PerceptionTuring2,59.96043390873272,
266,resources/videos_generated\model(vcgpdm)-dataset(walking)-mode(ELBO)-parts(1)-dyn(22)-lvm(23)_final(2).mov,resources/videos_natural\training(2).mov,False,False,right,0,265,265,265,2018-12-10 16:25:19.616210,2018-12-10 16:25:23.685443,0:00:04.069233,6,right,1,0.3507752644222819,22,f,1,23,2018_Dec_10_1557,MP_PerceptionTuring2,59.96043390873272,
267,resources/videos_generated\model(vcgpdm)-dataset(walking)-mode(ELBO)-parts(2)-dyn(24)-lvm(21)_final(9).mov,resources/videos_natural\training(19).mov,True,True,left,0,266,266,266,2018-12-10 16:25:25.153527,2018-12-10 16:25:29.173757,0:00:04.020230,6,right,0,0.5507999003721125,22,f,1,23,2018_Dec_10_1557,MP_PerceptionTuring2,59.96043390873272,
268,resources/videos_generated\model(tmp)-dataset(walking)-numprim(13)_final(0).mov,resources/videos_natural\training(12).mov,True,True,left,0,267,267,267,2018-12-10 16:25:30.841852,2018-12-10 16:25:34.795078,0:00:03.953226,6,right,0,0.36736477559134073,22,f,1,23,2018_Dec_10_1557,MP_PerceptionTuring2,59.96043390873272,
269,resources/videos_generated\model(vcgpdm)-dataset(walking)-mode(ELBO)-parts(1)-dyn(22)-lvm(22)_final(4).mov,resources/videos_natural\training(10).mov,False,False,right,0,268,268,268,2018-12-10 16:25:36.280163,2018-12-10 16:25:40.400399,0:00:04.120236,6,right,1,0.6008108781270494,22,f,1,23,2018_Dec_10_1557,MP_PerceptionTuring2,59.96043390873272,
270,resources/videos_generated\model(vcgpdm)-dataset(walking)-mode(ELBO)-parts(1)-dyn(25)-lvm(28)_final(4).mov,resources/videos_natural\training(37).mov,False,False,right,0,269,269,269,2018-12-10 16:25:42.118497,2018-12-10 16:25:46.071723,0:00:03.953226,6,right,1,0.38410908967171054,22,f,1,23,2018_Dec_10_1557,MP_PerceptionTuring2,59.96043390873272,
271,resources/videos_generated\model(vcgpdm)-dataset(walking)-mode(ELBO)-parts(2)-dyn(24)-lvm(19)_final(7).mov,resources/videos_natural\training(38).mov,False,False,right,0,270,270,270,2018-12-10 16:26:24.904944,2018-12-10 16:26:28.809168,0:00:03.904224,7,left,0,0.066977557492919,22,f,1,23,2018_Dec_10_1557,MP_PerceptionTuring2,59.96043390873272,
272,resources/videos_generated\model(tmp)-dataset(walking)-numprim(14)_final(0).mov,resources/videos_natural\training(25).mov,False,True,left,0,271,271,271,2018-12-10 16:26:29.993235,2018-12-10 16:26:33.913460,0:00:03.920225,7,right,0,0.25044460660956247,22,f,1,23,2018_Dec_10_1557,MP_PerceptionTuring2,59.96043390873272,
273,resources/videos_generated\model(vcgpdm)-dataset(walking)-mode(ELBO)-parts(2)-dyn(27)-lvm(20)_final(3).mov,resources/videos_natural\training(43).mov,True,True,left,0,272,272,272,2018-12-10 16:26:35.281538,2018-12-10 16:26:39.351771,0:00:04.070233,7,left,1,0.20059716578134612,22,f,1,23,2018_Dec_10_1557,MP_PerceptionTuring2,59.96043390873272,
274,resources/videos_generated\model(vcgpdm)-dataset(walking)-mode(ELBO)-parts(1)-dyn(28)-lvm(24)_final(2).mov,resources/videos_natural\training(34).mov,False,False,right,0,273,273,273,2018-12-10 16:26:40.668846,2018-12-10 16:26:44.756080,0:00:04.087234,7,left,0,0.2505560406116274,22,f,1,23,2018_Dec_10_1557,MP_PerceptionTuring2,59.96043390873272,
275,resources/videos_generated\model(vcgpdm)-dataset(walking)-mode(ELBO)-parts(2)-dyn(22)-lvm(23)_final(9).mov,resources/videos_natural\training(31).mov,False,False,right,0,274,274,274,2018-12-10 16:26:46.124158,2018-12-10 16:26:50.210392,0:00:04.086234,7,right,1,0.2504241268466103,22,f,1,23,2018_Dec_10_1557,MP_PerceptionTuring2,59.96043390873272,
276,resources/videos_generated\model(tmp)-dataset(walking)-numprim(11)_final(4).mov,resources/videos_natural\training(2).mov,False,True,left,0,275,275,275,2018-12-10 16:26:51.578470,2018-12-10 16:26:55.615701,0:00:04.037231,7,right,0,0.2507114458680917,22,f,1,23,2018_Dec_10_1557,MP_PerceptionTuring2,59.96043390873272,
277,resources/videos_generated\model(vcgpdm)-dataset(walking)-mode(ELBO)-parts(2)-dyn(23)-lvm(22)_final(5).mov,resources/videos_natural\training(32).mov,True,False,right,0,276,276,276,2018-12-10 16:26:56.982779,2018-12-10 16:27:00.887002,0:00:03.904223,7,right,1,0.25055061949797164,22,f,1,23,2018_Dec_10_1557,MP_PerceptionTuring2,59.96043390873272,
278,resources/videos_generated\model(vcgpdm)-dataset(walking)-mode(ELBO)-parts(2)-dyn(28)-lvm(19)_final(1).mov,resources/videos_natural\training(43).mov,False,True,left,0,277,277,277,2018-12-10 16:27:02.254081,2018-12-10 16:27:06.341314,0:00:04.087233,7,right,0,0.2671545869698093,22,f,1,23,2018_Dec_10_1557,MP_PerceptionTuring2,59.96043390873272,
279,resources/videos_generated\model(tmp)-dataset(walking)-numprim(12)_final(0).mov,resources/videos_natural\training(17).mov,False,True,left,0,278,278,278,2018-12-10 16:27:07.725394,2018-12-10 16:27:11.662619,0:00:03.937225,7,left,1,0.7841935988094519,22,f,1,23,2018_Dec_10_1557,MP_PerceptionTuring2,59.96043390873272,
280,resources/videos_generated\model(vcgpdm)-dataset(walking)-mode(ELBO)-parts(1)-dyn(25)-lvm(24)_final(7).mov,resources/videos_natural\training(33).mov,True,True,left,0,279,279,279,2018-12-10 16:27:13.563728,2018-12-10 16:27:17.517954,0:00:03.954226,7,left,1,0.5007042930096759,22,f,1,23,2018_Dec_10_1557,MP_PerceptionTuring2,59.96043390873272,
281,resources/videos_generated\model(vcgpdm)-dataset(walking)-mode(ELBO)-parts(1)-dyn(22)-lvm(28)_final(7).mov,resources/videos_natural\training(28).mov,False,False,right,0,280,280,280,2018-12-10 16:27:19.136046,2018-12-10 16:27:23.222280,0:00:04.086234,7,right,1,0.23377257404399643,22,f,1,23,2018_Dec_10_1557,MP_PerceptionTuring2,59.96043390873272,
282,resources/videos_generated\model(vcgpdm)-dataset(walking)-mode(ELBO)-parts(1)-dyn(24)-lvm(27)_final(2).mov,resources/videos_natural\training(26).mov,False,True,left,0,281,281,281,2018-12-10 16:27:24.574357,2018-12-10 16:27:28.493581,0:00:03.919224,7,left,1,0.3172465802563238,22,f,1,23,2018_Dec_10_1557,MP_PerceptionTuring2,59.96043390873272,
283,resources/videos_generated\model(vcgpdm)-dataset(walking)-mode(ELBO)-parts(1)-dyn(28)-lvm(27)_final(5).mov,resources/videos_natural\training(17).mov,True,True,left,0,282,282,282,2018-12-10 16:27:29.928664,2018-12-10 16:27:33.964894,0:00:04.036230,7,right,0,0.30048720752711233,22,f,1,23,2018_Dec_10_1557,MP_PerceptionTuring2,59.96043390873272,
284,resources/videos_generated\model(vcgpdm)-dataset(walking)-mode(ELBO)-parts(2)-dyn(23)-lvm(18)_final(1).mov,resources/videos_natural\training(47).mov,True,True,left,0,283,283,283,2018-12-10 16:27:35.382976,2018-12-10 16:27:39.336202,0:00:03.953226,7,left,1,0.4172146258028988,22,f,1,23,2018_Dec_10_1557,MP_PerceptionTuring2,59.96043390873272,
285,resources/videos_generated\model(vcgpdm)-dataset(walking)-mode(ELBO)-parts(1)-dyn(23)-lvm(26)_final(7).mov,resources/videos_natural\training(5).mov,True,True,left,0,284,284,284,2018-12-10 16:27:40.871289,2018-12-10 16:27:44.958523,0:00:04.087234,7,right,0,0.30041432366624576,22,f,1,23,2018_Dec_10_1557,MP_PerceptionTuring2,59.96043390873272,
286,resources/videos_generated\model(vcgpdm)-dataset(walking)-mode(ELBO)-parts(1)-dyn(25)-lvm(22)_final(0).mov,resources/videos_natural\training(11).mov,True,False,right,0,285,285,285,2018-12-10 16:27:46.375604,2018-12-10 16:27:50.345831,0:00:03.970227,7,right,1,0.2504123811008867,22,f,1,23,2018_Dec_10_1557,MP_PerceptionTuring2,59.96043390873272,
287,resources/videos_generated\model(dmp)-dataset(walking)-npsi(80)_final(0).mov,resources/videos_natural\training(28).mov,False,False,right,0,286,286,286,2018-12-10 16:27:51.713910,2018-12-10 16:27:55.667136,0:00:03.953226,7,right,1,0.2338219664125063,22,f,1,23,2018_Dec_10_1557,MP_PerceptionTuring2,59.96043390873272,
288,resources/videos_generated\model(vcgpdm)-dataset(walking)-mode(ELBO)-parts(2)-dyn(22)-lvm(21)_final(5).mov,resources/videos_natural\training(7).mov,False,True,left,0,287,287,287,2018-12-10 16:27:57.018213,2018-12-10 16:28:00.938437,0:00:03.920224,7,right,0,0.26718861951621875,22,f,1,23,2018_Dec_10_1557,MP_PerceptionTuring2,59.96043390873272,
289,resources/videos_generated\model(vcgpdm)-dataset(walking)-mode(ELBO)-parts(1)-dyn(26)-lvm(25)_final(9).mov,resources/videos_natural\training(9).mov,False,True,left,0,288,288,288,2018-12-10 16:28:02.323516,2018-12-10 16:28:06.242741,0:00:03.919225,7,left,1,0.31715773422774873,22,f,1,23,2018_Dec_10_1557,MP_PerceptionTuring2,59.96043390873272,
290,resources/videos_generated\model(vcgpdm)-dataset(walking)-mode(ELBO)-parts(2)-dyn(25)-lvm(22)_final(3).mov,resources/videos_natural\training(14).mov,True,True,left,0,289,289,289,2018-12-10 16:28:07.677823,2018-12-10 16:28:11.631049,0:00:03.953226,7,right,0,0.25036630163504014,22,f,1,23,2018_Dec_10_1557,MP_PerceptionTuring2,59.96043390873272,
291,resources/videos_generated\model(vcgpdm)-dataset(walking)-mode(ELBO)-parts(2)-dyn(23)-lvm(22)_final(7).mov,resources/videos_natural\training(9).mov,True,True,left,0,290,290,290,2018-12-10 16:28:12.999127,2018-12-10 16:28:16.936352,0:00:03.937225,7,left,1,0.41738268032486303,22,f,1,23,2018_Dec_10_1557,MP_PerceptionTuring2,59.96043390873272,
