n_trial,mov_file_generated,mov_file_natural,mirrored,switch_stim_pos,correct_answer,trials.thisRepN,trials.thisTrialN,trials.thisN,trials.thisIndex,stimulus_onset,stimulus_off,stimulus_length,block,response.keys,response.corr,response.rt,age,gender,condition,participant,date,expName,frameRate,
1,resources/videos_generated\model(vcgpdm)-dataset(walking)-mode(ELBO)-parts(1)-dyn(25)-lvm(22)_final(7).mov,resources/videos_natural\training(39).mov,True,True,left,0,0,0,0,2018-12-11 11:07:48.568570,2018-12-11 11:07:53.238837,0:00:04.670267,1,right,0,22.51915593998274,24,f,2,24,2018_Dec_11_1106,MP_PerceptionTuring2,59.906001641777856,
2,resources/videos_generated\model(vcgpdm)-dataset(walking)-mode(ELBO)-parts(1)-dyn(22)-lvm(22)_final(9).mov,resources/videos_natural\training(4).mov,False,True,left,0,1,1,1,2018-12-11 11:08:16.943193,2018-12-11 11:08:20.862417,0:00:03.919224,1,right,0,1.3680660044934712,24,f,2,24,2018_Dec_11_1106,MP_PerceptionTuring2,59.906001641777856,
3,resources/videos_generated\model(vcgpdm)-dataset(walking)-mode(ELBO)-parts(2)-dyn(24)-lvm(17)_final(6).mov,resources/videos_natural\training(24).mov,False,False,right,0,2,2,2,2018-12-11 11:08:23.348559,2018-12-11 11:08:27.434793,0:00:04.086234,1,left,0,0.5674124648384122,24,f,2,24,2018_Dec_11_1106,MP_PerceptionTuring2,59.906001641777856,
4,resources/videos_generated\model(vcgpdm)-dataset(walking)-mode(ELBO)-parts(2)-dyn(26)-lvm(21)_final(8).mov,resources/videos_natural\training(43).mov,False,True,left,0,3,3,3,2018-12-11 11:08:29.186893,2018-12-11 11:08:33.107117,0:00:03.920224,1,right,0,0.48402983995799786,24,f,2,24,2018_Dec_11_1106,MP_PerceptionTuring2,59.906001641777856,
5,resources/videos_generated\model(vcgpdm)-dataset(walking)-mode(ELBO)-parts(2)-dyn(26)-lvm(23)_final(8).mov,resources/videos_natural\training(15).mov,True,False,right,0,4,4,4,2018-12-11 11:08:34.708209,2018-12-11 11:08:38.778441,0:00:04.070232,1,left,0,1.0344044958709446,24,f,2,24,2018_Dec_11_1106,MP_PerceptionTuring2,59.906001641777856,
6,resources/videos_generated\model(vcgpdm)-dataset(walking)-mode(ELBO)-parts(1)-dyn(26)-lvm(25)_final(6).mov,resources/videos_natural\training(42).mov,False,False,right,0,5,5,5,2018-12-11 11:08:40.930565,2018-12-11 11:08:45.033799,0:00:04.103234,1,right,1,0.4838391991278286,24,f,2,24,2018_Dec_11_1106,MP_PerceptionTuring2,59.906001641777856,
7,resources/videos_generated\model(dmp)-dataset(walking)-npsi(60)_final(1).mov,resources/videos_natural\training(28).mov,True,False,right,0,6,6,6,2018-12-11 11:08:46.634891,2018-12-11 11:08:50.572116,0:00:03.937225,1,right,1,0.55075864810658,24,f,2,24,2018_Dec_11_1106,MP_PerceptionTuring2,59.906001641777856,
8,resources/videos_generated\model(vcgpdm)-dataset(walking)-mode(ELBO)-parts(2)-dyn(26)-lvm(21)_final(4).mov,resources/videos_natural\training(23).mov,False,True,left,0,7,7,7,2018-12-11 11:08:52.240211,2018-12-11 11:08:56.327445,0:00:04.087234,1,left,1,0.40056228503965485,24,f,2,24,2018_Dec_11_1106,MP_PerceptionTuring2,59.906001641777856,
9,resources/videos_generated\model(vcgpdm)-dataset(walking)-mode(ELBO)-parts(2)-dyn(24)-lvm(23)_final(8).mov,resources/videos_natural\training(2).mov,True,True,left,0,8,8,8,2018-12-11 11:08:57.844532,2018-12-11 11:09:01.948767,0:00:04.104235,1,left,1,0.484030743469134,24,f,2,24,2018_Dec_11_1106,MP_PerceptionTuring2,59.906001641777856,
10,resources/videos_generated\model(vcgpdm)-dataset(walking)-mode(ELBO)-parts(1)-dyn(25)-lvm(25)_final(0).mov,resources/videos_natural\training(33).mov,True,True,left,0,9,9,9,2018-12-11 11:09:03.549858,2018-12-11 11:09:07.637092,0:00:04.087234,1,left,1,2.8527478782548314,24,f,2,24,2018_Dec_11_1106,MP_PerceptionTuring2,59.906001641777856,
11,resources/videos_generated\model(vcgpdm)-dataset(walking)-mode(ELBO)-parts(2)-dyn(27)-lvm(20)_final(8).mov,resources/videos_natural\training(31).mov,True,False,right,0,10,10,10,2018-12-11 11:09:11.606319,2018-12-11 11:09:15.676552,0:00:04.070233,1,left,0,1.7850914654346752,24,f,2,24,2018_Dec_11_1106,MP_PerceptionTuring2,59.906001641777856,
12,resources/videos_generated\model(vcgpdm)-dataset(walking)-mode(ELBO)-parts(1)-dyn(26)-lvm(27)_final(6).mov,resources/videos_natural\training(27).mov,False,False,right,0,11,11,11,2018-12-11 11:09:18.579718,2018-12-11 11:09:22.482941,0:00:03.903223,1,left,0,0.5340515242230595,24,f,2,24,2018_Dec_11_1106,MP_PerceptionTuring2,59.906001641777856,
13,resources/videos_generated\model(vcgpdm)-dataset(walking)-mode(ELBO)-parts(1)-dyn(25)-lvm(28)_final(3).mov,resources/videos_natural\training(8).mov,True,False,right,0,12,12,12,2018-12-11 11:09:24.134036,2018-12-11 11:09:28.037259,0:00:03.903223,1,left,0,0.6674461959173641,24,f,2,24,2018_Dec_11_1106,MP_PerceptionTuring2,59.906001641777856,
14,resources/videos_generated\model(tmp)-dataset(walking)-numprim(15)_final(1).mov,resources/videos_natural\training(27).mov,False,False,right,0,13,13,13,2018-12-11 11:09:29.822361,2018-12-11 11:09:33.742585,0:00:03.920224,1,left,0,0.5674362572958671,24,f,2,24,2018_Dec_11_1106,MP_PerceptionTuring2,59.906001641777856,
15,resources/videos_generated\model(vcgpdm)-dataset(walking)-mode(ELBO)-parts(2)-dyn(22)-lvm(19)_final(8).mov,resources/videos_natural\training(3).mov,True,False,right,0,14,14,14,2018-12-11 11:09:35.427682,2018-12-11 11:09:39.497914,0:00:04.070232,1,left,0,0.3505908962227977,24,f,2,24,2018_Dec_11_1106,MP_PerceptionTuring2,59.906001641777856,
16,resources/videos_generated\model(vcgpdm)-dataset(walking)-mode(ELBO)-parts(1)-dyn(25)-lvm(28)_final(7).mov,resources/videos_natural\training(4).mov,True,True,left,0,15,15,15,2018-12-11 11:09:40.964998,2018-12-11 11:09:45.035231,0:00:04.070233,1,right,0,0.4503960390076145,24,f,2,24,2018_Dec_11_1106,MP_PerceptionTuring2,59.906001641777856,
17,resources/videos_generated\model(vcgpdm)-dataset(walking)-mode(ELBO)-parts(1)-dyn(26)-lvm(23)_final(6)_fail.mov,resources/videos_natural\training(18).mov,True,True,left,0,16,16,16,2018-12-11 11:09:46.603321,2018-12-11 11:09:50.640552,0:00:04.037231,1,left,1,0.7011456520036745,24,f,2,24,2018_Dec_11_1106,MP_PerceptionTuring2,59.906001641777856,
18,resources/videos_generated\model(vcgpdm)-dataset(walking)-mode(ELBO)-parts(2)-dyn(27)-lvm(18)_final(8).mov,resources/videos_natural\training(27).mov,True,False,right,0,17,17,17,2018-12-11 11:09:52.458656,2018-12-11 11:09:56.561890,0:00:04.103234,1,left,0,0.6841201910624477,24,f,2,24,2018_Dec_11_1106,MP_PerceptionTuring2,59.906001641777856,
19,resources/videos_generated\model(vcgpdm)-dataset(walking)-mode(ELBO)-parts(1)-dyn(25)-lvm(24)_final(4).mov,resources/videos_natural\training(29).mov,False,False,right,0,18,18,18,2018-12-11 11:09:58.363994,2018-12-11 11:10:02.350222,0:00:03.986228,1,left,0,0.4005526475884835,24,f,2,24,2018_Dec_11_1106,MP_PerceptionTuring2,59.906001641777856,
20,resources/videos_generated\model(tmp)-dataset(walking)-numprim(14)_final(3).mov,resources/videos_natural\training(27).mov,True,True,left,0,19,19,19,2018-12-11 11:10:03.868308,2018-12-11 11:10:07.788533,0:00:03.920225,1,right,0,0.2671004523577949,24,f,2,24,2018_Dec_11_1106,MP_PerceptionTuring2,59.906001641777856,
21,resources/videos_generated\model(dmp)-dataset(walking)-npsi(80)_final(9).mov,resources/videos_natural\training(13).mov,True,True,left,0,20,20,20,2018-12-11 11:10:09.173612,2018-12-11 11:10:13.109837,0:00:03.936225,1,left,1,0.4673989121727118,24,f,2,24,2018_Dec_11_1106,MP_PerceptionTuring2,59.906001641777856,
22,resources/videos_generated\model(dmp)-dataset(walking)-npsi(90)_final(5).mov,resources/videos_natural\training(13).mov,False,False,right,0,21,21,21,2018-12-11 11:10:14.694928,2018-12-11 11:10:18.598151,0:00:03.903223,1,right,1,0.33377776037673357,24,f,2,24,2018_Dec_11_1106,MP_PerceptionTuring2,59.906001641777856,
23,resources/videos_generated\model(vcgpdm)-dataset(walking)-mode(ELBO)-parts(1)-dyn(22)-lvm(23)_final(9).mov,resources/videos_natural\training(8).mov,True,True,left,0,22,22,22,2018-12-11 11:10:20.049234,2018-12-11 11:10:23.969458,0:00:03.920224,1,left,1,0.31880899174188926,24,f,2,24,2018_Dec_11_1106,MP_PerceptionTuring2,59.906001641777856,
24,resources/videos_generated\model(dmp)-dataset(walking)-npsi(80)_final(3).mov,resources/videos_natural\training(38).mov,False,False,right,0,23,23,23,2018-12-11 11:10:25.403540,2018-12-11 11:10:29.323764,0:00:03.920224,1,right,1,0.2838346815725572,24,f,2,24,2018_Dec_11_1106,MP_PerceptionTuring2,59.906001641777856,
25,resources/videos_generated\model(tmp)-dataset(walking)-numprim(11)_final(3).mov,resources/videos_natural\training(12).mov,True,True,left,0,24,24,24,2018-12-11 11:10:30.725845,2018-12-11 11:10:34.645069,0:00:03.919224,1,left,1,0.45060595474012644,24,f,2,24,2018_Dec_11_1106,MP_PerceptionTuring2,59.906001641777856,
26,resources/videos_generated\model(vcgpdm)-dataset(walking)-mode(ELBO)-parts(1)-dyn(25)-lvm(28)_final(5).mov,resources/videos_natural\training(46).mov,False,False,right,0,25,25,25,2018-12-11 11:10:36.213158,2018-12-11 11:10:40.116382,0:00:03.903224,1,right,1,0.48404248911265313,24,f,2,24,2018_Dec_11_1106,MP_PerceptionTuring2,59.906001641777856,
27,resources/videos_generated\model(dmp)-dataset(walking)-npsi(60)_final(3).mov,resources/videos_natural\training(26).mov,True,False,right,0,26,26,26,2018-12-11 11:10:41.718473,2018-12-11 11:10:45.621697,0:00:03.903224,1,left,0,1.1344559960004972,24,f,2,24,2018_Dec_11_1106,MP_PerceptionTuring2,59.906001641777856,
28,resources/videos_generated\model(vcgpdm)-dataset(walking)-mode(ELBO)-parts(1)-dyn(28)-lvm(27)_final(0).mov,resources/videos_natural\training(48).mov,True,True,left,0,27,27,27,2018-12-11 11:10:47.872825,2018-12-11 11:10:51.944058,0:00:04.071233,1,left,1,0.2839165999072293,24,f,2,24,2018_Dec_11_1106,MP_PerceptionTuring2,59.906001641777856,
29,resources/videos_generated\model(dmp)-dataset(walking)-npsi(80)_final(1).mov,resources/videos_natural\training(46).mov,False,True,left,0,28,28,28,2018-12-11 11:10:53.345138,2018-12-11 11:10:57.448373,0:00:04.103235,1,left,1,1.0345056891078457,24,f,2,24,2018_Dec_11_1106,MP_PerceptionTuring2,59.906001641777856,
30,resources/videos_generated\model(vcgpdm)-dataset(walking)-mode(ELBO)-parts(2)-dyn(28)-lvm(21)_final(8).mov,resources/videos_natural\training(25).mov,False,True,left,0,29,29,29,2018-12-11 11:10:59.600496,2018-12-11 11:11:03.670729,0:00:04.070233,1,right,0,0.5674127660087152,24,f,2,24,2018_Dec_11_1106,MP_PerceptionTuring2,59.906001641777856,
31,resources/videos_generated\model(vcgpdm)-dataset(walking)-mode(ELBO)-parts(1)-dyn(25)-lvm(24)_final(8).mov,resources/videos_natural\training(35).mov,False,False,right,0,30,30,30,2018-12-11 11:11:05.354825,2018-12-11 11:11:09.258048,0:00:03.903223,1,left,0,0.3339717140809171,24,f,2,24,2018_Dec_11_1106,MP_PerceptionTuring2,59.906001641777856,
32,resources/videos_generated\model(vcgpdm)-dataset(walking)-mode(ELBO)-parts(1)-dyn(25)-lvm(24)_final(6).mov,resources/videos_natural\training(47).mov,False,True,left,0,31,31,31,2018-12-11 11:11:10.710131,2018-12-11 11:11:14.613355,0:00:03.903224,1,left,1,0.3004680187207214,24,f,2,24,2018_Dec_11_1106,MP_PerceptionTuring2,59.906001641777856,
33,resources/videos_generated\model(vcgpdm)-dataset(walking)-mode(ELBO)-parts(2)-dyn(24)-lvm(19)_final(4).mov,resources/videos_natural\training(42).mov,False,False,right,0,32,32,32,2018-12-11 11:11:16.031436,2018-12-11 11:11:19.984662,0:00:03.953226,1,right,1,0.30048759479336695,24,f,2,24,2018_Dec_11_1106,MP_PerceptionTuring2,59.906001641777856,
34,resources/videos_generated\model(vcgpdm)-dataset(walking)-mode(ELBO)-parts(2)-dyn(28)-lvm(17)_final(4).mov,resources/videos_natural\training(32).mov,False,True,left,0,33,33,33,2018-12-11 11:11:21.402743,2018-12-11 11:11:25.305966,0:00:03.903223,1,left,1,0.4507655750245476,24,f,2,24,2018_Dec_11_1106,MP_PerceptionTuring2,59.906001641777856,
35,resources/videos_generated\model(vcgpdm)-dataset(walking)-mode(ELBO)-parts(1)-dyn(27)-lvm(22)_final(8).mov,resources/videos_natural\training(40).mov,False,True,left,0,34,34,34,2018-12-11 11:11:26.874056,2018-12-11 11:11:30.794280,0:00:03.920224,1,right,0,0.2505493347147194,24,f,2,24,2018_Dec_11_1106,MP_PerceptionTuring2,59.906001641777856,
36,resources/videos_generated\model(vcgpdm)-dataset(walking)-mode(ELBO)-parts(1)-dyn(28)-lvm(27)_final(6).mov,resources/videos_natural\training(43).mov,False,False,right,0,35,35,35,2018-12-11 11:11:32.161358,2018-12-11 11:11:36.081583,0:00:03.920225,1,right,1,0.48398797727975307,24,f,2,24,2018_Dec_11_1106,MP_PerceptionTuring2,59.906001641777856,
37,resources/videos_generated\model(tmp)-dataset(walking)-numprim(13)_final(7).mov,resources/videos_natural\training(31).mov,False,False,right,0,36,36,36,2018-12-11 11:11:37.682674,2018-12-11 11:11:41.602898,0:00:03.920224,1,right,1,0.43397623163605203,24,f,2,24,2018_Dec_11_1106,MP_PerceptionTuring2,59.906001641777856,
38,resources/videos_generated\model(vcgpdm)-dataset(walking)-mode(ELBO)-parts(2)-dyn(23)-lvm(18)_final(2).mov,resources/videos_natural\training(3).mov,False,False,right,0,37,37,37,2018-12-11 11:11:43.154987,2018-12-11 11:11:47.058210,0:00:03.903223,1,left,0,0.9676910474101987,24,f,2,24,2018_Dec_11_1106,MP_PerceptionTuring2,59.906001641777856,
39,resources/videos_generated\model(vcgpdm)-dataset(walking)-mode(ELBO)-parts(1)-dyn(24)-lvm(25)_final(9).mov,resources/videos_natural\training(25).mov,True,False,right,0,38,38,38,2018-12-11 11:11:49.143330,2018-12-11 11:11:53.046553,0:00:03.903223,1,left,0,0.25044121455982804,24,f,2,24,2018_Dec_11_1106,MP_PerceptionTuring2,59.906001641777856,
40,resources/videos_generated\model(vcgpdm)-dataset(walking)-mode(ELBO)-parts(1)-dyn(27)-lvm(24)_final(2).mov,resources/videos_natural\training(22).mov,True,True,left,0,39,39,39,2018-12-11 11:11:54.414631,2018-12-11 11:11:58.484864,0:00:04.070233,1,left,1,0.30042495136103753,24,f,2,24,2018_Dec_11_1106,MP_PerceptionTuring2,59.906001641777856,
41,resources/videos_generated\model(vcgpdm)-dataset(walking)-mode(ELBO)-parts(1)-dyn(27)-lvm(26)_final(6).mov,resources/videos_natural\training(48).mov,False,False,right,0,40,40,40,2018-12-11 11:11:59.901945,2018-12-11 11:12:03.822169,0:00:03.920224,1,right,1,0.3673136809642301,24,f,2,24,2018_Dec_11_1106,MP_PerceptionTuring2,59.906001641777856,
42,resources/videos_generated\model(tmp)-dataset(walking)-numprim(13)_final(9).mov,resources/videos_natural\training(24).mov,True,True,left,0,41,41,41,2018-12-11 11:12:05.307254,2018-12-11 11:12:09.227478,0:00:03.920224,1,right,0,1.7851173660845916,24,f,2,24,2018_Dec_11_1106,MP_PerceptionTuring2,59.906001641777856,
43,resources/videos_generated\model(vcgpdm)-dataset(walking)-mode(ELBO)-parts(1)-dyn(27)-lvm(26)_final(2).mov,resources/videos_natural\training(7).mov,True,True,left,0,42,42,42,2018-12-11 11:12:12.129644,2018-12-11 11:12:16.049869,0:00:03.920225,1,left,1,0.4007384696932377,24,f,2,24,2018_Dec_11_1106,MP_PerceptionTuring2,59.906001641777856,
44,resources/videos_generated\model(vcgpdm)-dataset(walking)-mode(ELBO)-parts(2)-dyn(22)-lvm(17)_final(4).mov,resources/videos_natural\training(47).mov,True,True,left,0,43,43,43,2018-12-11 11:12:17.567956,2018-12-11 11:12:21.638188,0:00:04.070232,1,left,1,0.3837961317680083,24,f,2,24,2018_Dec_11_1106,MP_PerceptionTuring2,59.906001641777856,
45,resources/videos_generated\model(vcgpdm)-dataset(walking)-mode(ELBO)-parts(1)-dyn(28)-lvm(27)_final(4).mov,resources/videos_natural\training(39).mov,False,True,left,0,44,44,44,2018-12-11 11:12:23.139274,2018-12-11 11:12:27.075499,0:00:03.936225,1,right,0,0.4506161945320173,24,f,2,24,2018_Dec_11_1106,MP_PerceptionTuring2,59.906001641777856,
46,resources/videos_generated\model(vcgpdm)-dataset(walking)-mode(ELBO)-parts(2)-dyn(28)-lvm(23)_final(6).mov,resources/videos_natural\training(12).mov,True,True,left,0,45,45,45,2018-12-11 11:13:00.955437,2018-12-11 11:13:04.875661,0:00:03.920224,2,left,1,1.8183545256868001,24,f,2,24,2018_Dec_11_1106,MP_PerceptionTuring2,59.906001641777856,
47,resources/videos_generated\model(vcgpdm)-dataset(walking)-mode(ELBO)-parts(1)-dyn(23)-lvm(28)_final(9).mov,resources/videos_natural\training(48).mov,True,False,right,0,46,46,46,2018-12-11 11:13:07.810829,2018-12-11 11:13:11.748054,0:00:03.937225,2,right,1,0.5841659689552898,24,f,2,24,2018_Dec_11_1106,MP_PerceptionTuring2,59.906001641777856,
48,resources/videos_generated\model(vcgpdm)-dataset(walking)-mode(ELBO)-parts(1)-dyn(23)-lvm(26)_final(8)_hip-corrected.mov,resources/videos_natural\training(6).mov,True,True,left,0,47,47,47,2018-12-11 11:13:13.449152,2018-12-11 11:13:17.386377,0:00:03.937225,2,left,1,0.3342749926213173,24,f,2,24,2018_Dec_11_1106,MP_PerceptionTuring2,59.906001641777856,
49,resources/videos_generated\model(vcgpdm)-dataset(walking)-mode(ELBO)-parts(2)-dyn(27)-lvm(20)_final(6).mov,resources/videos_natural\training(42).mov,False,True,left,0,48,48,48,2018-12-11 11:13:18.837460,2018-12-11 11:13:22.740683,0:00:03.903223,2,right,0,0.3838967226643035,24,f,2,24,2018_Dec_11_1106,MP_PerceptionTuring2,59.906001641777856,
50,resources/videos_generated\model(dmp)-dataset(walking)-npsi(50)_final(3).mov,resources/videos_natural\training(4).mov,True,True,left,0,49,49,49,2018-12-11 11:13:24.241769,2018-12-11 11:13:28.161993,0:00:03.920224,2,left,1,0.3005300598123313,24,f,2,24,2018_Dec_11_1106,MP_PerceptionTuring2,59.906001641777856,
51,resources/videos_generated\model(vcgpdm)-dataset(walking)-mode(ELBO)-parts(1)-dyn(27)-lvm(26)_final(0).mov,resources/videos_natural\training(22).mov,True,True,left,0,50,50,50,2018-12-11 11:13:29.581074,2018-12-11 11:13:33.667308,0:00:04.086234,2,left,1,0.41727211945624276,24,f,2,24,2018_Dec_11_1106,MP_PerceptionTuring2,59.906001641777856,
52,resources/videos_generated\model(vcgpdm)-dataset(walking)-mode(ELBO)-parts(1)-dyn(28)-lvm(25)_final(4).mov,resources/videos_natural\training(6).mov,False,True,left,0,51,51,51,2018-12-11 11:13:35.201396,2018-12-11 11:13:39.121620,0:00:03.920224,2,right,0,0.36719682686930355,24,f,2,24,2018_Dec_11_1106,MP_PerceptionTuring2,59.906001641777856,
53,resources/videos_generated\model(vcgpdm)-dataset(walking)-mode(ELBO)-parts(2)-dyn(25)-lvm(20)_final(2).mov,resources/videos_natural\training(3).mov,True,True,left,0,52,52,52,2018-12-11 11:13:40.605705,2018-12-11 11:13:44.525929,0:00:03.920224,2,left,1,0.30034544238912986,24,f,2,24,2018_Dec_11_1106,MP_PerceptionTuring2,59.906001641777856,
54,resources/videos_generated\model(vcgpdm)-dataset(walking)-mode(ELBO)-parts(2)-dyn(26)-lvm(17)_final(4).mov,resources/videos_natural\training(23).mov,True,False,right,0,53,53,53,2018-12-11 11:13:45.944010,2018-12-11 11:13:49.865235,0:00:03.921225,2,left,0,0.33518241887975364,24,f,2,24,2018_Dec_11_1106,MP_PerceptionTuring2,59.906001641777856,
55,resources/videos_generated\model(vcgpdm)-dataset(walking)-mode(ELBO)-parts(1)-dyn(26)-lvm(27)_final(8).mov,resources/videos_natural\training(37).mov,False,True,left,0,54,54,54,2018-12-11 11:13:51.315318,2018-12-11 11:13:55.268544,0:00:03.953226,2,right,0,0.23394460874953893,24,f,2,24,2018_Dec_11_1106,MP_PerceptionTuring2,59.906001641777856,
56,resources/videos_generated\model(vcgpdm)-dataset(walking)-mode(ELBO)-parts(2)-dyn(25)-lvm(18)_final(8).mov,resources/videos_natural\training(45).mov,True,False,right,0,55,55,55,2018-12-11 11:13:56.619621,2018-12-11 11:14:00.556846,0:00:03.937225,2,left,0,1.0843954607604473,24,f,2,24,2018_Dec_11_1106,MP_PerceptionTuring2,59.906001641777856,
57,resources/videos_generated\model(dmp)-dataset(walking)-npsi(100)_final(5).mov,resources/videos_natural\training(7).mov,True,False,right,0,56,56,56,2018-12-11 11:14:02.758972,2018-12-11 11:14:06.829205,0:00:04.070233,2,left,0,0.28386238924440477,24,f,2,24,2018_Dec_11_1106,MP_PerceptionTuring2,59.906001641777856,
58,resources/videos_generated\model(vcgpdm)-dataset(walking)-mode(ELBO)-parts(2)-dyn(28)-lvm(19)_final(4).mov,resources/videos_natural\training(13).mov,True,True,left,0,57,57,57,2018-12-11 11:14:08.230285,2018-12-11 11:14:12.183511,0:00:03.953226,2,left,1,0.2672260403930977,24,f,2,24,2018_Dec_11_1106,MP_PerceptionTuring2,59.906001641777856,
59,resources/videos_generated\model(vcgpdm)-dataset(walking)-mode(ELBO)-parts(2)-dyn(22)-lvm(17)_final(0).mov,resources/videos_natural\training(38).mov,True,True,left,0,58,58,58,2018-12-11 11:14:13.567590,2018-12-11 11:14:17.554818,0:00:03.987228,2,left,1,0.2504240478499469,24,f,2,24,2018_Dec_11_1106,MP_PerceptionTuring2,59.906001641777856,
60,resources/videos_generated\model(vcgpdm)-dataset(walking)-mode(ELBO)-parts(2)-dyn(27)-lvm(20)_final(4).mov,resources/videos_natural\training(6).mov,False,False,right,0,59,59,59,2018-12-11 11:14:18.922897,2018-12-11 11:14:22.976128,0:00:04.053231,2,right,1,0.4174477017688787,24,f,2,24,2018_Dec_11_1106,MP_PerceptionTuring2,59.906001641777856,
61,resources/videos_generated\model(vcgpdm)-dataset(walking)-mode(ELBO)-parts(2)-dyn(23)-lvm(20)_final(4).mov,resources/videos_natural\training(29).mov,True,True,left,0,60,60,60,2018-12-11 11:14:24.511216,2018-12-11 11:14:28.397439,0:00:03.886223,2,left,1,0.5840409832610476,24,f,2,24,2018_Dec_11_1106,MP_PerceptionTuring2,59.906001641777856,
62,resources/videos_generated\model(vcgpdm)-dataset(walking)-mode(ELBO)-parts(1)-dyn(25)-lvm(26)_final(3)_fail.mov,resources/videos_natural\training(9).mov,False,False,right,0,61,61,61,2018-12-11 11:14:30.098536,2018-12-11 11:14:34.035761,0:00:03.937225,2,right,1,0.2672118853865868,24,f,2,24,2018_Dec_11_1106,MP_PerceptionTuring2,59.906001641777856,
63,resources/videos_generated\model(vcgpdm)-dataset(walking)-mode(ELBO)-parts(2)-dyn(27)-lvm(22)_final(2).mov,resources/videos_natural\training(28).mov,True,True,left,0,62,62,62,2018-12-11 11:14:35.419840,2018-12-11 11:14:39.340064,0:00:03.920224,2,left,1,0.3505399984339874,24,f,2,24,2018_Dec_11_1106,MP_PerceptionTuring2,59.906001641777856,
64,resources/videos_generated\model(vcgpdm)-dataset(walking)-mode(ELBO)-parts(1)-dyn(26)-lvm(25)_final(4).mov,resources/videos_natural\training(45).mov,False,False,right,0,63,63,63,2018-12-11 11:14:40.808148,2018-12-11 11:14:44.895382,0:00:04.087234,2,right,1,0.8677323077479286,24,f,2,24,2018_Dec_11_1106,MP_PerceptionTuring2,59.906001641777856,
65,resources/videos_generated\model(vcgpdm)-dataset(walking)-mode(ELBO)-parts(1)-dyn(27)-lvm(22)_final(6).mov,resources/videos_natural\training(37).mov,True,True,left,0,64,64,64,2018-12-11 11:14:46.880496,2018-12-11 11:14:50.799720,0:00:03.919224,2,left,1,0.2672564585980126,24,f,2,24,2018_Dec_11_1106,MP_PerceptionTuring2,59.906001641777856,
66,resources/videos_generated\model(vcgpdm)-dataset(walking)-mode(ELBO)-parts(1)-dyn(27)-lvm(28)_final(2).mov,resources/videos_natural\training(41).mov,False,True,left,0,65,65,65,2018-12-11 11:14:52.184799,2018-12-11 11:14:56.255032,0:00:04.070233,2,right,0,0.4339756292954462,24,f,2,24,2018_Dec_11_1106,MP_PerceptionTuring2,59.906001641777856,
67,resources/videos_generated\model(vcgpdm)-dataset(walking)-mode(ELBO)-parts(2)-dyn(28)-lvm(19)_final(6).mov,resources/videos_natural\training(1).mov,False,False,right,0,66,66,66,2018-12-11 11:14:57.806121,2018-12-11 11:15:01.709344,0:00:03.903223,2,right,1,0.40064932327027236,24,f,2,24,2018_Dec_11_1106,MP_PerceptionTuring2,59.906001641777856,
68,resources/videos_generated\model(vcgpdm)-dataset(walking)-mode(ELBO)-parts(2)-dyn(24)-lvm(19)_final(8).mov,resources/videos_natural\training(39).mov,True,True,left,0,67,67,67,2018-12-11 11:15:03.227431,2018-12-11 11:15:07.147655,0:00:03.920224,2,left,1,0.3004553695661798,24,f,2,24,2018_Dec_11_1106,MP_PerceptionTuring2,59.906001641777856,
69,resources/videos_generated\model(tmp)-dataset(walking)-numprim(12)_final(7).mov,resources/videos_natural\training(35).mov,True,True,left,0,68,68,68,2018-12-11 11:15:08.565736,2018-12-11 11:15:12.485960,0:00:03.920224,2,left,1,0.6173293418223693,24,f,2,24,2018_Dec_11_1106,MP_PerceptionTuring2,59.906001641777856,
70,resources/videos_generated\model(vcgpdm)-dataset(walking)-mode(ELBO)-parts(1)-dyn(25)-lvm(26)_final(1).mov,resources/videos_natural\training(26).mov,False,True,left,0,69,69,69,2018-12-11 11:15:14.220059,2018-12-11 11:15:18.140284,0:00:03.920225,2,left,1,0.250461995313799,24,f,2,24,2018_Dec_11_1106,MP_PerceptionTuring2,59.906001641777856,
71,resources/videos_generated\model(vcgpdm)-dataset(walking)-mode(ELBO)-parts(2)-dyn(23)-lvm(20)_final(0).mov,resources/videos_natural\training(4).mov,False,False,right,0,70,70,70,2018-12-11 11:15:19.508362,2018-12-11 11:15:23.428586,0:00:03.920224,2,right,1,0.33389310862003185,24,f,2,24,2018_Dec_11_1106,MP_PerceptionTuring2,59.906001641777856,
72,resources/videos_generated\model(vcgpdm)-dataset(walking)-mode(ELBO)-parts(2)-dyn(24)-lvm(19)_final(6).mov,resources/videos_natural\training(24).mov,True,False,right,0,71,71,71,2018-12-11 11:15:24.879669,2018-12-11 11:15:28.816894,0:00:03.937225,2,left,0,0.5173796372703237,24,f,2,24,2018_Dec_11_1106,MP_PerceptionTuring2,59.906001641777856,
73,resources/videos_generated\model(vcgpdm)-dataset(walking)-mode(ELBO)-parts(2)-dyn(22)-lvm(17)_final(6).mov,resources/videos_natural\training(21).mov,False,False,right,0,72,72,72,2018-12-11 11:15:30.450988,2018-12-11 11:15:34.554222,0:00:04.103234,2,right,1,0.2838750383991737,24,f,2,24,2018_Dec_11_1106,MP_PerceptionTuring2,59.906001641777856,
74,resources/videos_generated\model(dmp)-dataset(walking)-npsi(50)_final(9).mov,resources/videos_natural\training(23).mov,True,False,right,0,73,73,73,2018-12-11 11:15:35.956303,2018-12-11 11:15:39.876527,0:00:03.920224,2,left,0,0.3172158006011614,24,f,2,24,2018_Dec_11_1106,MP_PerceptionTuring2,59.906001641777856,
75,resources/videos_generated\model(dmp)-dataset(walking)-npsi(50)_final(7).mov,resources/videos_natural\training(42).mov,False,True,left,0,74,74,74,2018-12-11 11:15:41.310609,2018-12-11 11:15:45.380842,0:00:04.070233,2,right,0,0.30054752769274273,24,f,2,24,2018_Dec_11_1106,MP_PerceptionTuring2,59.906001641777856,
76,resources/videos_generated\model(vcgpdm)-dataset(walking)-mode(ELBO)-parts(1)-dyn(24)-lvm(25)_final(7).mov,resources/videos_natural\training(36).mov,True,False,right,0,75,75,75,2018-12-11 11:15:46.798923,2018-12-11 11:15:50.885157,0:00:04.086234,2,left,0,0.38384612604568247,24,f,2,24,2018_Dec_11_1106,MP_PerceptionTuring2,59.906001641777856,
77,resources/videos_generated\model(vcgpdm)-dataset(walking)-mode(ELBO)-parts(2)-dyn(26)-lvm(19)_final(2).mov,resources/videos_natural\training(3).mov,False,True,left,0,76,76,76,2018-12-11 11:15:52.387242,2018-12-11 11:15:56.373470,0:00:03.986228,2,right,0,0.36725224221322605,24,f,2,24,2018_Dec_11_1106,MP_PerceptionTuring2,59.906001641777856,
78,resources/videos_generated\model(tmp)-dataset(walking)-numprim(15)_final(7).mov,resources/videos_natural\training(19).mov,True,False,right,0,77,77,77,2018-12-11 11:15:57.858555,2018-12-11 11:16:01.961790,0:00:04.103235,2,left,0,0.23380546804901314,24,f,2,24,2018_Dec_11_1106,MP_PerceptionTuring2,59.906001641777856,
79,resources/videos_generated\model(vcgpdm)-dataset(walking)-mode(ELBO)-parts(2)-dyn(25)-lvm(22)_final(2).mov,resources/videos_natural\training(11).mov,False,False,right,0,78,78,78,2018-12-11 11:16:03.312867,2018-12-11 11:16:07.416102,0:00:04.103235,2,right,1,0.25051470012454047,24,f,2,24,2018_Dec_11_1106,MP_PerceptionTuring2,59.906001641777856,
80,resources/videos_generated\model(vcgpdm)-dataset(walking)-mode(ELBO)-parts(1)-dyn(22)-lvm(22)_final(3).mov,resources/videos_natural\training(16).mov,True,True,left,0,79,79,79,2018-12-11 11:16:08.784180,2018-12-11 11:16:12.704405,0:00:03.920225,2,left,1,0.43408374945033756,24,f,2,24,2018_Dec_11_1106,MP_PerceptionTuring2,59.906001641777856,
81,resources/videos_generated\model(vcgpdm)-dataset(walking)-mode(ELBO)-parts(1)-dyn(22)-lvm(28)_final(2).mov,resources/videos_natural\training(10).mov,False,True,left,0,80,80,80,2018-12-11 11:16:14.255493,2018-12-11 11:16:18.359728,0:00:04.104235,2,right,0,0.3172441106137285,24,f,2,24,2018_Dec_11_1106,MP_PerceptionTuring2,59.906001641777856,
82,resources/videos_generated\model(dmp)-dataset(walking)-npsi(90)_final(3).mov,resources/videos_natural\training(47).mov,True,True,left,0,81,81,81,2018-12-11 11:16:19.793810,2018-12-11 11:16:23.714034,0:00:03.920224,2,left,1,0.30047193393511407,24,f,2,24,2018_Dec_11_1106,MP_PerceptionTuring2,59.906001641777856,
83,resources/videos_generated\model(vcgpdm)-dataset(walking)-mode(ELBO)-parts(2)-dyn(27)-lvm(18)_final(4).mov,resources/videos_natural\training(8).mov,True,True,left,0,82,82,82,2018-12-11 11:16:25.132115,2018-12-11 11:16:29.035339,0:00:03.903224,2,left,1,0.26704443467315286,24,f,2,24,2018_Dec_11_1106,MP_PerceptionTuring2,59.906001641777856,
84,resources/videos_generated\model(vcgpdm)-dataset(walking)-mode(ELBO)-parts(2)-dyn(26)-lvm(21)_final(2).mov,resources/videos_natural\training(43).mov,False,True,left,0,83,83,83,2018-12-11 11:16:30.419418,2018-12-11 11:16:34.439648,0:00:04.020230,2,left,1,0.21700708954995207,24,f,2,24,2018_Dec_11_1106,MP_PerceptionTuring2,59.906001641777856,
85,resources/videos_generated\model(vcgpdm)-dataset(walking)-mode(ELBO)-parts(2)-dyn(23)-lvm(18)_final(4).mov,resources/videos_natural\training(39).mov,True,False,right,0,84,84,84,2018-12-11 11:16:35.774724,2018-12-11 11:16:39.844957,0:00:04.070233,2,left,0,0.3006863672230793,24,f,2,24,2018_Dec_11_1106,MP_PerceptionTuring2,59.906001641777856,
86,resources/videos_generated\model(dmp)-dataset(walking)-npsi(100)_final(7).mov,resources/videos_natural\training(0).mov,False,True,left,0,85,85,85,2018-12-11 11:16:41.262038,2018-12-11 11:16:45.332271,0:00:04.070233,2,left,1,0.26704232648080506,24,f,2,24,2018_Dec_11_1106,MP_PerceptionTuring2,59.906001641777856,
87,resources/videos_generated\model(vcgpdm)-dataset(walking)-mode(ELBO)-parts(2)-dyn(28)-lvm(19)_final(0).mov,resources/videos_natural\training(14).mov,True,False,right,0,86,86,86,2018-12-11 11:16:46.717350,2018-12-11 11:16:50.804584,0:00:04.087234,2,left,0,0.2503312873827781,24,f,2,24,2018_Dec_11_1106,MP_PerceptionTuring2,59.906001641777856,
88,resources/videos_generated\model(vcgpdm)-dataset(walking)-mode(ELBO)-parts(2)-dyn(23)-lvm(22)_final(6).mov,resources/videos_natural\training(28).mov,True,True,left,0,87,87,87,2018-12-11 11:16:52.171662,2018-12-11 11:16:56.091886,0:00:03.920224,2,left,1,0.24973918647856408,24,f,2,24,2018_Dec_11_1106,MP_PerceptionTuring2,59.906001641777856,
89,resources/videos_generated\model(vcgpdm)-dataset(walking)-mode(ELBO)-parts(2)-dyn(24)-lvm(17)_final(0).mov,resources/videos_natural\training(12).mov,True,True,left,0,88,88,88,2018-12-11 11:16:57.459964,2018-12-11 11:17:01.547198,0:00:04.087234,2,left,1,0.33385154711209,24,f,2,24,2018_Dec_11_1106,MP_PerceptionTuring2,59.906001641777856,
90,resources/videos_generated\model(vcgpdm)-dataset(walking)-mode(ELBO)-parts(1)-dyn(24)-lvm(27)_final(7).mov,resources/videos_natural\training(25).mov,False,False,right,0,89,89,89,2018-12-11 11:17:02.998281,2018-12-11 11:17:06.951507,0:00:03.953226,2,right,1,0.35065865955107256,24,f,2,24,2018_Dec_11_1106,MP_PerceptionTuring2,59.906001641777856,
91,resources/videos_generated\model(tmp)-dataset(walking)-numprim(12)_final(3).mov,resources/videos_natural\training(9).mov,True,True,left,0,90,90,90,2018-12-11 11:17:45.217696,2018-12-11 11:17:49.237926,0:00:04.020230,3,left,1,0.4172817569071867,24,f,2,24,2018_Dec_11_1106,MP_PerceptionTuring2,59.906001641777856,
92,resources/videos_generated\model(vcgpdm)-dataset(walking)-mode(ELBO)-parts(2)-dyn(26)-lvm(19)_final(0).mov,resources/videos_natural\training(5).mov,True,False,right,0,91,91,91,2018-12-11 11:17:50.772014,2018-12-11 11:17:54.709239,0:00:03.937225,3,right,1,0.2506514314625292,24,f,2,24,2018_Dec_11_1106,MP_PerceptionTuring2,59.906001641777856,
93,resources/videos_generated\model(vcgpdm)-dataset(walking)-mode(ELBO)-parts(1)-dyn(27)-lvm(28)_final(4).mov,resources/videos_natural\training(21).mov,True,True,left,0,92,92,92,2018-12-11 11:17:56.077317,2018-12-11 11:17:59.997541,0:00:03.920224,3,left,1,0.26709954884677245,24,f,2,24,2018_Dec_11_1106,MP_PerceptionTuring2,59.906001641777856,
94,resources/videos_generated\model(vcgpdm)-dataset(walking)-mode(ELBO)-parts(2)-dyn(26)-lvm(23)_final(2).mov,resources/videos_natural\training(24).mov,False,True,left,0,93,93,93,2018-12-11 11:18:01.381621,2018-12-11 11:18:05.318846,0:00:03.937225,3,right,0,0.2670760575597342,24,f,2,24,2018_Dec_11_1106,MP_PerceptionTuring2,59.906001641777856,
95,resources/videos_generated\model(vcgpdm)-dataset(walking)-mode(ELBO)-parts(2)-dyn(26)-lvm(17)_final(2).mov,resources/videos_natural\training(20).mov,True,False,right,0,94,94,94,2018-12-11 11:18:06.702925,2018-12-11 11:18:10.840162,0:00:04.137237,3,left,0,1.3346180256476146,24,f,2,24,2018_Dec_11_1106,MP_PerceptionTuring2,59.906001641777856,
96,resources/videos_generated\model(vcgpdm)-dataset(walking)-mode(ELBO)-parts(1)-dyn(27)-lvm(24)_final(4).mov,resources/videos_natural\training(22).mov,False,True,left,0,95,95,95,2018-12-11 11:18:13.292302,2018-12-11 11:18:17.212526,0:00:03.920224,3,right,0,0.5006752239200978,24,f,2,24,2018_Dec_11_1106,MP_PerceptionTuring2,59.906001641777856,
97,resources/videos_generated\model(vcgpdm)-dataset(walking)-mode(ELBO)-parts(1)-dyn(28)-lvm(24)_final(5).mov,resources/videos_natural\training(30).mov,False,False,right,0,96,96,96,2018-12-11 11:18:18.830619,2018-12-11 11:18:22.916852,0:00:04.086233,3,right,1,0.3840424891127441,24,f,2,24,2018_Dec_11_1106,MP_PerceptionTuring2,59.906001641777856,
98,resources/videos_generated\model(vcgpdm)-dataset(walking)-mode(ELBO)-parts(1)-dyn(27)-lvm(22)_final(0).mov,resources/videos_natural\training(45).mov,True,False,right,0,97,97,97,2018-12-11 11:18:24.417938,2018-12-11 11:18:28.322161,0:00:03.904223,3,left,0,0.3170962359731675,24,f,2,24,2018_Dec_11_1106,MP_PerceptionTuring2,59.906001641777856,
99,resources/videos_generated\model(vcgpdm)-dataset(walking)-mode(ELBO)-parts(1)-dyn(24)-lvm(23)_final(9).mov,resources/videos_natural\training(13).mov,True,True,left,0,98,98,98,2018-12-11 11:18:29.756243,2018-12-11 11:18:33.676468,0:00:03.920225,3,left,1,0.3173308476739294,24,f,2,24,2018_Dec_11_1106,MP_PerceptionTuring2,59.906001641777856,
100,resources/videos_generated\model(vcgpdm)-dataset(walking)-mode(ELBO)-parts(1)-dyn(22)-lvm(25)_final(9).mov,resources/videos_natural\training(6).mov,False,False,right,0,99,99,99,2018-12-11 11:18:35.110550,2018-12-11 11:18:39.214784,0:00:04.104234,3,right,1,0.43394581343090977,24,f,2,24,2018_Dec_11_1106,MP_PerceptionTuring2,59.906001641777856,
101,resources/videos_generated\model(vcgpdm)-dataset(walking)-mode(ELBO)-parts(2)-dyn(23)-lvm(22)_final(4).mov,resources/videos_natural\training(14).mov,False,True,left,0,100,100,100,2018-12-11 11:18:40.765873,2018-12-11 11:18:44.853107,0:00:04.087234,3,left,1,0.2671667098343278,24,f,2,24,2018_Dec_11_1106,MP_PerceptionTuring2,59.906001641777856,
102,resources/videos_generated\model(vcgpdm)-dataset(walking)-mode(ELBO)-parts(1)-dyn(24)-lvm(23)_final(3)_fail.mov,resources/videos_natural\training(33).mov,True,False,right,0,101,101,101,2018-12-11 11:18:46.237186,2018-12-11 11:18:50.157410,0:00:03.920224,3,right,1,0.26707726224094586,24,f,2,24,2018_Dec_11_1106,MP_PerceptionTuring2,59.906001641777856,
103,resources/videos_generated\model(vcgpdm)-dataset(walking)-mode(ELBO)-parts(2)-dyn(22)-lvm(21)_final(4).mov,resources/videos_natural\training(37).mov,True,True,left,0,102,102,102,2018-12-11 11:18:51.541490,2018-12-11 11:18:55.545719,0:00:04.004229,3,left,1,0.3340671850810395,24,f,2,24,2018_Dec_11_1106,MP_PerceptionTuring2,59.906001641777856,
104,resources/videos_generated\model(vcgpdm)-dataset(walking)-mode(ELBO)-parts(2)-dyn(22)-lvm(21)_final(0).mov,resources/videos_natural\training(40).mov,False,False,right,0,103,103,103,2018-12-11 11:18:56.996802,2018-12-11 11:19:00.967029,0:00:03.970227,3,right,1,0.21702756913373378,24,f,2,24,2018_Dec_11_1106,MP_PerceptionTuring2,59.906001641777856,
105,resources/videos_generated\model(vcgpdm)-dataset(walking)-mode(ELBO)-parts(1)-dyn(23)-lvm(24)_final(0).mov,resources/videos_natural\training(35).mov,False,False,right,0,104,104,104,2018-12-11 11:19:02.301105,2018-12-11 11:19:06.221329,0:00:03.920224,3,right,1,0.4173266312891428,24,f,2,24,2018_Dec_11_1106,MP_PerceptionTuring2,59.906001641777856,
106,resources/videos_generated\model(vcgpdm)-dataset(walking)-mode(ELBO)-parts(2)-dyn(25)-lvm(18)_final(2).mov,resources/videos_natural\training(32).mov,True,False,right,0,105,105,105,2018-12-11 11:19:07.755417,2018-12-11 11:19:11.859652,0:00:04.104235,3,right,1,0.3673194032007814,24,f,2,24,2018_Dec_11_1106,MP_PerceptionTuring2,59.906001641777856,
107,resources/videos_generated\model(vcgpdm)-dataset(walking)-mode(ELBO)-parts(2)-dyn(28)-lvm(21)_final(4).mov,resources/videos_natural\training(14).mov,False,True,left,0,106,106,106,2018-12-11 11:19:13.343737,2018-12-11 11:19:17.447971,0:00:04.104234,3,left,1,0.3338413073204265,24,f,2,24,2018_Dec_11_1106,MP_PerceptionTuring2,59.906001641777856,
108,resources/videos_generated\model(vcgpdm)-dataset(walking)-mode(ELBO)-parts(2)-dyn(27)-lvm(18)_final(6).mov,resources/videos_natural\training(13).mov,True,True,left,0,107,107,107,2018-12-11 11:19:18.899054,2018-12-11 11:19:22.852280,0:00:03.953226,3,left,1,0.28381751486267603,24,f,2,24,2018_Dec_11_1106,MP_PerceptionTuring2,59.906001641777856,
109,resources/videos_generated\model(vcgpdm)-dataset(walking)-mode(ELBO)-parts(2)-dyn(27)-lvm(18)_final(0).mov,resources/videos_natural\training(36).mov,False,True,left,0,108,108,108,2018-12-11 11:19:24.253361,2018-12-11 11:19:28.173585,0:00:03.920224,3,left,1,0.8510306049306564,24,f,2,24,2018_Dec_11_1106,MP_PerceptionTuring2,59.906001641777856,
110,resources/videos_generated\model(vcgpdm)-dataset(walking)-mode(ELBO)-parts(1)-dyn(28)-lvm(25)_final(6).mov,resources/videos_natural\training(14).mov,True,True,left,0,109,109,109,2018-12-11 11:19:30.141697,2018-12-11 11:19:34.061922,0:00:03.920225,3,left,1,0.3004493461592119,24,f,2,24,2018_Dec_11_1106,MP_PerceptionTuring2,59.906001641777856,
111,resources/videos_generated\model(vcgpdm)-dataset(walking)-mode(ELBO)-parts(1)-dyn(23)-lvm(26)_final(4)_hip-corrected.mov,resources/videos_natural\training(35).mov,True,False,right,0,110,110,110,2018-12-11 11:19:35.480003,2018-12-11 11:19:39.400227,0:00:03.920224,3,right,1,0.23376119600766287,24,f,2,24,2018_Dec_11_1106,MP_PerceptionTuring2,59.906001641777856,
112,resources/videos_generated\model(tmp)-dataset(walking)-numprim(13)_final(1).mov,resources/videos_natural\training(32).mov,False,False,right,0,111,111,111,2018-12-11 11:19:40.751304,2018-12-11 11:19:44.671528,0:00:03.920224,3,right,1,0.3006044488884072,24,f,2,24,2018_Dec_11_1106,MP_PerceptionTuring2,59.906001641777856,
113,resources/videos_generated\model(vcgpdm)-dataset(walking)-mode(ELBO)-parts(2)-dyn(24)-lvm(21)_final(2).mov,resources/videos_natural\training(16).mov,True,False,right,0,112,112,112,2018-12-11 11:19:46.088609,2018-12-11 11:19:50.009834,0:00:03.921225,3,left,0,0.31734801438392424,24,f,2,24,2018_Dec_11_1106,MP_PerceptionTuring2,59.906001641777856,
114,resources/videos_generated\model(vcgpdm)-dataset(walking)-mode(ELBO)-parts(1)-dyn(23)-lvm(27)_final(7).mov,resources/videos_natural\training(34).mov,True,True,left,0,113,113,113,2018-12-11 11:19:51.443916,2018-12-11 11:19:55.397142,0:00:03.953226,3,left,1,0.41719863389130296,24,f,2,24,2018_Dec_11_1106,MP_PerceptionTuring2,59.906001641777856,
115,resources/videos_generated\model(dmp)-dataset(walking)-npsi(70)_final(5).mov,resources/videos_natural\training(16).mov,True,True,left,0,114,114,114,2018-12-11 11:19:56.931230,2018-12-11 11:20:00.868455,0:00:03.937225,3,left,1,0.2837548714303466,24,f,2,24,2018_Dec_11_1106,MP_PerceptionTuring2,59.906001641777856,
116,resources/videos_generated\model(vcgpdm)-dataset(walking)-mode(ELBO)-parts(2)-dyn(27)-lvm(22)_final(8).mov,resources/videos_natural\training(9).mov,False,True,left,0,115,115,115,2018-12-11 11:20:02.269535,2018-12-11 11:20:06.389771,0:00:04.120236,3,left,1,0.2169965485877583,24,f,2,24,2018_Dec_11_1106,MP_PerceptionTuring2,59.906001641777856,
117,resources/videos_generated\model(vcgpdm)-dataset(walking)-mode(ELBO)-parts(1)-dyn(26)-lvm(23)_final(8).mov,resources/videos_natural\training(35).mov,True,False,right,0,116,116,116,2018-12-11 11:20:07.724847,2018-12-11 11:20:11.628070,0:00:03.903223,3,right,1,0.2838593775411482,24,f,2,24,2018_Dec_11_1106,MP_PerceptionTuring2,59.906001641777856,
118,resources/videos_generated\model(vcgpdm)-dataset(walking)-mode(ELBO)-parts(2)-dyn(28)-lvm(17)_final(6).mov,resources/videos_natural\training(38).mov,True,False,right,0,117,117,117,2018-12-11 11:20:13.029150,2018-12-11 11:20:16.999377,0:00:03.970227,3,right,1,0.35052765044974876,24,f,2,24,2018_Dec_11_1106,MP_PerceptionTuring2,59.906001641777856,
119,resources/videos_generated\model(vcgpdm)-dataset(walking)-mode(ELBO)-parts(2)-dyn(26)-lvm(17)_final(0).mov,resources/videos_natural\training(19).mov,False,False,right,0,118,118,118,2018-12-11 11:20:18.466461,2018-12-11 11:20:22.470690,0:00:04.004229,3,right,1,0.2838102867744965,24,f,2,24,2018_Dec_11_1106,MP_PerceptionTuring2,59.906001641777856,
120,resources/videos_generated\model(vcgpdm)-dataset(walking)-mode(ELBO)-parts(2)-dyn(23)-lvm(22)_final(8).mov,resources/videos_natural\training(8).mov,False,False,right,0,119,119,119,2018-12-11 11:20:23.871771,2018-12-11 11:20:27.858999,0:00:03.987228,3,right,1,0.21716430047172253,24,f,2,24,2018_Dec_11_1106,MP_PerceptionTuring2,59.906001641777856,
121,resources/videos_generated\model(vcgpdm)-dataset(walking)-mode(ELBO)-parts(1)-dyn(25)-lvm(26)_final(7).mov,resources/videos_natural\training(36).mov,False,True,left,0,120,120,120,2018-12-11 11:20:29.193075,2018-12-11 11:20:33.180303,0:00:03.987228,3,right,0,0.2671962245285613,24,f,2,24,2018_Dec_11_1106,MP_PerceptionTuring2,59.906001641777856,
122,resources/videos_generated\model(vcgpdm)-dataset(walking)-mode(ELBO)-parts(1)-dyn(26)-lvm(25)_final(8).mov,resources/videos_natural\training(37).mov,False,False,right,0,121,121,121,2018-12-11 11:20:34.564382,2018-12-11 11:20:38.651616,0:00:04.087234,3,right,1,0.31737481854497673,24,f,2,24,2018_Dec_11_1106,MP_PerceptionTuring2,59.906001641777856,
123,resources/videos_generated\model(vcgpdm)-dataset(walking)-mode(ELBO)-parts(2)-dyn(24)-lvm(23)_final(6).mov,resources/videos_natural\training(32).mov,False,True,left,0,122,122,122,2018-12-11 11:20:40.085698,2018-12-11 11:20:44.005922,0:00:03.920224,3,left,1,0.33379462591619813,24,f,2,24,2018_Dec_11_1106,MP_PerceptionTuring2,59.906001641777856,
124,resources/videos_generated\model(vcgpdm)-dataset(walking)-mode(ELBO)-parts(2)-dyn(22)-lvm(23)_final(2).mov,resources/videos_natural\training(20).mov,True,False,right,0,123,123,123,2018-12-11 11:20:45.457005,2018-12-11 11:20:49.377229,0:00:03.920224,3,right,1,0.6840144802704344,24,f,2,24,2018_Dec_11_1106,MP_PerceptionTuring2,59.906001641777856,
125,resources/videos_generated\model(vcgpdm)-dataset(walking)-mode(ELBO)-parts(2)-dyn(22)-lvm(17)_final(8).mov,resources/videos_natural\training(16).mov,True,False,right,0,124,124,124,2018-12-11 11:20:51.178332,2018-12-11 11:20:55.098557,0:00:03.920225,3,right,1,1.818730386281004,24,f,2,24,2018_Dec_11_1106,MP_PerceptionTuring2,59.906001641777856,
126,resources/videos_generated\model(vcgpdm)-dataset(walking)-mode(ELBO)-parts(1)-dyn(26)-lvm(23)_final(4)_fail.mov,resources/videos_natural\training(18).mov,False,True,left,0,125,125,125,2018-12-11 11:20:58.034725,2018-12-11 11:21:01.920947,0:00:03.886222,3,left,1,0.3839006378789236,24,f,2,24,2018_Dec_11_1106,MP_PerceptionTuring2,59.906001641777856,
127,resources/videos_generated\model(vcgpdm)-dataset(walking)-mode(ELBO)-parts(2)-dyn(28)-lvm(23)_final(0).mov,resources/videos_natural\training(40).mov,True,True,left,0,126,126,126,2018-12-11 11:21:03.423033,2018-12-11 11:21:07.359258,0:00:03.936225,3,left,1,0.30060685825105793,24,f,2,24,2018_Dec_11_1106,MP_PerceptionTuring2,59.906001641777856,
128,resources/videos_generated\model(vcgpdm)-dataset(walking)-mode(ELBO)-parts(2)-dyn(24)-lvm(17)_final(8).mov,resources/videos_natural\training(0).mov,False,False,right,0,127,127,127,2018-12-11 11:21:08.777339,2018-12-11 11:21:12.880574,0:00:04.103235,3,right,1,0.667524500207719,24,f,2,24,2018_Dec_11_1106,MP_PerceptionTuring2,59.906001641777856,
129,resources/videos_generated\model(vcgpdm)-dataset(walking)-mode(ELBO)-parts(1)-dyn(28)-lvm(25)_final(2).mov,resources/videos_natural\training(10).mov,False,True,left,0,128,128,128,2018-12-11 11:21:14.665676,2018-12-11 11:21:18.585900,0:00:03.920224,3,right,0,0.28386690679963067,24,f,2,24,2018_Dec_11_1106,MP_PerceptionTuring2,59.906001641777856,
130,resources/videos_generated\model(vcgpdm)-dataset(walking)-mode(ELBO)-parts(1)-dyn(23)-lvm(26)_final(2).mov,resources/videos_natural\training(8).mov,False,True,left,0,129,129,129,2018-12-11 11:21:19.986980,2018-12-11 11:21:23.890203,0:00:03.903223,3,right,0,0.38388106180605064,24,f,2,24,2018_Dec_11_1106,MP_PerceptionTuring2,59.906001641777856,
131,resources/videos_generated\model(vcgpdm)-dataset(walking)-mode(ELBO)-parts(1)-dyn(26)-lvm(27)_final(4).mov,resources/videos_natural\training(31).mov,False,False,right,0,130,130,130,2018-12-11 11:21:25.391289,2018-12-11 11:21:29.311513,0:00:03.920224,3,right,1,0.35056740493564575,24,f,2,24,2018_Dec_11_1106,MP_PerceptionTuring2,59.906001641777856,
132,resources/videos_generated\model(vcgpdm)-dataset(walking)-mode(ELBO)-parts(2)-dyn(23)-lvm(20)_final(8).mov,resources/videos_natural\training(5).mov,True,True,left,0,131,131,131,2018-12-11 11:21:30.779597,2018-12-11 11:21:34.882832,0:00:04.103235,3,left,1,0.2337636053703136,24,f,2,24,2018_Dec_11_1106,MP_PerceptionTuring2,59.906001641777856,
133,resources/videos_generated\model(vcgpdm)-dataset(walking)-mode(ELBO)-parts(1)-dyn(22)-lvm(23)_final(3)_fail.mov,resources/videos_natural\training(12).mov,True,False,right,0,132,132,132,2018-12-11 11:21:36.233909,2018-12-11 11:21:40.138133,0:00:03.904224,3,right,1,0.4005318668343989,24,f,2,24,2018_Dec_11_1106,MP_PerceptionTuring2,59.906001641777856,
134,resources/videos_generated\model(vcgpdm)-dataset(walking)-mode(ELBO)-parts(1)-dyn(24)-lvm(23)_final(7).mov,resources/videos_natural\training(39).mov,False,True,left,0,133,133,133,2018-12-11 11:21:41.655219,2018-12-11 11:21:45.592445,0:00:03.937226,3,right,0,0.2504297700866118,24,f,2,24,2018_Dec_11_1106,MP_PerceptionTuring2,59.906001641777856,
135,resources/videos_generated\model(vcgpdm)-dataset(walking)-mode(ELBO)-parts(1)-dyn(25)-lvm(22)_final(9).mov,resources/videos_natural\training(41).mov,False,False,right,0,134,134,134,2018-12-11 11:21:46.960523,2018-12-11 11:21:51.063758,0:00:04.103235,3,right,1,0.6007348556490797,24,f,2,24,2018_Dec_11_1106,MP_PerceptionTuring2,59.906001641777856,
136,resources/videos_generated\model(vcgpdm)-dataset(walking)-mode(ELBO)-parts(1)-dyn(23)-lvm(26)_final(0).mov,resources/videos_natural\training(10).mov,False,False,right,0,135,135,135,2018-12-11 11:22:24.392664,2018-12-11 11:22:28.345890,0:00:03.953226,4,left,0,0.33399038664242653,24,f,2,24,2018_Dec_11_1106,MP_PerceptionTuring2,59.906001641777856,
137,resources/videos_generated\model(vcgpdm)-dataset(walking)-mode(ELBO)-parts(1)-dyn(28)-lvm(27)_final(8).mov,resources/videos_natural\training(38).mov,True,True,left,0,136,136,136,2018-12-11 11:22:29.796973,2018-12-11 11:22:33.700196,0:00:03.903223,4,left,1,0.3005348785379738,24,f,2,24,2018_Dec_11_1106,MP_PerceptionTuring2,59.906001641777856,
138,resources/videos_generated\model(vcgpdm)-dataset(walking)-mode(ELBO)-parts(2)-dyn(22)-lvm(23)_final(8).mov,resources/videos_natural\training(0).mov,False,False,right,0,137,137,137,2018-12-11 11:22:35.118277,2018-12-11 11:22:39.038502,0:00:03.920225,4,right,1,0.2003565856921341,24,f,2,24,2018_Dec_11_1106,MP_PerceptionTuring2,59.906001641777856,
139,resources/videos_generated\model(tmp)-dataset(walking)-numprim(14)_final(1).mov,resources/videos_natural\training(45).mov,False,True,left,0,138,138,138,2018-12-11 11:22:40.356577,2018-12-11 11:22:44.259800,0:00:03.903223,4,right,0,0.26711099332010235,24,f,2,24,2018_Dec_11_1106,MP_PerceptionTuring2,59.906001641777856,
140,resources/videos_generated\model(vcgpdm)-dataset(walking)-mode(ELBO)-parts(1)-dyn(22)-lvm(27)_final(5)_fail.mov,resources/videos_natural\training(0).mov,True,True,left,0,139,139,139,2018-12-11 11:22:45.644879,2018-12-11 11:22:49.714112,0:00:04.069233,4,left,1,0.33389130159798697,24,f,2,24,2018_Dec_11_1106,MP_PerceptionTuring2,59.906001641777856,
141,resources/videos_generated\model(vcgpdm)-dataset(walking)-mode(ELBO)-parts(2)-dyn(28)-lvm(21)_final(0).mov,resources/videos_natural\training(35).mov,False,True,left,0,140,140,140,2018-12-11 11:22:51.166195,2018-12-11 11:22:55.219427,0:00:04.053232,4,right,0,0.30046741637988816,24,f,2,24,2018_Dec_11_1106,MP_PerceptionTuring2,59.906001641777856,
142,resources/videos_generated\model(vcgpdm)-dataset(walking)-mode(ELBO)-parts(1)-dyn(28)-lvm(24)_final(0).mov,resources/videos_natural\training(2).mov,False,True,left,0,141,141,141,2018-12-11 11:22:56.637508,2018-12-11 11:23:00.557732,0:00:03.920224,4,right,0,0.23386269041498053,24,f,2,24,2018_Dec_11_1106,MP_PerceptionTuring2,59.906001641777856,
143,resources/videos_generated\model(vcgpdm)-dataset(walking)-mode(ELBO)-parts(1)-dyn(27)-lvm(28)_final(6).mov,resources/videos_natural\training(17).mov,True,True,left,0,142,142,142,2018-12-11 11:23:01.908810,2018-12-11 11:23:06.012044,0:00:04.103234,4,left,1,0.2671359904588826,24,f,2,24,2018_Dec_11_1106,MP_PerceptionTuring2,59.906001641777856,
144,resources/videos_generated\model(dmp)-dataset(walking)-npsi(70)_final(7).mov,resources/videos_natural\training(34).mov,True,False,right,0,143,143,143,2018-12-11 11:23:07.396124,2018-12-11 11:23:11.466356,0:00:04.070232,4,left,0,0.3005574663141033,24,f,2,24,2018_Dec_11_1106,MP_PerceptionTuring2,59.906001641777856,
145,resources/videos_generated\model(vcgpdm)-dataset(walking)-mode(ELBO)-parts(1)-dyn(22)-lvm(27)_final(3)_fail.mov,resources/videos_natural\training(5).mov,False,False,right,0,144,144,144,2018-12-11 11:23:12.884437,2018-12-11 11:23:16.787661,0:00:03.903224,4,right,1,0.2503487552630759,24,f,2,24,2018_Dec_11_1106,MP_PerceptionTuring2,59.906001641777856,
146,resources/videos_generated\model(tmp)-dataset(walking)-numprim(11)_final(1).mov,resources/videos_natural\training(37).mov,True,True,left,0,145,145,145,2018-12-11 11:23:18.155739,2018-12-11 11:23:22.208971,0:00:04.053232,4,left,1,0.2505905950522447,24,f,2,24,2018_Dec_11_1106,MP_PerceptionTuring2,59.906001641777856,
147,resources/videos_generated\model(vcgpdm)-dataset(walking)-mode(ELBO)-parts(2)-dyn(28)-lvm(17)_final(2).mov,resources/videos_natural\training(5).mov,True,False,right,0,146,146,146,2018-12-11 11:23:23.577049,2018-12-11 11:23:27.497273,0:00:03.920224,4,right,1,0.31700407784660456,24,f,2,24,2018_Dec_11_1106,MP_PerceptionTuring2,59.906001641777856,
148,resources/videos_generated\model(vcgpdm)-dataset(walking)-mode(ELBO)-parts(1)-dyn(23)-lvm(28)_final(5).mov,resources/videos_natural\training(7).mov,True,False,right,0,147,147,147,2018-12-11 11:23:28.931355,2018-12-11 11:23:32.851580,0:00:03.920225,4,right,1,0.2837563772820886,24,f,2,24,2018_Dec_11_1106,MP_PerceptionTuring2,59.906001641777856,
149,resources/videos_generated\model(vcgpdm)-dataset(walking)-mode(ELBO)-parts(2)-dyn(25)-lvm(20)_final(4).mov,resources/videos_natural\training(15).mov,False,False,right,0,148,148,148,2018-12-11 11:23:34.252660,2018-12-11 11:23:38.222887,0:00:03.970227,4,right,1,0.2672977189356516,24,f,2,24,2018_Dec_11_1106,MP_PerceptionTuring2,59.906001641777856,
150,resources/videos_generated\model(dmp)-dataset(walking)-npsi(90)_final(9).mov,resources/videos_natural\training(20).mov,True,False,right,0,149,149,149,2018-12-11 11:23:39.607966,2018-12-11 11:23:43.561192,0:00:03.953226,4,right,1,1.7516772176679751,24,f,2,24,2018_Dec_11_1106,MP_PerceptionTuring2,59.906001641777856,
151,resources/videos_generated\model(vcgpdm)-dataset(walking)-mode(ELBO)-parts(1)-dyn(25)-lvm(22)_final(1).mov,resources/videos_natural\training(32).mov,True,True,left,0,150,150,150,2018-12-11 11:23:46.430356,2018-12-11 11:23:50.517590,0:00:04.087234,4,left,1,0.3160969527582438,24,f,2,24,2018_Dec_11_1106,MP_PerceptionTuring2,59.906001641777856,
152,resources/videos_generated\model(tmp)-dataset(walking)-numprim(12)_final(1).mov,resources/videos_natural\training(3).mov,True,True,left,0,151,151,151,2018-12-11 11:23:51.951672,2018-12-11 11:23:55.854895,0:00:03.903223,4,left,1,0.23385636583748237,24,f,2,24,2018_Dec_11_1106,MP_PerceptionTuring2,59.906001641777856,
153,resources/videos_generated\model(vcgpdm)-dataset(walking)-mode(ELBO)-parts(2)-dyn(26)-lvm(17)_final(6).mov,resources/videos_natural\training(30).mov,False,False,right,0,152,152,152,2018-12-11 11:23:57.205973,2018-12-11 11:24:01.143198,0:00:03.937225,4,right,1,0.2672034526169682,24,f,2,24,2018_Dec_11_1106,MP_PerceptionTuring2,59.906001641777856,
154,resources/videos_generated\model(vcgpdm)-dataset(walking)-mode(ELBO)-parts(2)-dyn(27)-lvm(18)_final(2).mov,resources/videos_natural\training(21).mov,False,True,left,0,153,153,153,2018-12-11 11:24:02.527277,2018-12-11 11:24:06.597510,0:00:04.070233,4,right,0,0.25046771755023656,24,f,2,24,2018_Dec_11_1106,MP_PerceptionTuring2,59.906001641777856,
155,resources/videos_generated\model(vcgpdm)-dataset(walking)-mode(ELBO)-parts(1)-dyn(28)-lvm(23)_final(4)_fail.mov,resources/videos_natural\training(31).mov,True,True,left,0,154,154,154,2018-12-11 11:24:07.965588,2018-12-11 11:24:11.968817,0:00:04.003229,4,left,1,0.3170694318118876,24,f,2,24,2018_Dec_11_1106,MP_PerceptionTuring2,59.906001641777856,
156,resources/videos_generated\model(vcgpdm)-dataset(walking)-mode(ELBO)-parts(2)-dyn(25)-lvm(18)_final(4).mov,resources/videos_natural\training(11).mov,False,True,left,0,155,155,155,2018-12-11 11:24:13.403899,2018-12-11 11:24:17.490133,0:00:04.086234,4,left,1,1.5181566567682694,24,f,2,24,2018_Dec_11_1106,MP_PerceptionTuring2,59.906001641777856,
157,resources/videos_generated\model(vcgpdm)-dataset(walking)-mode(ELBO)-parts(2)-dyn(27)-lvm(22)_final(6).mov,resources/videos_natural\training(23).mov,True,False,right,0,156,156,156,2018-12-11 11:24:20.126283,2018-12-11 11:24:24.112511,0:00:03.986228,4,right,1,0.2838635939258438,24,f,2,24,2018_Dec_11_1106,MP_PerceptionTuring2,59.906001641777856,
158,resources/videos_generated\model(vcgpdm)-dataset(walking)-mode(ELBO)-parts(1)-dyn(28)-lvm(25)_final(8).mov,resources/videos_natural\training(4).mov,True,False,right,0,157,157,157,2018-12-11 11:24:25.514592,2018-12-11 11:24:29.450817,0:00:03.936225,4,left,0,0.23387172552543234,24,f,2,24,2018_Dec_11_1106,MP_PerceptionTuring2,59.906001641777856,
159,resources/videos_generated\model(vcgpdm)-dataset(walking)-mode(ELBO)-parts(2)-dyn(22)-lvm(23)_final(4).mov,resources/videos_natural\training(43).mov,True,False,right,0,158,158,158,2018-12-11 11:24:30.801894,2018-12-11 11:24:34.839125,0:00:04.037231,4,right,1,0.21711039097931462,24,f,2,24,2018_Dec_11_1106,MP_PerceptionTuring2,59.906001641777856,
160,resources/videos_generated\model(vcgpdm)-dataset(walking)-mode(ELBO)-parts(1)-dyn(27)-lvm(24)_final(6).mov,resources/videos_natural\training(28).mov,True,True,left,0,159,159,159,2018-12-11 11:24:36.173201,2018-12-11 11:24:40.093426,0:00:03.920225,4,left,1,0.4172133912384197,24,f,2,24,2018_Dec_11_1106,MP_PerceptionTuring2,59.906001641777856,
161,resources/videos_generated\model(vcgpdm)-dataset(walking)-mode(ELBO)-parts(2)-dyn(24)-lvm(21)_final(4).mov,resources/videos_natural\training(19).mov,False,True,left,0,160,160,160,2018-12-11 11:24:41.627513,2018-12-11 11:24:45.564738,0:00:03.937225,4,left,1,0.31717514260412827,24,f,2,24,2018_Dec_11_1106,MP_PerceptionTuring2,59.906001641777856,
162,resources/videos_generated\model(vcgpdm)-dataset(walking)-mode(ELBO)-parts(2)-dyn(25)-lvm(18)_final(6).mov,resources/videos_natural\training(21).mov,False,False,right,0,161,161,161,2018-12-11 11:24:46.998821,2018-12-11 11:24:50.936046,0:00:03.937225,4,right,1,0.2504894018154573,24,f,2,24,2018_Dec_11_1106,MP_PerceptionTuring2,59.906001641777856,
163,resources/videos_generated\model(vcgpdm)-dataset(walking)-mode(ELBO)-parts(1)-dyn(24)-lvm(23)_final(5).mov,resources/videos_natural\training(19).mov,False,True,left,0,162,162,162,2018-12-11 11:24:52.304124,2018-12-11 11:24:56.224348,0:00:03.920224,4,left,1,0.30047645149056734,24,f,2,24,2018_Dec_11_1106,MP_PerceptionTuring2,59.906001641777856,
164,resources/videos_generated\model(vcgpdm)-dataset(walking)-mode(ELBO)-parts(2)-dyn(26)-lvm(21)_final(6).mov,resources/videos_natural\training(45).mov,False,False,right,0,163,163,163,2018-12-11 11:24:57.641429,2018-12-11 11:25:01.595655,0:00:03.954226,4,right,1,0.2671091862978301,24,f,2,24,2018_Dec_11_1106,MP_PerceptionTuring2,59.906001641777856,
165,resources/videos_generated\model(dmp)-dataset(walking)-npsi(80)_final(7).mov,resources/videos_natural\training(9).mov,False,True,left,0,164,164,164,2018-12-11 11:25:02.979735,2018-12-11 11:25:06.882958,0:00:03.903223,4,right,0,0.10033640727851889,24,f,2,24,2018_Dec_11_1106,MP_PerceptionTuring2,59.906001641777856,
166,resources/videos_generated\model(vcgpdm)-dataset(walking)-mode(ELBO)-parts(2)-dyn(28)-lvm(19)_final(8).mov,resources/videos_natural\training(41).mov,False,False,right,0,165,165,165,2018-12-11 11:25:08.101027,2018-12-11 11:25:12.188261,0:00:04.087234,4,right,1,0.26694595196931914,24,f,2,24,2018_Dec_11_1106,MP_PerceptionTuring2,59.906001641777856,
167,resources/videos_generated\model(tmp)-dataset(walking)-numprim(14)_final(5).mov,resources/videos_natural\training(22).mov,True,False,right,0,166,166,166,2018-12-11 11:25:13.572340,2018-12-11 11:25:17.458563,0:00:03.886223,4,left,0,0.23380335985643796,24,f,2,24,2018_Dec_11_1106,MP_PerceptionTuring2,59.906001641777856,
168,resources/videos_generated\model(vcgpdm)-dataset(walking)-mode(ELBO)-parts(1)-dyn(27)-lvm(22)_final(4).mov,resources/videos_natural\training(45).mov,False,True,left,0,167,167,167,2018-12-11 11:25:18.810640,2018-12-11 11:25:22.713863,0:00:03.903223,4,left,1,1.568194303061773,24,f,2,24,2018_Dec_11_1106,MP_PerceptionTuring2,59.906001641777856,
169,resources/videos_generated\model(vcgpdm)-dataset(walking)-mode(ELBO)-parts(1)-dyn(28)-lvm(25)_final(0).mov,resources/videos_natural\training(8).mov,False,True,left,0,168,168,168,2018-12-11 11:25:25.399017,2018-12-11 11:25:29.436248,0:00:04.037231,4,right,0,0.25048157138644456,24,f,2,24,2018_Dec_11_1106,MP_PerceptionTuring2,59.906001641777856,
170,resources/videos_generated\model(vcgpdm)-dataset(walking)-mode(ELBO)-parts(2)-dyn(25)-lvm(22)_final(8).mov,resources/videos_natural\training(4).mov,False,False,right,0,169,169,169,2018-12-11 11:25:30.804326,2018-12-11 11:25:34.857558,0:00:04.053232,4,right,1,0.26719742921000034,24,f,2,24,2018_Dec_11_1106,MP_PerceptionTuring2,59.906001641777856,
171,resources/videos_generated\model(vcgpdm)-dataset(walking)-mode(ELBO)-parts(1)-dyn(25)-lvm(26)_final(9).mov,resources/videos_natural\training(22).mov,True,True,left,0,170,170,170,2018-12-11 11:25:36.241637,2018-12-11 11:25:40.361873,0:00:04.120236,4,left,1,0.31715496419087685,24,f,2,24,2018_Dec_11_1106,MP_PerceptionTuring2,59.906001641777856,
172,resources/videos_generated\model(vcgpdm)-dataset(walking)-mode(ELBO)-parts(1)-dyn(26)-lvm(27)_final(2).mov,resources/videos_natural\training(19).mov,False,True,left,0,171,171,171,2018-12-11 11:25:41.796955,2018-12-11 11:25:45.917190,0:00:04.120235,4,right,0,0.23361663424066137,24,f,2,24,2018_Dec_11_1106,MP_PerceptionTuring2,59.906001641777856,
173,resources/videos_generated\model(vcgpdm)-dataset(walking)-mode(ELBO)-parts(1)-dyn(27)-lvm(24)_final(0).mov,resources/videos_natural\training(40).mov,True,False,right,0,172,172,172,2018-12-11 11:25:47.268268,2018-12-11 11:25:51.171491,0:00:03.903223,4,right,1,0.2503490564333788,24,f,2,24,2018_Dec_11_1106,MP_PerceptionTuring2,59.906001641777856,
174,resources/videos_generated\model(vcgpdm)-dataset(walking)-mode(ELBO)-parts(1)-dyn(25)-lvm(24)_final(0).mov,resources/videos_natural\training(1).mov,True,False,right,0,173,173,173,2018-12-11 11:25:52.539569,2018-12-11 11:25:56.626803,0:00:04.087234,4,left,0,0.23370578066374037,24,f,2,24,2018_Dec_11_1106,MP_PerceptionTuring2,59.906001641777856,
175,resources/videos_generated\model(tmp)-dataset(walking)-numprim(13)_final(3).mov,resources/videos_natural\training(16).mov,True,True,left,0,174,174,174,2018-12-11 11:25:57.976880,2018-12-11 11:26:01.931106,0:00:03.954226,4,left,1,0.484011468566905,24,f,2,24,2018_Dec_11_1106,MP_PerceptionTuring2,59.906001641777856,
176,resources/videos_generated\model(vcgpdm)-dataset(walking)-mode(ELBO)-parts(2)-dyn(27)-lvm(20)_final(0).mov,resources/videos_natural\training(0).mov,True,False,right,0,175,175,175,2018-12-11 11:26:03.532198,2018-12-11 11:26:07.452422,0:00:03.920224,4,left,0,0.21712605183734013,24,f,2,24,2018_Dec_11_1106,MP_PerceptionTuring2,59.906001641777856,
177,resources/videos_generated\model(vcgpdm)-dataset(walking)-mode(ELBO)-parts(1)-dyn(22)-lvm(25)_final(5).mov,resources/videos_natural\training(33).mov,False,True,left,0,176,176,176,2018-12-11 11:26:08.786499,2018-12-11 11:26:12.906734,0:00:04.120235,4,left,1,0.4157924695366546,24,f,2,24,2018_Dec_11_1106,MP_PerceptionTuring2,59.906001641777856,
178,resources/videos_generated\model(vcgpdm)-dataset(walking)-mode(ELBO)-parts(2)-dyn(24)-lvm(21)_final(0).mov,resources/videos_natural\training(38).mov,True,False,right,0,177,177,177,2018-12-11 11:26:14.441822,2018-12-11 11:26:18.512055,0:00:04.070233,4,right,1,0.233841608490593,24,f,2,24,2018_Dec_11_1106,MP_PerceptionTuring2,59.906001641777856,
179,resources/videos_generated\model(vcgpdm)-dataset(walking)-mode(ELBO)-parts(1)-dyn(22)-lvm(22)_final(5).mov,resources/videos_natural\training(41).mov,True,False,right,0,178,178,178,2018-12-11 11:26:19.863132,2018-12-11 11:26:23.783356,0:00:03.920224,4,right,1,0.400709858510254,24,f,2,24,2018_Dec_11_1106,MP_PerceptionTuring2,59.906001641777856,
180,resources/videos_generated\model(dmp)-dataset(walking)-npsi(100)_final(1).mov,resources/videos_natural\training(38).mov,True,False,right,0,179,179,179,2018-12-11 11:26:25.301443,2018-12-11 11:26:29.387677,0:00:04.086234,4,right,1,0.6842454779273339,24,f,2,24,2018_Dec_11_1106,MP_PerceptionTuring2,59.906001641777856,
181,resources/videos_generated\model(vcgpdm)-dataset(walking)-mode(ELBO)-parts(2)-dyn(22)-lvm(17)_final(2).mov,resources/videos_natural\training(27).mov,True,True,left,0,180,180,180,2018-12-11 11:27:03.300617,2018-12-11 11:27:07.320846,0:00:04.020229,5,right,0,0.2671215342822961,24,f,2,24,2018_Dec_11_1106,MP_PerceptionTuring2,59.906001641777856,
182,resources/videos_generated\model(vcgpdm)-dataset(walking)-mode(ELBO)-parts(2)-dyn(26)-lvm(23)_final(4).mov,resources/videos_natural\training(44).mov,True,False,right,0,181,181,181,2018-12-11 11:27:08.704926,2018-12-11 11:27:12.810160,0:00:04.105234,5,right,1,1.9016489076552716,24,f,2,24,2018_Dec_11_1106,MP_PerceptionTuring2,59.906001641777856,
183,resources/videos_generated\model(dmp)-dataset(walking)-npsi(100)_final(9).mov,resources/videos_natural\training(3).mov,False,False,right,0,182,182,182,2018-12-11 11:27:15.828333,2018-12-11 11:27:19.748557,0:00:03.920224,5,right,1,0.3172447129545617,24,f,2,24,2018_Dec_11_1106,MP_PerceptionTuring2,59.906001641777856,
184,resources/videos_generated\model(vcgpdm)-dataset(walking)-mode(ELBO)-parts(2)-dyn(26)-lvm(23)_final(0).mov,resources/videos_natural\training(17).mov,True,True,left,0,183,183,183,2018-12-11 11:27:21.182639,2018-12-11 11:27:25.069862,0:00:03.887223,5,left,1,0.25048518543053433,24,f,2,24,2018_Dec_11_1106,MP_PerceptionTuring2,59.906001641777856,
185,resources/videos_generated\model(tmp)-dataset(walking)-numprim(11)_final(9).mov,resources/videos_natural\training(18).mov,False,False,right,0,184,184,184,2018-12-11 11:27:26.436940,2018-12-11 11:27:30.391166,0:00:03.954226,5,left,0,0.23381871954416056,24,f,2,24,2018_Dec_11_1106,MP_PerceptionTuring2,59.906001641777856,
186,resources/videos_generated\model(vcgpdm)-dataset(walking)-mode(ELBO)-parts(1)-dyn(26)-lvm(22)_final(2).mov,resources/videos_natural\training(29).mov,True,False,right,0,185,185,185,2018-12-11 11:27:31.742243,2018-12-11 11:27:35.828477,0:00:04.086234,5,left,0,0.23360308157498366,24,f,2,24,2018_Dec_11_1106,MP_PerceptionTuring2,59.906001641777856,
187,resources/videos_generated\model(vcgpdm)-dataset(walking)-mode(ELBO)-parts(2)-dyn(22)-lvm(21)_final(6).mov,resources/videos_natural\training(17).mov,True,False,right,0,186,186,186,2018-12-11 11:27:37.179554,2018-12-11 11:27:41.083778,0:00:03.904224,5,left,0,0.25035417632921053,24,f,2,24,2018_Dec_11_1106,MP_PerceptionTuring2,59.906001641777856,
188,resources/videos_generated\model(vcgpdm)-dataset(walking)-mode(ELBO)-parts(1)-dyn(23)-lvm(24)_final(8).mov,resources/videos_natural\training(47).mov,True,False,right,0,187,187,187,2018-12-11 11:27:42.450856,2018-12-11 11:27:46.571091,0:00:04.120235,5,right,1,0.6841301296838083,24,f,2,24,2018_Dec_11_1106,MP_PerceptionTuring2,59.906001641777856,
189,resources/videos_generated\model(vcgpdm)-dataset(walking)-mode(ELBO)-parts(2)-dyn(28)-lvm(17)_final(0).mov,resources/videos_natural\training(16).mov,True,True,left,0,188,188,188,2018-12-11 11:27:48.373195,2018-12-11 11:27:52.276418,0:00:03.903223,5,left,1,0.3172456164656978,24,f,2,24,2018_Dec_11_1106,MP_PerceptionTuring2,59.906001641777856,
190,resources/videos_generated\model(tmp)-dataset(walking)-numprim(11)_final(7).mov,resources/videos_natural\training(11).mov,True,False,right,0,189,189,189,2018-12-11 11:27:53.710500,2018-12-11 11:27:57.697728,0:00:03.987228,5,left,0,0.20035779037334578,24,f,2,24,2018_Dec_11_1106,MP_PerceptionTuring2,59.906001641777856,
191,resources/videos_generated\model(vcgpdm)-dataset(walking)-mode(ELBO)-parts(2)-dyn(27)-lvm(20)_final(2).mov,resources/videos_natural\training(9).mov,False,True,left,0,190,190,190,2018-12-11 11:27:59.015803,2018-12-11 11:28:03.136039,0:00:04.120236,5,right,0,0.20046410350619226,24,f,2,24,2018_Dec_11_1106,MP_PerceptionTuring2,59.906001641777856,
192,resources/videos_generated\model(vcgpdm)-dataset(walking)-mode(ELBO)-parts(1)-dyn(26)-lvm(25)_final(0).mov,resources/videos_natural\training(15).mov,False,True,left,0,191,191,191,2018-12-11 11:28:04.453114,2018-12-11 11:28:08.357338,0:00:03.904224,5,left,1,0.46737421620423447,24,f,2,24,2018_Dec_11_1106,MP_PerceptionTuring2,59.906001641777856,
193,resources/videos_generated\model(vcgpdm)-dataset(walking)-mode(ELBO)-parts(2)-dyn(25)-lvm(20)_final(6).mov,resources/videos_natural\training(17).mov,False,True,left,0,192,192,192,2018-12-11 11:28:09.941428,2018-12-11 11:28:13.994660,0:00:04.053232,5,left,1,0.3505216270427809,24,f,2,24,2018_Dec_11_1106,MP_PerceptionTuring2,59.906001641777856,
194,resources/videos_generated\model(vcgpdm)-dataset(walking)-mode(ELBO)-parts(2)-dyn(25)-lvm(22)_final(4).mov,resources/videos_natural\training(44).mov,True,False,right,0,193,193,193,2018-12-11 11:28:15.462744,2018-12-11 11:28:19.382968,0:00:03.920224,5,right,1,0.26717755196682447,24,f,2,24,2018_Dec_11_1106,MP_PerceptionTuring2,59.906001641777856,
195,resources/videos_generated\model(vcgpdm)-dataset(walking)-mode(ELBO)-parts(2)-dyn(22)-lvm(19)_final(2).mov,resources/videos_natural\training(23).mov,True,True,left,0,194,194,194,2018-12-11 11:28:20.768047,2018-12-11 11:28:24.704273,0:00:03.936226,5,left,1,0.3170893090550635,24,f,2,24,2018_Dec_11_1106,MP_PerceptionTuring2,59.906001641777856,
196,resources/videos_generated\model(vcgpdm)-dataset(walking)-mode(ELBO)-parts(1)-dyn(23)-lvm(24)_final(4).mov,resources/videos_natural\training(24).mov,False,True,left,0,195,195,195,2018-12-11 11:28:26.139355,2018-12-11 11:28:30.109582,0:00:03.970227,5,left,1,0.2503692348466302,24,f,2,24,2018_Dec_11_1106,MP_PerceptionTuring2,59.906001641777856,
197,resources/videos_generated\model(tmp)-dataset(walking)-numprim(11)_final(5).mov,resources/videos_natural\training(17).mov,False,True,left,0,196,196,196,2018-12-11 11:28:31.476660,2018-12-11 11:28:35.563894,0:00:04.087234,5,right,0,0.5843451653124703,24,f,2,24,2018_Dec_11_1106,MP_PerceptionTuring2,59.906001641777856,
198,resources/videos_generated\model(vcgpdm)-dataset(walking)-mode(ELBO)-parts(2)-dyn(23)-lvm(18)_final(0).mov,resources/videos_natural\training(46).mov,False,False,right,0,197,197,197,2018-12-11 11:28:37.264991,2018-12-11 11:28:41.202216,0:00:03.937225,5,left,0,0.4005062673550128,24,f,2,24,2018_Dec_11_1106,MP_PerceptionTuring2,59.906001641777856,
199,resources/videos_generated\model(vcgpdm)-dataset(walking)-mode(ELBO)-parts(1)-dyn(25)-lvm(28)_final(9).mov,resources/videos_natural\training(31).mov,False,True,left,0,198,198,198,2018-12-11 11:28:42.720303,2018-12-11 11:28:46.673529,0:00:03.953226,5,left,1,0.20044844264816675,24,f,2,24,2018_Dec_11_1106,MP_PerceptionTuring2,59.906001641777856,
200,resources/videos_generated\model(vcgpdm)-dataset(walking)-mode(ELBO)-parts(2)-dyn(24)-lvm(23)_final(2).mov,resources/videos_natural\training(6).mov,True,False,right,0,199,199,199,2018-12-11 11:28:47.991605,2018-12-11 11:28:51.910829,0:00:03.919224,5,right,1,0.2672215228378718,24,f,2,24,2018_Dec_11_1106,MP_PerceptionTuring2,59.906001641777856,
201,resources/videos_generated\model(vcgpdm)-dataset(walking)-mode(ELBO)-parts(1)-dyn(22)-lvm(25)_final(3).mov,resources/videos_natural\training(0).mov,False,False,right,0,200,200,200,2018-12-11 11:28:53.295908,2018-12-11 11:28:57.182130,0:00:03.886222,5,right,1,0.2839211174625689,24,f,2,24,2018_Dec_11_1106,MP_PerceptionTuring2,59.906001641777856,
202,resources/videos_generated\model(vcgpdm)-dataset(walking)-mode(ELBO)-parts(1)-dyn(23)-lvm(26)_final(6)_hip-corrected.mov,resources/videos_natural\training(47).mov,True,True,left,0,201,201,201,2018-12-11 11:28:58.584210,2018-12-11 11:29:02.520436,0:00:03.936226,5,left,1,0.2504824748973533,24,f,2,24,2018_Dec_11_1106,MP_PerceptionTuring2,59.906001641777856,
203,resources/videos_generated\model(vcgpdm)-dataset(walking)-mode(ELBO)-parts(2)-dyn(28)-lvm(19)_final(2).mov,resources/videos_natural\training(29).mov,True,False,right,0,202,202,202,2018-12-11 11:29:03.888514,2018-12-11 11:29:07.824739,0:00:03.936225,5,left,0,0.26718146718144453,24,f,2,24,2018_Dec_11_1106,MP_PerceptionTuring2,59.906001641777856,
204,resources/videos_generated\model(vcgpdm)-dataset(walking)-mode(ELBO)-parts(2)-dyn(28)-lvm(17)_final(8).mov,resources/videos_natural\training(7).mov,False,False,right,0,203,203,203,2018-12-11 11:29:09.209818,2018-12-11 11:29:13.130042,0:00:03.920224,5,right,1,0.3838488365788635,24,f,2,24,2018_Dec_11_1106,MP_PerceptionTuring2,59.906001641777856,
205,resources/videos_generated\model(vcgpdm)-dataset(walking)-mode(ELBO)-parts(1)-dyn(25)-lvm(22)_final(3).mov,resources/videos_natural\training(48).mov,True,False,right,0,204,204,204,2018-12-11 11:29:14.631128,2018-12-11 11:29:18.551352,0:00:03.920224,5,right,1,0.2338949156421677,24,f,2,24,2018_Dec_11_1106,MP_PerceptionTuring2,59.906001641777856,
206,resources/videos_generated\model(vcgpdm)-dataset(walking)-mode(ELBO)-parts(1)-dyn(23)-lvm(28)_final(3)_hip-corrected.mov,resources/videos_natural\training(13).mov,False,True,left,0,205,205,205,2018-12-11 11:29:19.902430,2018-12-11 11:29:23.872657,0:00:03.970227,5,right,0,0.3006414928411232,24,f,2,24,2018_Dec_11_1106,MP_PerceptionTuring2,59.906001641777856,
207,resources/videos_generated\model(tmp)-dataset(walking)-numprim(13)_final(5).mov,resources/videos_natural\training(42).mov,False,True,left,0,206,206,206,2018-12-11 11:29:25.289738,2018-12-11 11:29:29.176960,0:00:03.887222,5,right,0,0.21711701672688832,24,f,2,24,2018_Dec_11_1106,MP_PerceptionTuring2,59.906001641777856,
208,resources/videos_generated\model(vcgpdm)-dataset(walking)-mode(ELBO)-parts(1)-dyn(22)-lvm(22)_final(1).mov,resources/videos_natural\training(36).mov,False,True,left,0,207,207,207,2018-12-11 11:29:30.511036,2018-12-11 11:29:34.415260,0:00:03.904224,5,right,0,0.2671627946199351,24,f,2,24,2018_Dec_11_1106,MP_PerceptionTuring2,59.906001641777856,
209,resources/videos_generated\model(vcgpdm)-dataset(walking)-mode(ELBO)-parts(1)-dyn(23)-lvm(27)_final(0).mov,resources/videos_natural\training(1).mov,True,True,left,0,208,208,208,2018-12-11 11:29:35.799339,2018-12-11 11:29:39.702562,0:00:03.903223,5,left,1,0.2838678103107668,24,f,2,24,2018_Dec_11_1106,MP_PerceptionTuring2,59.906001641777856,
210,resources/videos_generated\model(vcgpdm)-dataset(walking)-mode(ELBO)-parts(1)-dyn(22)-lvm(22)_final(7).mov,resources/videos_natural\training(41).mov,True,False,right,0,209,209,209,2018-12-11 11:29:41.103642,2018-12-11 11:29:45.040868,0:00:03.937226,5,right,1,0.25051470012454047,24,f,2,24,2018_Dec_11_1106,MP_PerceptionTuring2,59.906001641777856,
211,resources/videos_generated\model(vcgpdm)-dataset(walking)-mode(ELBO)-parts(2)-dyn(22)-lvm(23)_final(0).mov,resources/videos_natural\training(12).mov,False,True,left,0,210,210,210,2018-12-11 11:29:46.407946,2018-12-11 11:29:50.345171,0:00:03.937225,5,left,1,0.21705979436092093,24,f,2,24,2018_Dec_11_1106,MP_PerceptionTuring2,59.906001641777856,
212,resources/videos_generated\model(dmp)-dataset(walking)-npsi(50)_final(5).mov,resources/videos_natural\training(36).mov,True,False,right,0,211,211,211,2018-12-11 11:29:51.679247,2018-12-11 11:29:55.616472,0:00:03.937225,5,left,0,0.13372475439564369,24,f,2,24,2018_Dec_11_1106,MP_PerceptionTuring2,59.906001641777856,
213,resources/videos_generated\model(vcgpdm)-dataset(walking)-mode(ELBO)-parts(1)-dyn(23)-lvm(22)_final(4)_fail.mov,resources/videos_natural\training(31).mov,False,True,left,0,212,212,212,2018-12-11 11:29:56.867544,2018-12-11 11:30:00.787768,0:00:03.920224,5,left,1,0.28390304724166526,24,f,2,24,2018_Dec_11_1106,MP_PerceptionTuring2,59.906001641777856,
214,resources/videos_generated\model(vcgpdm)-dataset(walking)-mode(ELBO)-parts(1)-dyn(22)-lvm(25)_final(1).mov,resources/videos_natural\training(7).mov,True,False,right,0,213,213,213,2018-12-11 11:30:02.188848,2018-12-11 11:30:06.125073,0:00:03.936225,5,right,1,0.2671609875976628,24,f,2,24,2018_Dec_11_1106,MP_PerceptionTuring2,59.906001641777856,
215,resources/videos_generated\model(vcgpdm)-dataset(walking)-mode(ELBO)-parts(1)-dyn(23)-lvm(28)_final(7).mov,resources/videos_natural\training(28).mov,False,True,left,0,214,214,214,2018-12-11 11:30:07.510153,2018-12-11 11:30:11.396375,0:00:03.886222,5,right,0,0.2172766370113095,24,f,2,24,2018_Dec_11_1106,MP_PerceptionTuring2,59.906001641777856,
216,resources/videos_generated\model(vcgpdm)-dataset(walking)-mode(ELBO)-parts(1)-dyn(24)-lvm(23)_final(1).mov,resources/videos_natural\training(26).mov,True,True,left,0,215,215,215,2018-12-11 11:30:12.731451,2018-12-11 11:30:16.617674,0:00:03.886223,5,left,1,0.2506926918001682,24,f,2,24,2018_Dec_11_1106,MP_PerceptionTuring2,59.906001641777856,
217,resources/videos_generated\model(vcgpdm)-dataset(walking)-mode(ELBO)-parts(1)-dyn(23)-lvm(22)_final(2).mov,resources/videos_natural\training(10).mov,False,False,right,0,216,216,216,2018-12-11 11:30:17.985752,2018-12-11 11:30:21.938978,0:00:03.953226,5,left,0,0.20040146007386284,24,f,2,24,2018_Dec_11_1106,MP_PerceptionTuring2,59.906001641777856,
218,resources/videos_generated\model(tmp)-dataset(walking)-numprim(14)_final(9).mov,resources/videos_natural\training(38).mov,True,True,left,0,217,217,217,2018-12-11 11:30:23.257053,2018-12-11 11:30:27.210280,0:00:03.953227,5,left,1,0.20029213523753242,24,f,2,24,2018_Dec_11_1106,MP_PerceptionTuring2,59.906001641777856,
219,resources/videos_generated\model(vcgpdm)-dataset(walking)-mode(ELBO)-parts(2)-dyn(26)-lvm(19)_final(8).mov,resources/videos_natural\training(25).mov,True,True,left,0,218,218,218,2018-12-11 11:30:28.528355,2018-12-11 11:30:32.481581,0:00:03.953226,5,left,1,0.08363440329117111,24,f,2,24,2018_Dec_11_1106,MP_PerceptionTuring2,59.906001641777856,
220,resources/videos_generated\model(vcgpdm)-dataset(walking)-mode(ELBO)-parts(1)-dyn(26)-lvm(27)_final(0).mov,resources/videos_natural\training(11).mov,True,False,right,0,219,219,219,2018-12-11 11:30:33.682650,2018-12-11 11:30:37.802885,0:00:04.120235,5,left,0,0.2504915100080325,24,f,2,24,2018_Dec_11_1106,MP_PerceptionTuring2,59.906001641777856,
221,resources/videos_generated\model(vcgpdm)-dataset(walking)-mode(ELBO)-parts(2)-dyn(23)-lvm(18)_final(6).mov,resources/videos_natural\training(35).mov,False,True,left,0,220,220,220,2018-12-11 11:30:39.170964,2018-12-11 11:30:43.241196,0:00:04.070232,5,left,1,0.21715948174596633,24,f,2,24,2018_Dec_11_1106,MP_PerceptionTuring2,59.906001641777856,
222,resources/videos_generated\model(vcgpdm)-dataset(walking)-mode(ELBO)-parts(1)-dyn(27)-lvm(24)_final(8).mov,resources/videos_natural\training(35).mov,True,True,left,0,221,221,221,2018-12-11 11:30:44.575273,2018-12-11 11:30:48.528499,0:00:03.953226,5,left,1,0.2173148856456919,24,f,2,24,2018_Dec_11_1106,MP_PerceptionTuring2,59.906001641777856,
223,resources/videos_generated\model(dmp)-dataset(walking)-npsi(90)_final(1).mov,resources/videos_natural\training(15).mov,False,False,right,0,222,222,222,2018-12-11 11:30:49.863575,2018-12-11 11:30:53.866804,0:00:04.003229,5,right,1,0.23381390081863174,24,f,2,24,2018_Dec_11_1106,MP_PerceptionTuring2,59.906001641777856,
224,resources/videos_generated\model(vcgpdm)-dataset(walking)-mode(ELBO)-parts(2)-dyn(24)-lvm(17)_final(4).mov,resources/videos_natural\training(7).mov,True,False,right,0,223,223,223,2018-12-11 11:30:55.217881,2018-12-11 11:30:59.121105,0:00:03.903224,5,right,1,0.10032948036064226,24,f,2,24,2018_Dec_11_1106,MP_PerceptionTuring2,59.906001641777856,
225,resources/videos_generated\model(vcgpdm)-dataset(walking)-mode(ELBO)-parts(1)-dyn(22)-lvm(25)_final(7).mov,resources/videos_natural\training(27).mov,False,True,left,0,224,224,224,2018-12-11 11:31:00.339174,2018-12-11 11:31:04.409407,0:00:04.070233,5,left,1,0.35052433757573453,24,f,2,24,2018_Dec_11_1106,MP_PerceptionTuring2,59.906001641777856,
226,resources/videos_generated\model(dmp)-dataset(walking)-npsi(60)_final(9).mov,resources/videos_natural\training(22).mov,False,True,left,0,225,225,225,2018-12-11 11:31:37.104277,2018-12-11 11:31:41.057503,0:00:03.953226,6,right,0,0.3006643817875556,24,f,2,24,2018_Dec_11_1106,MP_PerceptionTuring2,59.906001641777856,
227,resources/videos_generated\model(dmp)-dataset(walking)-npsi(70)_final(9).mov,resources/videos_natural\training(46).mov,True,True,left,0,226,226,226,2018-12-11 11:31:42.475584,2018-12-11 11:31:46.545817,0:00:04.070233,6,right,0,0.2507429872484863,24,f,2,24,2018_Dec_11_1106,MP_PerceptionTuring2,59.906001641777856,
228,resources/videos_generated\model(vcgpdm)-dataset(walking)-mode(ELBO)-parts(2)-dyn(26)-lvm(17)_final(8).mov,resources/videos_natural\training(18).mov,False,False,right,0,227,227,227,2018-12-11 11:31:47.913895,2018-12-11 11:31:51.833120,0:00:03.919225,6,right,1,0.21705106042099942,24,f,2,24,2018_Dec_11_1106,MP_PerceptionTuring2,59.906001641777856,
229,resources/videos_generated\model(vcgpdm)-dataset(walking)-mode(ELBO)-parts(1)-dyn(28)-lvm(23)_final(6)_fail.mov,resources/videos_natural\training(44).mov,False,False,right,0,228,228,228,2018-12-11 11:31:53.168196,2018-12-11 11:31:57.088420,0:00:03.920224,6,right,1,0.20047584914982508,24,f,2,24,2018_Dec_11_1106,MP_PerceptionTuring2,59.906001641777856,
230,resources/videos_generated\model(vcgpdm)-dataset(walking)-mode(ELBO)-parts(1)-dyn(26)-lvm(25)_final(2).mov,resources/videos_natural\training(44).mov,False,False,right,0,229,229,229,2018-12-11 11:31:58.405496,2018-12-11 11:32:02.325720,0:00:03.920224,6,right,1,0.2671061745941188,24,f,2,24,2018_Dec_11_1106,MP_PerceptionTuring2,59.906001641777856,
231,resources/videos_generated\model(vcgpdm)-dataset(walking)-mode(ELBO)-parts(2)-dyn(27)-lvm(22)_final(0).mov,resources/videos_natural\training(20).mov,False,True,left,0,230,230,230,2018-12-11 11:32:03.710799,2018-12-11 11:32:07.647024,0:00:03.936225,6,left,1,0.20047283744634115,24,f,2,24,2018_Dec_11_1106,MP_PerceptionTuring2,59.906001641777856,
232,resources/videos_generated\model(vcgpdm)-dataset(walking)-mode(ELBO)-parts(1)-dyn(24)-lvm(25)_final(5).mov,resources/videos_natural\training(33).mov,True,True,left,0,231,231,231,2018-12-11 11:32:08.965100,2018-12-11 11:32:12.868323,0:00:03.903223,6,left,1,0.2672007420837872,24,f,2,24,2018_Dec_11_1106,MP_PerceptionTuring2,59.906001641777856,
233,resources/videos_generated\model(vcgpdm)-dataset(walking)-mode(ELBO)-parts(2)-dyn(26)-lvm(21)_final(0).mov,resources/videos_natural\training(24).mov,False,True,left,0,232,232,232,2018-12-11 11:32:14.253402,2018-12-11 11:32:18.156625,0:00:03.903223,6,left,1,0.26716128876796574,24,f,2,24,2018_Dec_11_1106,MP_PerceptionTuring2,59.906001641777856,
234,resources/videos_generated\model(vcgpdm)-dataset(walking)-mode(ELBO)-parts(2)-dyn(22)-lvm(19)_final(6).mov,resources/videos_natural\training(14).mov,False,True,left,0,233,233,233,2018-12-11 11:32:19.540704,2018-12-11 11:32:23.644939,0:00:04.104235,6,left,1,0.40083966293013873,24,f,2,24,2018_Dec_11_1106,MP_PerceptionTuring2,59.906001641777856,
235,resources/videos_generated\model(vcgpdm)-dataset(walking)-mode(ELBO)-parts(2)-dyn(28)-lvm(23)_final(4)_fail.mov,resources/videos_natural\training(2).mov,True,True,left,0,234,234,234,2018-12-11 11:32:25.162026,2018-12-11 11:32:29.082250,0:00:03.920224,6,left,1,0.3005050626738921,24,f,2,24,2018_Dec_11_1106,MP_PerceptionTuring2,59.906001641777856,
236,resources/videos_generated\model(vcgpdm)-dataset(walking)-mode(ELBO)-parts(1)-dyn(25)-lvm(23)_final(2).mov,resources/videos_natural\training(5).mov,False,False,right,0,235,235,235,2018-12-11 11:32:30.500331,2018-12-11 11:32:34.420556,0:00:03.920225,6,right,1,0.26727392647853776,24,f,2,24,2018_Dec_11_1106,MP_PerceptionTuring2,59.906001641777856,
237,resources/videos_generated\model(dmp)-dataset(walking)-npsi(60)_final(7).mov,resources/videos_natural\training(33).mov,True,True,left,0,236,236,236,2018-12-11 11:32:35.804635,2018-12-11 11:32:39.757861,0:00:03.953226,6,left,1,0.23508363500559426,24,f,2,24,2018_Dec_11_1106,MP_PerceptionTuring2,59.906001641777856,
238,resources/videos_generated\model(dmp)-dataset(walking)-npsi(60)_final(5).mov,resources/videos_natural\training(15).mov,False,True,left,0,237,237,237,2018-12-11 11:32:41.109938,2018-12-11 11:32:45.063164,0:00:03.953226,6,right,0,0.18365548521524033,24,f,2,24,2018_Dec_11_1106,MP_PerceptionTuring2,59.906001641777856,
239,resources/videos_generated\model(vcgpdm)-dataset(walking)-mode(ELBO)-parts(1)-dyn(25)-lvm(28)_final(1).mov,resources/videos_natural\training(29).mov,True,True,left,0,238,238,238,2018-12-11 11:32:46.364239,2018-12-11 11:32:50.450472,0:00:04.086233,6,left,1,0.2672383883773364,24,f,2,24,2018_Dec_11_1106,MP_PerceptionTuring2,59.906001641777856,
240,resources/videos_generated\model(vcgpdm)-dataset(walking)-mode(ELBO)-parts(2)-dyn(22)-lvm(19)_final(4).mov,resources/videos_natural\training(22).mov,False,False,right,0,239,239,239,2018-12-11 11:32:51.835552,2018-12-11 11:32:55.938786,0:00:04.103234,6,right,1,0.2341244074473252,24,f,2,24,2018_Dec_11_1106,MP_PerceptionTuring2,59.906001641777856,
241,resources/videos_generated\model(vcgpdm)-dataset(walking)-mode(ELBO)-parts(1)-dyn(28)-lvm(27)_final(2).mov,resources/videos_natural\training(25).mov,False,False,right,0,240,240,240,2018-12-11 11:32:57.289864,2018-12-11 11:33:01.294093,0:00:04.004229,6,right,1,0.21712213662294744,24,f,2,24,2018_Dec_11_1106,MP_PerceptionTuring2,59.906001641777856,
242,resources/videos_generated\model(vcgpdm)-dataset(walking)-mode(ELBO)-parts(2)-dyn(26)-lvm(19)_final(6).mov,resources/videos_natural\training(0).mov,True,False,right,0,241,241,241,2018-12-11 11:33:02.628169,2018-12-11 11:33:06.548393,0:00:03.920224,6,left,0,2.1354838903980635,24,f,2,24,2018_Dec_11_1106,MP_PerceptionTuring2,59.906001641777856,
243,resources/videos_generated\model(vcgpdm)-dataset(walking)-mode(ELBO)-parts(2)-dyn(28)-lvm(23)_final(2).mov,resources/videos_natural\training(42).mov,False,False,right,0,242,242,242,2018-12-11 11:33:09.800579,2018-12-11 11:33:13.754805,0:00:03.954226,6,right,1,0.2504728374460683,24,f,2,24,2018_Dec_11_1106,MP_PerceptionTuring2,59.906001641777856,
244,resources/videos_generated\model(vcgpdm)-dataset(walking)-mode(ELBO)-parts(1)-dyn(25)-lvm(22)_final(5).mov,resources/videos_natural\training(23).mov,False,False,right,0,243,243,243,2018-12-11 11:33:15.121883,2018-12-11 11:33:19.042108,0:00:03.920225,6,right,1,0.28382293592903807,24,f,2,24,2018_Dec_11_1106,MP_PerceptionTuring2,59.906001641777856,
245,resources/videos_generated\model(vcgpdm)-dataset(walking)-mode(ELBO)-parts(1)-dyn(25)-lvm(24)_final(2).mov,resources/videos_natural\training(4).mov,True,True,left,0,244,244,244,2018-12-11 11:33:20.443188,2018-12-11 11:33:24.531422,0:00:04.088234,6,left,1,0.2506173992137519,24,f,2,24,2018_Dec_11_1106,MP_PerceptionTuring2,59.906001641777856,
246,resources/videos_generated\model(dmp)-dataset(walking)-npsi(50)_final(1).mov,resources/videos_natural\training(46).mov,False,True,left,0,245,245,245,2018-12-11 11:33:25.898500,2018-12-11 11:33:29.834725,0:00:03.936225,6,left,1,1.084415036833434,24,f,2,24,2018_Dec_11_1106,MP_PerceptionTuring2,59.906001641777856,
247,resources/videos_generated\model(vcgpdm)-dataset(walking)-mode(ELBO)-parts(1)-dyn(27)-lvm(22)_final(2).mov,resources/videos_natural\training(21).mov,True,True,left,0,246,246,246,2018-12-11 11:33:32.036851,2018-12-11 11:33:35.957075,0:00:03.920224,6,right,0,0.2335277889878853,24,f,2,24,2018_Dec_11_1106,MP_PerceptionTuring2,59.906001641777856,
248,resources/videos_generated\model(vcgpdm)-dataset(walking)-mode(ELBO)-parts(2)-dyn(25)-lvm(20)_final(0).mov,resources/videos_natural\training(30).mov,True,True,left,0,247,247,247,2018-12-11 11:33:37.308152,2018-12-11 11:33:41.411387,0:00:04.103235,6,left,1,0.2504692234019785,24,f,2,24,2018_Dec_11_1106,MP_PerceptionTuring2,59.906001641777856,
249,resources/videos_generated\model(vcgpdm)-dataset(walking)-mode(ELBO)-parts(2)-dyn(24)-lvm(21)_final(8).mov,resources/videos_natural\training(48).mov,True,True,left,0,248,248,248,2018-12-11 11:33:42.779465,2018-12-11 11:33:46.699690,0:00:03.920225,6,left,1,0.2505023521403018,24,f,2,24,2018_Dec_11_1106,MP_PerceptionTuring2,59.906001641777856,
250,resources/videos_generated\model(tmp)-dataset(walking)-numprim(12)_final(9).mov,resources/videos_natural\training(10).mov,False,True,left,0,249,249,249,2018-12-11 11:33:48.067768,2018-12-11 11:33:51.970991,0:00:03.903223,6,right,0,0.26717755196705184,24,f,2,24,2018_Dec_11_1106,MP_PerceptionTuring2,59.906001641777856,
251,resources/videos_generated\model(vcgpdm)-dataset(walking)-mode(ELBO)-parts(2)-dyn(27)-lvm(22)_final(4).mov,resources/videos_natural\training(19).mov,False,True,left,0,250,250,250,2018-12-11 11:33:53.355070,2018-12-11 11:33:57.459305,0:00:04.104235,6,left,1,0.3504273607236428,24,f,2,24,2018_Dec_11_1106,MP_PerceptionTuring2,59.906001641777856,
252,resources/videos_generated\model(vcgpdm)-dataset(walking)-mode(ELBO)-parts(2)-dyn(25)-lvm(18)_final(0).mov,resources/videos_natural\training(2).mov,False,False,right,0,251,251,251,2018-12-11 11:33:58.926389,2018-12-11 11:34:02.996622,0:00:04.070233,6,right,1,0.3507243146868859,24,f,2,24,2018_Dec_11_1106,MP_PerceptionTuring2,59.906001641777856,
253,resources/videos_generated\model(vcgpdm)-dataset(walking)-mode(ELBO)-parts(1)-dyn(22)-lvm(27)_final(7)_hip-corrected.mov,resources/videos_natural\training(43).mov,True,True,left,0,252,252,252,2018-12-11 11:34:04.464706,2018-12-11 11:34:08.367929,0:00:03.903223,6,right,0,0.3507041362736345,24,f,2,24,2018_Dec_11_1106,MP_PerceptionTuring2,59.906001641777856,
254,resources/videos_generated\model(vcgpdm)-dataset(walking)-mode(ELBO)-parts(1)-dyn(22)-lvm(27)_final(9)_hip-corrected.mov,resources/videos_natural\training(18).mov,True,False,right,0,253,253,253,2018-12-11 11:34:09.836013,2018-12-11 11:34:13.940248,0:00:04.104235,6,right,1,0.45065896072128453,24,f,2,24,2018_Dec_11_1106,MP_PerceptionTuring2,59.906001641777856,
255,resources/videos_generated\model(tmp)-dataset(walking)-numprim(15)_final(9).mov,resources/videos_natural\training(29).mov,False,True,left,0,254,254,254,2018-12-11 11:34:15.508337,2018-12-11 11:34:19.411561,0:00:03.903224,6,right,0,0.25051349544355617,24,f,2,24,2018_Dec_11_1106,MP_PerceptionTuring2,59.906001641777856,
256,resources/videos_generated\model(vcgpdm)-dataset(walking)-mode(ELBO)-parts(1)-dyn(22)-lvm(23)_final(5).mov,resources/videos_natural\training(20).mov,True,True,left,0,255,255,255,2018-12-11 11:34:20.778639,2018-12-11 11:34:24.782868,0:00:04.004229,6,left,1,0.28386630445902483,24,f,2,24,2018_Dec_11_1106,MP_PerceptionTuring2,59.906001641777856,
257,resources/videos_generated\model(dmp)-dataset(walking)-npsi(80)_final(5).mov,resources/videos_natural\training(17).mov,True,True,left,0,256,256,256,2018-12-11 11:34:26.183948,2018-12-11 11:34:30.270182,0:00:04.086234,6,left,1,0.2675522078798167,24,f,2,24,2018_Dec_11_1106,MP_PerceptionTuring2,59.906001641777856,
258,resources/videos_generated\model(vcgpdm)-dataset(walking)-mode(ELBO)-parts(1)-dyn(26)-lvm(23)_final(0).mov,resources/videos_natural\training(10).mov,True,True,left,0,257,257,257,2018-12-11 11:34:31.655261,2018-12-11 11:34:35.708493,0:00:04.053232,6,left,1,0.2671905022921237,24,f,2,24,2018_Dec_11_1106,MP_PerceptionTuring2,59.906001641777856,
259,resources/videos_generated\model(tmp)-dataset(walking)-numprim(12)_final(5).mov,resources/videos_natural\training(39).mov,True,False,right,0,258,258,258,2018-12-11 11:34:37.092572,2018-12-11 11:34:41.013796,0:00:03.921224,6,right,1,0.600793885037092,24,f,2,24,2018_Dec_11_1106,MP_PerceptionTuring2,59.906001641777856,
260,resources/videos_generated\model(vcgpdm)-dataset(walking)-mode(ELBO)-parts(1)-dyn(28)-lvm(23)_final(8).mov,resources/videos_natural\training(13).mov,True,True,left,0,259,259,259,2018-12-11 11:34:42.730894,2018-12-11 11:34:46.802127,0:00:04.071233,6,left,1,0.3505933055857895,24,f,2,24,2018_Dec_11_1106,MP_PerceptionTuring2,59.906001641777856,
261,resources/videos_generated\model(vcgpdm)-dataset(walking)-mode(ELBO)-parts(2)-dyn(23)-lvm(22)_final(0).mov,resources/videos_natural\training(34).mov,True,True,left,0,260,260,260,2018-12-11 11:34:48.269211,2018-12-11 11:34:52.389447,0:00:04.120236,6,left,1,0.23385997988179952,24,f,2,24,2018_Dec_11_1106,MP_PerceptionTuring2,59.906001641777856,
262,resources/videos_generated\model(vcgpdm)-dataset(walking)-mode(ELBO)-parts(1)-dyn(24)-lvm(27)_final(3).mov,resources/videos_natural\training(26).mov,False,True,left,0,261,261,261,2018-12-11 11:34:53.740524,2018-12-11 11:34:57.677749,0:00:03.937225,6,left,1,0.2340111673966021,24,f,2,24,2018_Dec_11_1106,MP_PerceptionTuring2,59.906001641777856,
263,resources/videos_generated\model(vcgpdm)-dataset(walking)-mode(ELBO)-parts(1)-dyn(23)-lvm(22)_final(6)_fail.mov,resources/videos_natural\training(34).mov,False,True,left,0,262,262,262,2018-12-11 11:34:59.028827,2018-12-11 11:35:02.949051,0:00:03.920224,6,left,1,0.31712334130406816,24,f,2,24,2018_Dec_11_1106,MP_PerceptionTuring2,59.906001641777856,
264,resources/videos_generated\model(dmp)-dataset(walking)-npsi(90)_final(7).mov,resources/videos_natural\training(47).mov,False,False,right,0,263,263,263,2018-12-11 11:35:04.383133,2018-12-11 11:35:08.320358,0:00:03.937225,6,right,1,0.21706069787205706,24,f,2,24,2018_Dec_11_1106,MP_PerceptionTuring2,59.906001641777856,
265,resources/videos_generated\model(tmp)-dataset(walking)-numprim(15)_final(5).mov,resources/videos_natural\training(34).mov,False,True,left,0,264,264,264,2018-12-11 11:35:09.654434,2018-12-11 11:35:13.758669,0:00:04.104235,6,right,0,0.21698179124041417,24,f,2,24,2018_Dec_11_1106,MP_PerceptionTuring2,59.906001641777856,
266,resources/videos_generated\model(vcgpdm)-dataset(walking)-mode(ELBO)-parts(1)-dyn(27)-lvm(28)_final(0).mov,resources/videos_natural\training(32).mov,True,False,right,0,265,265,265,2018-12-11 11:35:15.092745,2018-12-11 11:35:18.979968,0:00:03.887223,6,right,1,0.21690228226907493,24,f,2,24,2018_Dec_11_1106,MP_PerceptionTuring2,59.906001641777856,
267,resources/videos_generated\model(vcgpdm)-dataset(walking)-mode(ELBO)-parts(2)-dyn(28)-lvm(21)_final(6).mov,resources/videos_natural\training(20).mov,True,False,right,0,266,266,266,2018-12-11 11:35:20.314044,2018-12-11 11:35:24.400278,0:00:04.086234,6,right,1,0.46739891217293916,24,f,2,24,2018_Dec_11_1106,MP_PerceptionTuring2,59.906001641777856,
268,resources/videos_generated\model(vcgpdm)-dataset(walking)-mode(ELBO)-parts(2)-dyn(24)-lvm(17)_final(2).mov,resources/videos_natural\training(15).mov,False,False,right,0,267,267,267,2018-12-11 11:35:25.985368,2018-12-11 11:35:29.905593,0:00:03.920225,6,right,1,0.2171371951403671,24,f,2,24,2018_Dec_11_1106,MP_PerceptionTuring2,59.906001641777856,
269,resources/videos_generated\model(vcgpdm)-dataset(walking)-mode(ELBO)-parts(1)-dyn(23)-lvm(28)_final(1).mov,resources/videos_natural\training(36).mov,True,True,left,0,268,268,268,2018-12-11 11:35:31.239669,2018-12-11 11:35:35.159893,0:00:03.920224,6,left,1,0.31718809292897276,24,f,2,24,2018_Dec_11_1106,MP_PerceptionTuring2,59.906001641777856,
270,resources/videos_generated\model(vcgpdm)-dataset(walking)-mode(ELBO)-parts(2)-dyn(22)-lvm(23)_final(6).mov,resources/videos_natural\training(1).mov,True,True,left,0,269,269,269,2018-12-11 11:35:36.594975,2018-12-11 11:35:40.548201,0:00:03.953226,6,left,1,0.45061679687250944,24,f,2,24,2018_Dec_11_1106,MP_PerceptionTuring2,59.906001641777856,
271,resources/videos_generated\model(vcgpdm)-dataset(walking)-mode(ELBO)-parts(1)-dyn(23)-lvm(24)_final(2).mov,resources/videos_natural\training(1).mov,True,True,left,0,270,270,270,2018-12-11 11:36:13.560090,2018-12-11 11:36:17.496315,0:00:03.936225,7,left,1,0.3339334654465347,24,f,2,24,2018_Dec_11_1106,MP_PerceptionTuring2,59.906001641777856,
272,resources/videos_generated\model(vcgpdm)-dataset(walking)-mode(ELBO)-parts(1)-dyn(26)-lvm(23)_final(2).mov,resources/videos_natural\training(17).mov,False,True,left,0,271,271,271,2018-12-11 11:36:18.947398,2018-12-11 11:36:22.884623,0:00:03.937225,7,right,0,0.2670582885089061,24,f,2,24,2018_Dec_11_1106,MP_PerceptionTuring2,59.906001641777856,
273,resources/videos_generated\model(vcgpdm)-dataset(walking)-mode(ELBO)-parts(2)-dyn(26)-lvm(19)_final(4).mov,resources/videos_natural\training(44).mov,True,True,left,0,272,272,272,2018-12-11 11:36:24.268702,2018-12-11 11:36:28.155924,0:00:03.887222,7,left,1,0.06697365964100754,24,f,2,24,2018_Dec_11_1106,MP_PerceptionTuring2,59.906001641777856,
274,resources/videos_generated\model(vcgpdm)-dataset(walking)-mode(ELBO)-parts(1)-dyn(25)-lvm(25)_final(7).mov,resources/videos_natural\training(23).mov,True,True,left,0,273,273,273,2018-12-11 11:36:29.339992,2018-12-11 11:36:33.277217,0:00:03.937225,7,left,1,0.2672697100933874,24,f,2,24,2018_Dec_11_1106,MP_PerceptionTuring2,59.906001641777856,
275,resources/videos_generated\model(vcgpdm)-dataset(walking)-mode(ELBO)-parts(1)-dyn(22)-lvm(27)_final(1)_fail.mov,resources/videos_natural\training(43).mov,True,True,left,0,274,274,274,2018-12-11 11:36:34.661296,2018-12-11 11:36:38.731529,0:00:04.070233,7,left,1,0.31727242062652294,24,f,2,24,2018_Dec_11_1106,MP_PerceptionTuring2,59.906001641777856,
276,resources/videos_generated\model(vcgpdm)-dataset(walking)-mode(ELBO)-parts(2)-dyn(26)-lvm(23)_final(6).mov,resources/videos_natural\training(39).mov,True,True,left,0,275,275,275,2018-12-11 11:36:40.166611,2018-12-11 11:36:44.236844,0:00:04.070233,7,left,1,0.23376962877773622,24,f,2,24,2018_Dec_11_1106,MP_PerceptionTuring2,59.906001641777856,
277,resources/videos_generated\model(vcgpdm)-dataset(walking)-mode(ELBO)-parts(1)-dyn(22)-lvm(23)_final(1).mov,resources/videos_natural\training(2).mov,False,True,left,0,276,276,276,2018-12-11 11:36:45.587921,2018-12-11 11:36:49.641153,0:00:04.053232,7,left,1,0.20047223510528056,24,f,2,24,2018_Dec_11_1106,MP_PerceptionTuring2,59.906001641777856,
278,resources/videos_generated\model(vcgpdm)-dataset(walking)-mode(ELBO)-parts(1)-dyn(24)-lvm(25)_final(3).mov,resources/videos_natural\training(26).mov,True,False,right,0,277,277,277,2018-12-11 11:36:50.959229,2018-12-11 11:36:54.912455,0:00:03.953226,7,left,0,0.21708810437348802,24,f,2,24,2018_Dec_11_1106,MP_PerceptionTuring2,59.906001641777856,
279,resources/videos_generated\model(dmp)-dataset(walking)-npsi(100)_final(3).mov,resources/videos_natural\training(12).mov,False,True,left,0,278,278,278,2018-12-11 11:36:56.246531,2018-12-11 11:37:00.316764,0:00:04.070233,7,right,0,0.9676841204923221,24,f,2,24,2018_Dec_11_1106,MP_PerceptionTuring2,59.906001641777856,
280,resources/videos_generated\model(vcgpdm)-dataset(walking)-mode(ELBO)-parts(1)-dyn(23)-lvm(24)_final(6).mov,resources/videos_natural\training(18).mov,True,False,right,0,279,279,279,2018-12-11 11:37:02.401883,2018-12-11 11:37:06.372110,0:00:03.970227,7,right,1,0.2504924135187139,24,f,2,24,2018_Dec_11_1106,MP_PerceptionTuring2,59.906001641777856,
281,resources/videos_generated\model(vcgpdm)-dataset(walking)-mode(ELBO)-parts(2)-dyn(22)-lvm(21)_final(8).mov,resources/videos_natural\training(30).mov,False,True,left,0,280,280,280,2018-12-11 11:37:07.740189,2018-12-11 11:37:11.643412,0:00:03.903223,7,right,0,0.23378980719098763,24,f,2,24,2018_Dec_11_1106,MP_PerceptionTuring2,59.906001641777856,
282,resources/videos_generated\model(vcgpdm)-dataset(walking)-mode(ELBO)-parts(1)-dyn(27)-lvm(26)_final(8).mov,resources/videos_natural\training(21).mov,False,False,right,0,281,281,281,2018-12-11 11:37:12.994489,2018-12-11 11:37:16.897712,0:00:03.903223,7,right,1,0.3338428131719411,24,f,2,24,2018_Dec_11_1106,MP_PerceptionTuring2,59.906001641777856,
283,resources/videos_generated\model(vcgpdm)-dataset(walking)-mode(ELBO)-parts(1)-dyn(22)-lvm(23)_final(7).mov,resources/videos_natural\training(11).mov,False,True,left,0,282,282,282,2018-12-11 11:37:18.349795,2018-12-11 11:37:22.453030,0:00:04.103235,7,right,0,0.5006803438163843,24,f,2,24,2018_Dec_11_1106,MP_PerceptionTuring2,59.906001641777856,
284,resources/videos_generated\model(vcgpdm)-dataset(walking)-mode(ELBO)-parts(2)-dyn(24)-lvm(23)_final(0).mov,resources/videos_natural\training(26).mov,True,False,right,0,283,283,283,2018-12-11 11:37:24.071123,2018-12-11 11:37:27.991347,0:00:03.920224,7,left,0,0.2504041706069984,24,f,2,24,2018_Dec_11_1106,MP_PerceptionTuring2,59.906001641777856,
285,resources/videos_generated\model(dmp)-dataset(walking)-npsi(70)_final(3).mov,resources/videos_natural\training(5).mov,False,True,left,0,284,284,284,2018-12-11 11:37:29.358425,2018-12-11 11:37:33.362654,0:00:04.004229,7,left,1,0.20042284316878067,24,f,2,24,2018_Dec_11_1106,MP_PerceptionTuring2,59.906001641777856,
286,resources/videos_generated\model(vcgpdm)-dataset(walking)-mode(ELBO)-parts(2)-dyn(22)-lvm(21)_final(2).mov,resources/videos_natural\training(40).mov,True,False,right,0,285,285,285,2018-12-11 11:37:34.679729,2018-12-11 11:37:38.599954,0:00:03.920225,7,right,1,0.21706762478970631,24,f,2,24,2018_Dec_11_1106,MP_PerceptionTuring2,59.906001641777856,
287,resources/videos_generated\model(vcgpdm)-dataset(walking)-mode(ELBO)-parts(2)-dyn(24)-lvm(19)_final(2).mov,resources/videos_natural\training(14).mov,True,False,right,0,286,286,286,2018-12-11 11:37:39.935030,2018-12-11 11:37:43.854254,0:00:03.919224,7,left,0,0.350714376065298,24,f,2,24,2018_Dec_11_1106,MP_PerceptionTuring2,59.906001641777856,
288,resources/videos_generated\model(vcgpdm)-dataset(walking)-mode(ELBO)-parts(2)-dyn(23)-lvm(22)_final(2).mov,resources/videos_natural\training(6).mov,False,False,right,0,287,287,287,2018-12-11 11:37:45.322338,2018-12-11 11:37:49.242562,0:00:03.920224,7,right,1,0.06696281750873823,24,f,2,24,2018_Dec_11_1106,MP_PerceptionTuring2,59.906001641777856,
289,resources/videos_generated\model(vcgpdm)-dataset(walking)-mode(ELBO)-parts(2)-dyn(28)-lvm(21)_final(2).mov,resources/videos_natural\training(2).mov,True,False,right,0,288,288,288,2018-12-11 11:37:50.426630,2018-12-11 11:37:54.346854,0:00:03.920224,7,right,1,0.26720887368310287,24,f,2,24,2018_Dec_11_1106,MP_PerceptionTuring2,59.906001641777856,
290,resources/videos_generated\model(vcgpdm)-dataset(walking)-mode(ELBO)-parts(2)-dyn(22)-lvm(19)_final(0).mov,resources/videos_natural\training(30).mov,True,True,left,0,289,289,289,2018-12-11 11:37:55.731933,2018-12-11 11:37:59.685160,0:00:03.953227,7,left,1,0.2338093832636332,24,f,2,24,2018_Dec_11_1106,MP_PerceptionTuring2,59.906001641777856,
