n_trial,mov_file_generated,mov_file_natural,mirrored,switch_stim_pos,correct_answer,trials.thisRepN,trials.thisTrialN,trials.thisN,trials.thisIndex,stimulus_onset,stimulus_off,stimulus_length,block,response.keys,response.corr,response.rt,age,gender,condition,participant,date,expName,frameRate,
1,resources/videos_generated\model(vcgpdm)-dataset(walking)-mode(ELBO)-parts(2)-dyn(24)-lvm(21)_final(9).mov,resources/videos_natural\training(41).mov,False,False,right,0,0,0,0,2018-12-11 14:08:38.793167,2018-12-11 14:08:43.063411,0:00:04.270244,1,left,0,3.786741577770954,20,m,1,25,2018_Dec_11_1407,MP_PerceptionTuring2,59.94526107507447,
2,resources/videos_generated\model(vcgpdm)-dataset(walking)-mode(ELBO)-parts(1)-dyn(27)-lvm(26)_final(5).mov,resources/videos_natural\training(27).mov,False,False,right,0,1,1,1,2018-12-11 14:08:47.967692,2018-12-11 14:08:51.903917,0:00:03.936225,1,right,1,0.6172892861650325,20,m,1,25,2018_Dec_11_1407,MP_PerceptionTuring2,59.94526107507447,
3,resources/videos_generated\model(vcgpdm)-dataset(walking)-mode(ELBO)-parts(2)-dyn(22)-lvm(21)_final(9).mov,resources/videos_natural\training(12).mov,True,True,left,0,2,2,2,2018-12-11 14:08:53.639016,2018-12-11 14:08:57.575241,0:00:03.936225,1,left,1,2.4190161969418114,20,m,1,25,2018_Dec_11_1407,MP_PerceptionTuring2,59.94526107507447,
4,resources/videos_generated\model(tmp)-dataset(walking)-numprim(11)_final(4).mov,resources/videos_natural\training(17).mov,False,True,left,0,3,3,3,2018-12-11 14:09:01.112444,2018-12-11 14:09:05.032668,0:00:03.920224,1,right,0,0.7007270252197486,20,m,1,25,2018_Dec_11_1407,MP_PerceptionTuring2,59.94526107507447,
5,resources/videos_generated\model(vcgpdm)-dataset(walking)-mode(ELBO)-parts(2)-dyn(27)-lvm(20)_final(3).mov,resources/videos_natural\training(25).mov,False,False,right,0,4,4,4,2018-12-11 14:09:06.850772,2018-12-11 14:09:10.770996,0:00:03.920224,1,right,1,0.45068636722317024,20,m,1,25,2018_Dec_11_1407,MP_PerceptionTuring2,59.94526107507447,
6,resources/videos_generated\model(dmp)-dataset(walking)-npsi(50)_final(6).mov,resources/videos_natural\training(34).mov,True,True,left,0,5,5,5,2018-12-11 14:09:12.338086,2018-12-11 14:09:16.358316,0:00:04.020230,1,right,0,0.5840433926241531,20,m,1,25,2018_Dec_11_1407,MP_PerceptionTuring2,59.94526107507447,
7,resources/videos_generated\model(vcgpdm)-dataset(walking)-mode(ELBO)-parts(1)-dyn(26)-lvm(25)_final(3).mov,resources/videos_natural\training(4).mov,False,False,right,0,6,6,6,2018-12-11 14:09:18.060413,2018-12-11 14:09:22.146647,0:00:04.086234,1,right,1,0.46749016678950284,20,m,1,25,2018_Dec_11_1407,MP_PerceptionTuring2,59.94526107507447,
8,resources/videos_generated\model(vcgpdm)-dataset(walking)-mode(ELBO)-parts(1)-dyn(25)-lvm(23)_final(0).mov,resources/videos_natural\training(4).mov,True,True,left,0,7,7,7,2018-12-11 14:09:23.731737,2018-12-11 14:09:27.818971,0:00:04.087234,1,left,1,0.5840235153809772,20,m,1,25,2018_Dec_11_1407,MP_PerceptionTuring2,59.94526107507447,
9,resources/videos_generated\model(vcgpdm)-dataset(walking)-mode(ELBO)-parts(2)-dyn(24)-lvm(17)_final(5).mov,resources/videos_natural\training(11).mov,False,False,right,0,8,8,8,2018-12-11 14:09:29.520068,2018-12-11 14:09:33.473295,0:00:03.953227,1,left,0,0.41719592335721245,20,m,1,25,2018_Dec_11_1407,MP_PerceptionTuring2,59.94526107507447,
10,resources/videos_generated\model(vcgpdm)-dataset(walking)-mode(ELBO)-parts(1)-dyn(28)-lvm(25)_final(1).mov,resources/videos_natural\training(7).mov,False,True,left,0,9,9,9,2018-12-11 14:09:35.008382,2018-12-11 14:09:38.978609,0:00:03.970227,1,right,0,0.2837602924955718,20,m,1,25,2018_Dec_11_1407,MP_PerceptionTuring2,59.94526107507447,
11,resources/videos_generated\model(vcgpdm)-dataset(walking)-mode(ELBO)-parts(1)-dyn(26)-lvm(25)_final(1).mov,resources/videos_natural\training(20).mov,False,False,right,0,10,10,10,2018-12-11 14:09:40.379690,2018-12-11 14:09:44.315915,0:00:03.936225,1,right,1,0.4339217198048573,20,m,1,25,2018_Dec_11_1407,MP_PerceptionTuring2,59.94526107507447,
12,resources/videos_generated\model(vcgpdm)-dataset(walking)-mode(ELBO)-parts(2)-dyn(22)-lvm(19)_final(5).mov,resources/videos_natural\training(38).mov,False,False,right,0,11,11,11,2018-12-11 14:09:45.867003,2018-12-11 14:09:49.854231,0:00:03.987228,1,right,1,0.4507857534372306,20,m,1,25,2018_Dec_11_1407,MP_PerceptionTuring2,59.94526107507447,
13,resources/videos_generated\model(vcgpdm)-dataset(walking)-mode(ELBO)-parts(1)-dyn(26)-lvm(25)_final(9).mov,resources/videos_natural\training(2).mov,False,True,left,0,12,12,12,2018-12-11 14:09:51.422321,2018-12-11 14:09:55.359546,0:00:03.937225,1,left,1,0.9178792788770807,20,m,1,25,2018_Dec_11_1407,MP_PerceptionTuring2,59.94526107507447,
14,resources/videos_generated\model(vcgpdm)-dataset(walking)-mode(ELBO)-parts(2)-dyn(22)-lvm(23)_final(3).mov,resources/videos_natural\training(1).mov,False,True,left,0,13,13,13,2018-12-11 14:09:57.393663,2018-12-11 14:10:01.280885,0:00:03.887222,1,left,1,0.5171911046327295,20,m,1,25,2018_Dec_11_1407,MP_PerceptionTuring2,59.94526107507447,
15,resources/videos_generated\model(vcgpdm)-dataset(walking)-mode(ELBO)-parts(1)-dyn(24)-lvm(25)_final(4).mov,resources/videos_natural\training(1).mov,True,True,left,0,14,14,14,2018-12-11 14:10:02.915979,2018-12-11 14:10:06.852204,0:00:03.936225,1,right,0,0.5506851625414129,20,m,1,25,2018_Dec_11_1407,MP_PerceptionTuring2,59.94526107507447,
16,resources/videos_generated\model(vcgpdm)-dataset(walking)-mode(ELBO)-parts(2)-dyn(26)-lvm(23)_final(7).mov,resources/videos_natural\training(33).mov,True,True,left,0,15,15,15,2018-12-11 14:10:08.520299,2018-12-11 14:10:12.590532,0:00:04.070233,1,left,1,0.33388979574738187,20,m,1,25,2018_Dec_11_1407,MP_PerceptionTuring2,59.94526107507447,
17,resources/videos_generated\model(vcgpdm)-dataset(walking)-mode(ELBO)-parts(1)-dyn(27)-lvm(22)_final(9).mov,resources/videos_natural\training(43).mov,True,True,left,0,16,16,16,2018-12-11 14:10:14.041615,2018-12-11 14:10:17.944838,0:00:03.903223,1,right,0,0.38398315855374676,20,m,1,25,2018_Dec_11_1407,MP_PerceptionTuring2,59.94526107507447,
18,resources/videos_generated\model(vcgpdm)-dataset(walking)-mode(ELBO)-parts(2)-dyn(25)-lvm(18)_final(9).mov,resources/videos_natural\training(17).mov,True,False,right,0,17,17,17,2018-12-11 14:10:19.446924,2018-12-11 14:10:23.366148,0:00:03.919224,1,left,0,0.28385485998478543,20,m,1,25,2018_Dec_11_1407,MP_PerceptionTuring2,59.94526107507447,
19,resources/videos_generated\model(vcgpdm)-dataset(walking)-mode(ELBO)-parts(1)-dyn(26)-lvm(23)_final(3)_fail.mov,resources/videos_natural\training(40).mov,True,False,right,0,18,18,18,2018-12-11 14:10:24.768228,2018-12-11 14:10:28.671452,0:00:03.903224,1,right,1,0.46732181256265903,20,m,1,25,2018_Dec_11_1407,MP_PerceptionTuring2,59.94526107507447,
20,resources/videos_generated\model(vcgpdm)-dataset(walking)-mode(ELBO)-parts(2)-dyn(24)-lvm(23)_final(3).mov,resources/videos_natural\training(7).mov,False,False,right,0,19,19,19,2018-12-11 14:10:30.255542,2018-12-11 14:10:34.175766,0:00:03.920224,1,right,1,0.2671546630208468,20,m,1,25,2018_Dec_11_1407,MP_PerceptionTuring2,59.94526107507447,
21,resources/videos_generated\model(vcgpdm)-dataset(walking)-mode(ELBO)-parts(2)-dyn(22)-lvm(21)_final(3).mov,resources/videos_natural\training(20).mov,True,False,right,0,20,20,20,2018-12-11 14:10:35.560846,2018-12-11 14:10:39.514072,0:00:03.953226,1,right,1,0.3338214300765685,20,m,1,25,2018_Dec_11_1407,MP_PerceptionTuring2,59.94526107507447,
22,resources/videos_generated\model(vcgpdm)-dataset(walking)-mode(ELBO)-parts(1)-dyn(22)-lvm(27)_final(2)_hip-corrected.mov,resources/videos_natural\training(12).mov,False,False,right,0,21,21,21,2018-12-11 14:10:40.965155,2018-12-11 14:10:45.052389,0:00:04.087234,1,right,1,0.35050446033164917,20,m,1,25,2018_Dec_11_1407,MP_PerceptionTuring2,59.94526107507447,
23,resources/videos_generated\model(dmp)-dataset(walking)-npsi(50)_final(0).mov,resources/videos_natural\training(7).mov,False,True,left,0,22,22,22,2018-12-11 14:10:46.519473,2018-12-11 14:10:50.506701,0:00:03.987228,1,right,0,1.6517844343125034,20,m,1,25,2018_Dec_11_1407,MP_PerceptionTuring2,59.94526107507447,
24,resources/videos_generated\model(vcgpdm)-dataset(walking)-mode(ELBO)-parts(1)-dyn(22)-lvm(25)_final(0).mov,resources/videos_natural\training(22).mov,False,False,right,0,23,23,23,2018-12-11 14:10:53.275859,2018-12-11 14:10:57.196083,0:00:03.920224,1,right,1,0.38407110029584146,20,m,1,25,2018_Dec_11_1407,MP_PerceptionTuring2,59.94526107507447,
25,resources/videos_generated\model(vcgpdm)-dataset(walking)-mode(ELBO)-parts(2)-dyn(22)-lvm(23)_final(9).mov,resources/videos_natural\training(5).mov,True,True,left,0,24,24,24,2018-12-11 14:10:58.697169,2018-12-11 14:11:02.633394,0:00:03.936225,1,left,1,0.5841301296841266,20,m,1,25,2018_Dec_11_1407,MP_PerceptionTuring2,59.94526107507447,
26,resources/videos_generated\model(vcgpdm)-dataset(walking)-mode(ELBO)-parts(2)-dyn(27)-lvm(22)_final(5).mov,resources/videos_natural\training(13).mov,False,False,right,0,25,25,25,2018-12-11 14:11:04.335492,2018-12-11 14:11:08.255716,0:00:03.920224,1,right,1,0.3671450255678792,20,m,1,25,2018_Dec_11_1407,MP_PerceptionTuring2,59.94526107507447,
27,resources/videos_generated\model(vcgpdm)-dataset(walking)-mode(ELBO)-parts(2)-dyn(22)-lvm(17)_final(3).mov,resources/videos_natural\training(31).mov,False,False,right,0,26,26,26,2018-12-11 14:11:09.739801,2018-12-11 14:11:13.660025,0:00:03.920224,1,right,1,0.3673181985195697,20,m,1,25,2018_Dec_11_1407,MP_PerceptionTuring2,59.94526107507447,
28,resources/videos_generated\model(vcgpdm)-dataset(walking)-mode(ELBO)-parts(2)-dyn(25)-lvm(20)_final(3).mov,resources/videos_natural\training(14).mov,True,True,left,0,27,27,27,2018-12-11 14:11:15.145110,2018-12-11 14:11:19.048333,0:00:03.903223,1,right,0,1.2345743559471885,20,m,1,25,2018_Dec_11_1407,MP_PerceptionTuring2,59.94526107507447,
29,resources/videos_generated\model(vcgpdm)-dataset(walking)-mode(ELBO)-parts(1)-dyn(24)-lvm(23)_final(8).mov,resources/videos_natural\training(26).mov,False,False,right,0,28,28,28,2018-12-11 14:11:21.400468,2018-12-11 14:11:25.286690,0:00:03.886222,1,right,1,0.3340090592046181,20,m,1,25,2018_Dec_11_1407,MP_PerceptionTuring2,59.94526107507447,
30,resources/videos_generated\model(vcgpdm)-dataset(walking)-mode(ELBO)-parts(1)-dyn(26)-lvm(27)_final(9).mov,resources/videos_natural\training(29).mov,False,True,left,0,29,29,29,2018-12-11 14:11:26.737773,2018-12-11 14:11:30.825007,0:00:04.087234,1,left,1,0.3172115842153289,20,m,1,25,2018_Dec_11_1407,MP_PerceptionTuring2,59.94526107507447,
31,resources/videos_generated\model(vcgpdm)-dataset(walking)-mode(ELBO)-parts(1)-dyn(27)-lvm(22)_final(3).mov,resources/videos_natural\training(32).mov,True,False,right,0,30,30,30,2018-12-11 14:11:32.259089,2018-12-11 14:11:36.296320,0:00:04.037231,1,right,1,1.2180590775751625,20,m,1,25,2018_Dec_11_1407,MP_PerceptionTuring2,59.94526107507447,
32,resources/videos_generated\model(vcgpdm)-dataset(walking)-mode(ELBO)-parts(2)-dyn(27)-lvm(20)_final(5).mov,resources/videos_natural\training(16).mov,True,True,left,0,31,31,31,2018-12-11 14:11:38.631453,2018-12-11 14:11:42.568678,0:00:03.937225,1,left,1,0.7841825333252928,20,m,1,25,2018_Dec_11_1407,MP_PerceptionTuring2,59.94526107507447,
33,resources/videos_generated\model(vcgpdm)-dataset(walking)-mode(ELBO)-parts(2)-dyn(25)-lvm(22)_final(5).mov,resources/videos_natural\training(37).mov,False,False,right,0,32,32,32,2018-12-11 14:11:44.469787,2018-12-11 14:11:48.357009,0:00:03.887222,1,left,0,0.3674419795333961,20,m,1,25,2018_Dec_11_1407,MP_PerceptionTuring2,59.94526107507447,
34,resources/videos_generated\model(dmp)-dataset(walking)-npsi(100)_final(2).mov,resources/videos_natural\training(1).mov,True,False,right,0,33,33,33,2018-12-11 14:11:49.841094,2018-12-11 14:11:53.761319,0:00:03.920225,1,left,0,0.2838087809213903,20,m,1,25,2018_Dec_11_1407,MP_PerceptionTuring2,59.94526107507447,
35,resources/videos_generated\model(vcgpdm)-dataset(walking)-mode(ELBO)-parts(1)-dyn(25)-lvm(24)_final(9).mov,resources/videos_natural\training(35).mov,True,True,left,0,34,34,34,2018-12-11 14:11:55.162399,2018-12-11 14:11:59.082623,0:00:03.920224,1,left,1,1.6182985080031358,20,m,1,25,2018_Dec_11_1407,MP_PerceptionTuring2,59.94526107507447,
36,resources/videos_generated\model(vcgpdm)-dataset(walking)-mode(ELBO)-parts(2)-dyn(26)-lvm(21)_final(5).mov,resources/videos_natural\training(33).mov,False,True,left,0,35,35,35,2018-12-11 14:12:01.818779,2018-12-11 14:12:05.907013,0:00:04.088234,1,right,0,3.4031851775998803,20,m,1,25,2018_Dec_11_1407,MP_PerceptionTuring2,59.94526107507447,
37,resources/videos_generated\model(vcgpdm)-dataset(walking)-mode(ELBO)-parts(1)-dyn(25)-lvm(24)_final(3).mov,resources/videos_natural\training(39).mov,True,False,right,0,36,36,36,2018-12-11 14:12:10.426272,2018-12-11 14:12:14.345496,0:00:03.919224,1,right,1,0.31709623597271275,20,m,1,25,2018_Dec_11_1407,MP_PerceptionTuring2,59.94526107507447,
38,resources/videos_generated\model(vcgpdm)-dataset(walking)-mode(ELBO)-parts(2)-dyn(28)-lvm(19)_final(5).mov,resources/videos_natural\training(28).mov,True,True,left,0,37,37,37,2018-12-11 14:12:15.780578,2018-12-11 14:12:19.883813,0:00:04.103235,1,right,0,0.2838455237051676,20,m,1,25,2018_Dec_11_1407,MP_PerceptionTuring2,59.94526107507447,
39,resources/videos_generated\model(vcgpdm)-dataset(walking)-mode(ELBO)-parts(2)-dyn(28)-lvm(21)_final(7).mov,resources/videos_natural\training(26).mov,True,False,right,0,38,38,38,2018-12-11 14:12:21.284893,2018-12-11 14:12:25.389128,0:00:04.104235,1,left,0,0.38385726934939157,20,m,1,25,2018_Dec_11_1407,MP_PerceptionTuring2,59.94526107507447,
40,resources/videos_generated\model(vcgpdm)-dataset(walking)-mode(ELBO)-parts(1)-dyn(27)-lvm(26)_final(9).mov,resources/videos_natural\training(43).mov,False,True,left,0,39,39,39,2018-12-11 14:12:26.890213,2018-12-11 14:12:30.993448,0:00:04.103235,1,left,1,0.3673224149042653,20,m,1,25,2018_Dec_11_1407,MP_PerceptionTuring2,59.94526107507447,
41,resources/videos_generated\model(vcgpdm)-dataset(walking)-mode(ELBO)-parts(2)-dyn(25)-lvm(20)_final(5).mov,resources/videos_natural\training(47).mov,False,True,left,0,40,40,40,2018-12-11 14:12:32.478533,2018-12-11 14:12:36.414758,0:00:03.936225,1,right,0,0.28258934218320064,20,m,1,25,2018_Dec_11_1407,MP_PerceptionTuring2,59.94526107507447,
42,resources/videos_generated\model(vcgpdm)-dataset(walking)-mode(ELBO)-parts(1)-dyn(24)-lvm(25)_final(8).mov,resources/videos_natural\training(18).mov,False,True,left,0,41,41,41,2018-12-11 14:12:37.815838,2018-12-11 14:12:41.803066,0:00:03.987228,1,left,1,0.3172558562564518,20,m,1,25,2018_Dec_11_1407,MP_PerceptionTuring2,59.94526107507447,
43,resources/videos_generated\model(dmp)-dataset(walking)-npsi(90)_final(0).mov,resources/videos_natural\training(22).mov,True,False,right,0,42,42,42,2018-12-11 14:12:43.237148,2018-12-11 14:12:47.341383,0:00:04.104235,1,left,0,0.2837681229248119,20,m,1,25,2018_Dec_11_1407,MP_PerceptionTuring2,59.94526107507447,
44,resources/videos_generated\model(vcgpdm)-dataset(walking)-mode(ELBO)-parts(2)-dyn(26)-lvm(23)_final(9).mov,resources/videos_natural\training(36).mov,False,False,right,0,43,43,43,2018-12-11 14:12:48.742463,2018-12-11 14:12:52.795695,0:00:04.053232,1,right,1,0.2671423150368355,20,m,1,25,2018_Dec_11_1407,MP_PerceptionTuring2,59.94526107507447,
45,resources/videos_generated\model(tmp)-dataset(walking)-numprim(12)_final(0).mov,resources/videos_natural\training(32).mov,False,False,right,0,44,44,44,2018-12-11 14:12:54.180774,2018-12-11 14:12:58.083998,0:00:03.903224,1,right,1,0.2503704395294335,20,m,1,25,2018_Dec_11_1407,MP_PerceptionTuring2,59.94526107507447,
46,resources/videos_generated\model(vcgpdm)-dataset(walking)-mode(ELBO)-parts(1)-dyn(23)-lvm(28)_final(4)_hip-corrected.mov,resources/videos_natural\training(0).mov,True,True,left,0,45,45,45,2018-12-11 14:13:32.062941,2018-12-11 14:13:35.966164,0:00:03.903223,2,left,1,1.184497256337636,20,m,1,25,2018_Dec_11_1407,MP_PerceptionTuring2,59.94526107507447,
47,resources/videos_generated\model(dmp)-dataset(walking)-npsi(80)_final(2).mov,resources/videos_natural\training(44).mov,True,True,left,0,46,46,46,2018-12-11 14:13:38.268296,2018-12-11 14:13:42.222522,0:00:03.954226,2,left,1,0.33410091615951387,20,m,1,25,2018_Dec_11_1407,MP_PerceptionTuring2,59.94526107507447,
48,resources/videos_generated\model(vcgpdm)-dataset(walking)-mode(ELBO)-parts(2)-dyn(26)-lvm(21)_final(1).mov,resources/videos_natural\training(11).mov,False,True,left,0,47,47,47,2018-12-11 14:13:43.672605,2018-12-11 14:13:47.759839,0:00:04.087234,2,left,1,0.5673618682194501,20,m,1,25,2018_Dec_11_1407,MP_PerceptionTuring2,59.94526107507447,
49,resources/videos_generated\model(vcgpdm)-dataset(walking)-mode(ELBO)-parts(2)-dyn(27)-lvm(22)_final(7).mov,resources/videos_natural\training(24).mov,False,False,right,0,48,48,48,2018-12-11 14:13:49.444935,2018-12-11 14:13:53.415162,0:00:03.970227,2,right,1,0.35065263614342257,20,m,1,25,2018_Dec_11_1407,MP_PerceptionTuring2,59.94526107507447,
50,resources/videos_generated\model(vcgpdm)-dataset(walking)-mode(ELBO)-parts(1)-dyn(28)-lvm(25)_final(5).mov,resources/videos_natural\training(47).mov,False,True,left,0,49,49,49,2018-12-11 14:13:54.883246,2018-12-11 14:13:58.786470,0:00:03.903224,2,right,0,0.3506610689128138,20,m,1,25,2018_Dec_11_1407,MP_PerceptionTuring2,59.94526107507447,
51,resources/videos_generated\model(vcgpdm)-dataset(walking)-mode(ELBO)-parts(1)-dyn(25)-lvm(26)_final(0).mov,resources/videos_natural\training(11).mov,False,True,left,0,50,50,50,2018-12-11 14:14:00.254554,2018-12-11 14:14:04.357788,0:00:04.103234,2,left,1,0.3003752582553716,20,m,1,25,2018_Dec_11_1407,MP_PerceptionTuring2,59.94526107507447,
52,resources/videos_generated\model(vcgpdm)-dataset(walking)-mode(ELBO)-parts(2)-dyn(24)-lvm(21)_final(7).mov,resources/videos_natural\training(30).mov,True,False,right,0,51,51,51,2018-12-11 14:14:05.775869,2018-12-11 14:14:09.679093,0:00:03.903224,2,right,1,0.2838720266954624,20,m,1,25,2018_Dec_11_1407,MP_PerceptionTuring2,59.94526107507447,
53,resources/videos_generated\model(tmp)-dataset(walking)-numprim(13)_final(4).mov,resources/videos_natural\training(14).mov,True,True,left,0,52,52,52,2018-12-11 14:14:11.080173,2018-12-11 14:14:15.200408,0:00:04.120235,2,right,0,0.35057854823753587,20,m,1,25,2018_Dec_11_1407,MP_PerceptionTuring2,59.94526107507447,
54,resources/videos_generated\model(vcgpdm)-dataset(walking)-mode(ELBO)-parts(1)-dyn(23)-lvm(24)_final(3).mov,resources/videos_natural\training(19).mov,True,True,left,0,53,53,53,2018-12-11 14:14:16.668492,2018-12-11 14:14:20.755726,0:00:04.087234,2,left,1,0.6341566326755128,20,m,1,25,2018_Dec_11_1407,MP_PerceptionTuring2,59.94526107507447,
55,resources/videos_generated\model(dmp)-dataset(walking)-npsi(60)_final(0).mov,resources/videos_natural\training(36).mov,False,True,left,0,54,54,54,2018-12-11 14:14:22.506826,2018-12-11 14:14:26.410050,0:00:03.903224,2,right,0,0.38391870809937245,20,m,1,25,2018_Dec_11_1407,MP_PerceptionTuring2,59.94526107507447,
56,resources/videos_generated\model(dmp)-dataset(walking)-npsi(50)_final(4).mov,resources/videos_natural\training(16).mov,True,True,left,0,55,55,55,2018-12-11 14:14:27.911135,2018-12-11 14:14:31.831360,0:00:03.920225,2,left,1,0.25042344551002316,20,m,1,25,2018_Dec_11_1407,MP_PerceptionTuring2,59.94526107507447,
57,resources/videos_generated\model(vcgpdm)-dataset(walking)-mode(ELBO)-parts(2)-dyn(28)-lvm(21)_final(3).mov,resources/videos_natural\training(4).mov,False,False,right,0,56,56,56,2018-12-11 14:14:33.199438,2018-12-11 14:14:37.302673,0:00:04.103235,2,left,0,0.46720917485254176,20,m,1,25,2018_Dec_11_1407,MP_PerceptionTuring2,59.94526107507447,
58,resources/videos_generated\model(vcgpdm)-dataset(walking)-mode(ELBO)-parts(1)-dyn(26)-lvm(25)_final(5).mov,resources/videos_natural\training(46).mov,True,False,right,0,57,57,57,2018-12-11 14:14:38.887763,2018-12-11 14:14:42.807987,0:00:03.920224,2,right,1,0.4674769152934459,20,m,1,25,2018_Dec_11_1407,MP_PerceptionTuring2,59.94526107507447,
59,resources/videos_generated\model(vcgpdm)-dataset(walking)-mode(ELBO)-parts(2)-dyn(28)-lvm(17)_final(7).mov,resources/videos_natural\training(15).mov,False,False,right,0,58,58,58,2018-12-11 14:14:44.392078,2018-12-11 14:14:48.446310,0:00:04.054232,2,right,1,0.25032436046421935,20,m,1,25,2018_Dec_11_1407,MP_PerceptionTuring2,59.94526107507447,
60,resources/videos_generated\model(vcgpdm)-dataset(walking)-mode(ELBO)-parts(1)-dyn(26)-lvm(25)_final(7).mov,resources/videos_natural\training(34).mov,True,False,right,0,59,59,59,2018-12-11 14:14:49.813388,2018-12-11 14:14:53.817617,0:00:04.004229,2,right,1,0.30055084056766646,20,m,1,25,2018_Dec_11_1407,MP_PerceptionTuring2,59.94526107507447,
61,resources/videos_generated\model(vcgpdm)-dataset(walking)-mode(ELBO)-parts(1)-dyn(28)-lvm(23)_final(7).mov,resources/videos_natural\training(19).mov,True,True,left,0,60,60,60,2018-12-11 14:14:55.234698,2018-12-11 14:14:59.171923,0:00:03.937225,2,left,1,0.4172392918881087,20,m,1,25,2018_Dec_11_1407,MP_PerceptionTuring2,59.94526107507447,
62,resources/videos_generated\model(tmp)-dataset(walking)-numprim(11)_final(0).mov,resources/videos_natural\training(21).mov,True,True,left,0,61,61,61,2018-12-11 14:15:00.706011,2018-12-11 14:15:04.776244,0:00:04.070233,2,right,0,0.3006339635812765,20,m,1,25,2018_Dec_11_1407,MP_PerceptionTuring2,59.94526107507447,
63,resources/videos_generated\model(vcgpdm)-dataset(walking)-mode(ELBO)-parts(1)-dyn(27)-lvm(26)_final(1).mov,resources/videos_natural\training(18).mov,True,True,left,0,62,62,62,2018-12-11 14:15:06.194325,2018-12-11 14:15:10.231556,0:00:04.037231,2,left,1,0.3341737993850984,20,m,1,25,2018_Dec_11_1407,MP_PerceptionTuring2,59.94526107507447,
64,resources/videos_generated\model(tmp)-dataset(walking)-numprim(14)_final(4).mov,resources/videos_natural\training(5).mov,False,False,right,0,63,63,63,2018-12-11 14:15:11.682639,2018-12-11 14:15:15.769873,0:00:04.087234,2,left,0,1.0845186394326447,20,m,1,25,2018_Dec_11_1407,MP_PerceptionTuring2,59.94526107507447,
65,resources/videos_generated\model(vcgpdm)-dataset(walking)-mode(ELBO)-parts(1)-dyn(27)-lvm(22)_final(7).mov,resources/videos_natural\training(4).mov,False,True,left,0,64,64,64,2018-12-11 14:15:17.970999,2018-12-11 14:15:22.075233,0:00:04.104234,2,right,0,0.31740312855799857,20,m,1,25,2018_Dec_11_1407,MP_PerceptionTuring2,59.94526107507447,
66,resources/videos_generated\model(vcgpdm)-dataset(walking)-mode(ELBO)-parts(2)-dyn(22)-lvm(23)_final(5).mov,resources/videos_natural\training(19).mov,True,False,right,0,65,65,65,2018-12-11 14:15:23.509315,2018-12-11 14:15:27.429540,0:00:03.920225,2,right,1,0.3004445274345926,20,m,1,25,2018_Dec_11_1407,MP_PerceptionTuring2,59.94526107507447,
67,resources/videos_generated\model(vcgpdm)-dataset(walking)-mode(ELBO)-parts(2)-dyn(23)-lvm(20)_final(5).mov,resources/videos_natural\training(33).mov,True,True,left,0,66,66,66,2018-12-11 14:15:28.847621,2018-12-11 14:15:32.767845,0:00:03.920224,2,left,1,0.9845773676515819,20,m,1,25,2018_Dec_11_1407,MP_PerceptionTuring2,59.94526107507447,
68,resources/videos_generated\model(vcgpdm)-dataset(walking)-mode(ELBO)-parts(1)-dyn(23)-lvm(26)_final(1)_hip-corrected.mov,resources/videos_natural\training(44).mov,True,True,left,0,67,67,67,2018-12-11 14:15:34.868965,2018-12-11 14:15:38.923197,0:00:04.054232,2,left,1,0.4171769496260822,20,m,1,25,2018_Dec_11_1407,MP_PerceptionTuring2,59.94526107507447,
69,resources/videos_generated\model(vcgpdm)-dataset(walking)-mode(ELBO)-parts(1)-dyn(25)-lvm(22)_final(0).mov,resources/videos_natural\training(15).mov,False,True,left,0,68,68,68,2018-12-11 14:15:40.457285,2018-12-11 14:15:44.360508,0:00:03.903223,2,left,1,0.35077701949740003,20,m,1,25,2018_Dec_11_1407,MP_PerceptionTuring2,59.94526107507447,
70,resources/videos_generated\model(vcgpdm)-dataset(walking)-mode(ELBO)-parts(1)-dyn(25)-lvm(23)_final(7).mov,resources/videos_natural\training(27).mov,False,True,left,0,69,69,69,2018-12-11 14:15:45.828592,2018-12-11 14:15:49.748816,0:00:03.920224,2,left,1,0.3505746330247348,20,m,1,25,2018_Dec_11_1407,MP_PerceptionTuring2,59.94526107507447,
71,resources/videos_generated\model(vcgpdm)-dataset(walking)-mode(ELBO)-parts(1)-dyn(25)-lvm(22)_final(8).mov,resources/videos_natural\training(32).mov,False,True,left,0,70,70,70,2018-12-11 14:15:51.216900,2018-12-11 14:15:55.287133,0:00:04.070233,2,left,1,0.3005351797091862,20,m,1,25,2018_Dec_11_1407,MP_PerceptionTuring2,59.94526107507447,
72,resources/videos_generated\model(tmp)-dataset(walking)-numprim(13)_final(2).mov,resources/videos_natural\training(11).mov,True,True,left,0,71,71,71,2018-12-11 14:15:56.705214,2018-12-11 14:16:00.691442,0:00:03.986228,2,right,0,0.3173543389621045,20,m,1,25,2018_Dec_11_1407,MP_PerceptionTuring2,59.94526107507447,
73,resources/videos_generated\model(vcgpdm)-dataset(walking)-mode(ELBO)-parts(1)-dyn(27)-lvm(24)_final(9).mov,resources/videos_natural\training(5).mov,False,False,right,0,72,72,72,2018-12-11 14:16:02.126524,2018-12-11 14:16:06.096751,0:00:03.970227,2,right,1,0.40052524108614307,20,m,1,25,2018_Dec_11_1407,MP_PerceptionTuring2,59.94526107507447,
74,resources/videos_generated\model(vcgpdm)-dataset(walking)-mode(ELBO)-parts(1)-dyn(26)-lvm(23)_final(1).mov,resources/videos_natural\training(6).mov,True,False,right,0,73,73,73,2018-12-11 14:16:07.614838,2018-12-11 14:16:11.568064,0:00:03.953226,2,right,1,0.30049934043563553,20,m,1,25,2018_Dec_11_1407,MP_PerceptionTuring2,59.94526107507447,
75,resources/videos_generated\model(vcgpdm)-dataset(walking)-mode(ELBO)-parts(1)-dyn(28)-lvm(23)_final(3)_fail.mov,resources/videos_natural\training(36).mov,True,False,right,0,74,74,74,2018-12-11 14:16:12.986145,2018-12-11 14:16:16.889369,0:00:03.903224,2,right,1,0.4173097657494509,20,m,1,25,2018_Dec_11_1407,MP_PerceptionTuring2,59.94526107507447,
76,resources/videos_generated\model(vcgpdm)-dataset(walking)-mode(ELBO)-parts(2)-dyn(26)-lvm(17)_final(9).mov,resources/videos_natural\training(44).mov,True,True,left,0,75,75,75,2018-12-11 14:16:18.423456,2018-12-11 14:16:22.443686,0:00:04.020230,2,right,0,0.5506411916703655,20,m,1,25,2018_Dec_11_1407,MP_PerceptionTuring2,59.94526107507447,
77,resources/videos_generated\model(vcgpdm)-dataset(walking)-mode(ELBO)-parts(1)-dyn(28)-lvm(25)_final(3).mov,resources/videos_natural\training(39).mov,False,False,right,0,76,76,76,2018-12-11 14:16:24.111782,2018-12-11 14:16:28.182014,0:00:04.070232,2,right,1,0.3339973135589389,20,m,1,25,2018_Dec_11_1407,MP_PerceptionTuring2,59.94526107507447,
78,resources/videos_generated\model(vcgpdm)-dataset(walking)-mode(ELBO)-parts(2)-dyn(26)-lvm(19)_final(7).mov,resources/videos_natural\training(26).mov,True,False,right,0,77,77,77,2018-12-11 14:16:29.633097,2018-12-11 14:16:33.687329,0:00:04.054232,2,left,0,0.4340084568630118,20,m,1,25,2018_Dec_11_1407,MP_PerceptionTuring2,59.94526107507447,
79,resources/videos_generated\model(vcgpdm)-dataset(walking)-mode(ELBO)-parts(2)-dyn(23)-lvm(22)_final(9).mov,resources/videos_natural\training(4).mov,False,False,right,0,78,78,78,2018-12-11 14:16:35.238418,2018-12-11 14:16:39.158642,0:00:03.920224,2,right,1,0.367424210480749,20,m,1,25,2018_Dec_11_1407,MP_PerceptionTuring2,59.94526107507447,
80,resources/videos_generated\model(vcgpdm)-dataset(walking)-mode(ELBO)-parts(1)-dyn(25)-lvm(22)_final(4).mov,resources/videos_natural\training(28).mov,True,False,right,0,79,79,79,2018-12-11 14:16:40.642727,2018-12-11 14:16:44.579952,0:00:03.937225,2,right,1,0.3673022364910139,20,m,1,25,2018_Dec_11_1407,MP_PerceptionTuring2,59.94526107507447,
81,resources/videos_generated\model(tmp)-dataset(walking)-numprim(15)_final(8).mov,resources/videos_natural\training(20).mov,False,False,right,0,80,80,80,2018-12-11 14:16:46.064037,2018-12-11 14:16:49.984262,0:00:03.920225,2,right,1,0.35044814147659054,20,m,1,25,2018_Dec_11_1407,MP_PerceptionTuring2,59.94526107507447,
82,resources/videos_generated\model(vcgpdm)-dataset(walking)-mode(ELBO)-parts(2)-dyn(22)-lvm(21)_final(5).mov,resources/videos_natural\training(24).mov,True,False,right,0,81,81,81,2018-12-11 14:16:51.452345,2018-12-11 14:16:55.355569,0:00:03.903224,2,right,1,0.4006161945308122,20,m,1,25,2018_Dec_11_1407,MP_PerceptionTuring2,59.94526107507447,
83,resources/videos_generated\model(vcgpdm)-dataset(walking)-mode(ELBO)-parts(2)-dyn(24)-lvm(21)_final(3).mov,resources/videos_natural\training(39).mov,True,True,left,0,82,82,82,2018-12-11 14:16:56.873656,2018-12-11 14:17:00.860884,0:00:03.987228,2,right,0,0.5339753281259618,20,m,1,25,2018_Dec_11_1407,MP_PerceptionTuring2,59.94526107507447,
84,resources/videos_generated\model(vcgpdm)-dataset(walking)-mode(ELBO)-parts(1)-dyn(22)-lvm(22)_final(8).mov,resources/videos_natural\training(22).mov,False,False,right,0,83,83,83,2018-12-11 14:17:02.511978,2018-12-11 14:17:06.448203,0:00:03.936225,2,right,1,0.9344210602394014,20,m,1,25,2018_Dec_11_1407,MP_PerceptionTuring2,59.94526107507447,
85,resources/videos_generated\model(vcgpdm)-dataset(walking)-mode(ELBO)-parts(1)-dyn(28)-lvm(23)_final(9).mov,resources/videos_natural\training(29).mov,True,False,right,0,84,84,84,2018-12-11 14:17:08.500321,2018-12-11 14:17:12.603555,0:00:04.103234,2,right,1,3.470194375342544,20,m,1,25,2018_Dec_11_1407,MP_PerceptionTuring2,59.94526107507447,
86,resources/videos_generated\model(vcgpdm)-dataset(walking)-mode(ELBO)-parts(2)-dyn(26)-lvm(19)_final(9).mov,resources/videos_natural\training(36).mov,False,False,right,0,85,85,85,2018-12-11 14:17:17.190818,2018-12-11 14:17:21.078040,0:00:03.887222,2,right,1,0.31723055794827815,20,m,1,25,2018_Dec_11_1407,MP_PerceptionTuring2,59.94526107507447,
87,resources/videos_generated\model(vcgpdm)-dataset(walking)-mode(ELBO)-parts(1)-dyn(23)-lvm(24)_final(9).mov,resources/videos_natural\training(35).mov,True,True,left,0,86,86,86,2018-12-11 14:17:22.512122,2018-12-11 14:17:26.616357,0:00:04.104235,2,left,1,0.3991940681498818,20,m,1,25,2018_Dec_11_1407,MP_PerceptionTuring2,59.94526107507447,
88,resources/videos_generated\model(vcgpdm)-dataset(walking)-mode(ELBO)-parts(1)-dyn(25)-lvm(26)_final(8).mov,resources/videos_natural\training(31).mov,True,True,left,0,87,87,87,2018-12-11 14:17:28.134444,2018-12-11 14:17:32.204676,0:00:04.070232,2,left,1,0.25028550948991324,20,m,1,25,2018_Dec_11_1407,MP_PerceptionTuring2,59.94526107507447,
89,resources/videos_generated\model(vcgpdm)-dataset(walking)-mode(ELBO)-parts(2)-dyn(24)-lvm(17)_final(9).mov,resources/videos_natural\training(8).mov,False,True,left,0,88,88,88,2018-12-11 14:17:33.571755,2018-12-11 14:17:37.492979,0:00:03.921224,2,left,1,0.3005580686549365,20,m,1,25,2018_Dec_11_1407,MP_PerceptionTuring2,59.94526107507447,
90,resources/videos_generated\model(vcgpdm)-dataset(walking)-mode(ELBO)-parts(1)-dyn(23)-lvm(26)_final(3)_hip-corrected.mov,resources/videos_natural\training(31).mov,True,False,right,0,89,89,89,2018-12-11 14:17:38.910060,2018-12-11 14:17:42.980293,0:00:04.070233,2,right,1,0.25038610038609477,20,m,1,25,2018_Dec_11_1407,MP_PerceptionTuring2,59.94526107507447,
91,resources/videos_generated\model(vcgpdm)-dataset(walking)-mode(ELBO)-parts(1)-dyn(25)-lvm(26)_final(6)_fail.mov,resources/videos_natural\training(1).mov,True,True,left,0,90,90,90,2018-12-11 14:18:20.079415,2018-12-11 14:18:23.998639,0:00:03.919224,3,left,1,0.2504969310739398,20,m,1,25,2018_Dec_11_1407,MP_PerceptionTuring2,59.94526107507447,
92,resources/videos_generated\model(vcgpdm)-dataset(walking)-mode(ELBO)-parts(2)-dyn(24)-lvm(23)_final(5).mov,resources/videos_natural\training(29).mov,True,True,left,0,91,91,91,2018-12-11 14:18:25.366717,2018-12-11 14:18:29.269940,0:00:03.903223,3,left,1,0.2671124991720717,20,m,1,25,2018_Dec_11_1407,MP_PerceptionTuring2,59.94526107507447,
93,resources/videos_generated\model(vcgpdm)-dataset(walking)-mode(ELBO)-parts(2)-dyn(25)-lvm(22)_final(9).mov,resources/videos_natural\training(14).mov,False,True,left,0,92,92,92,2018-12-11 14:18:30.655020,2018-12-11 14:18:34.591245,0:00:03.936225,3,left,1,0.2670293761566427,20,m,1,25,2018_Dec_11_1407,MP_PerceptionTuring2,59.94526107507447,
94,resources/videos_generated\model(vcgpdm)-dataset(walking)-mode(ELBO)-parts(1)-dyn(28)-lvm(23)_final(1).mov,resources/videos_natural\training(23).mov,True,True,left,0,93,93,93,2018-12-11 14:18:35.976324,2018-12-11 14:18:39.896548,0:00:03.920224,3,left,1,0.2671173178969184,20,m,1,25,2018_Dec_11_1407,MP_PerceptionTuring2,59.94526107507447,
95,resources/videos_generated\model(vcgpdm)-dataset(walking)-mode(ELBO)-parts(1)-dyn(27)-lvm(28)_final(3).mov,resources/videos_natural\training(40).mov,False,True,left,0,94,94,94,2018-12-11 14:18:41.280627,2018-12-11 14:18:45.200852,0:00:03.920225,3,right,0,0.317187791757533,20,m,1,25,2018_Dec_11_1407,MP_PerceptionTuring2,59.94526107507447,
96,resources/videos_generated\model(vcgpdm)-dataset(walking)-mode(ELBO)-parts(1)-dyn(26)-lvm(27)_final(1).mov,resources/videos_natural\training(23).mov,False,False,right,0,95,95,95,2018-12-11 14:18:46.634934,2018-12-11 14:18:50.672164,0:00:04.037230,3,right,1,0.23389190393754689,20,m,1,25,2018_Dec_11_1407,MP_PerceptionTuring2,59.94526107507447,
97,resources/videos_generated\model(vcgpdm)-dataset(walking)-mode(ELBO)-parts(1)-dyn(23)-lvm(28)_final(0).mov,resources/videos_natural\training(26).mov,True,True,left,0,96,96,96,2018-12-11 14:18:52.023242,2018-12-11 14:18:56.093475,0:00:04.070233,3,left,1,0.4506059547402401,20,m,1,25,2018_Dec_11_1407,MP_PerceptionTuring2,59.94526107507447,
98,resources/videos_generated\model(vcgpdm)-dataset(walking)-mode(ELBO)-parts(1)-dyn(23)-lvm(22)_final(3)_fail.mov,resources/videos_natural\training(40).mov,False,True,left,0,97,97,97,2018-12-11 14:18:57.661564,2018-12-11 14:19:01.631791,0:00:03.970227,3,left,1,0.5673745173753559,20,m,1,25,2018_Dec_11_1407,MP_PerceptionTuring2,59.94526107507447,
99,resources/videos_generated\model(vcgpdm)-dataset(walking)-mode(ELBO)-parts(1)-dyn(24)-lvm(27)_final(8).mov,resources/videos_natural\training(2).mov,False,True,left,0,98,98,98,2018-12-11 14:19:03.315888,2018-12-11 14:19:07.220111,0:00:03.904223,3,right,0,0.3673742162045528,20,m,1,25,2018_Dec_11_1407,MP_PerceptionTuring2,59.94526107507447,
100,resources/videos_generated\model(vcgpdm)-dataset(walking)-mode(ELBO)-parts(1)-dyn(22)-lvm(27)_final(8)_fail.mov,resources/videos_natural\training(18).mov,True,False,right,0,99,99,99,2018-12-11 14:19:08.704196,2018-12-11 14:19:12.824432,0:00:04.120236,3,right,1,0.35053005981171736,20,m,1,25,2018_Dec_11_1407,MP_PerceptionTuring2,59.94526107507447,
101,resources/videos_generated\model(vcgpdm)-dataset(walking)-mode(ELBO)-parts(1)-dyn(28)-lvm(23)_final(5).mov,resources/videos_natural\training(11).mov,True,False,right,0,100,100,100,2018-12-11 14:19:14.292515,2018-12-11 14:19:18.312745,0:00:04.020230,3,right,1,0.2838533541344077,20,m,1,25,2018_Dec_11_1407,MP_PerceptionTuring2,59.94526107507447,
102,resources/videos_generated\model(dmp)-dataset(walking)-npsi(90)_final(2).mov,resources/videos_natural\training(43).mov,False,True,left,0,101,101,101,2018-12-11 14:19:19.713826,2018-12-11 14:19:23.634050,0:00:03.920224,3,right,0,0.2838166113524494,20,m,1,25,2018_Dec_11_1407,MP_PerceptionTuring2,59.94526107507447,
103,resources/videos_generated\model(vcgpdm)-dataset(walking)-mode(ELBO)-parts(2)-dyn(26)-lvm(17)_final(3).mov,resources/videos_natural\training(16).mov,False,False,right,0,102,102,102,2018-12-11 14:19:25.035130,2018-12-11 14:19:28.972355,0:00:03.937225,3,right,1,0.3004285654060368,20,m,1,25,2018_Dec_11_1407,MP_PerceptionTuring2,59.94526107507447,
104,resources/videos_generated\model(vcgpdm)-dataset(walking)-mode(ELBO)-parts(2)-dyn(25)-lvm(22)_final(3).mov,resources/videos_natural\training(3).mov,True,True,left,0,103,103,103,2018-12-11 14:19:30.389436,2018-12-11 14:19:34.309660,0:00:03.920224,3,right,0,0.5006562501894223,20,m,1,25,2018_Dec_11_1407,MP_PerceptionTuring2,59.94526107507447,
105,resources/videos_generated\model(dmp)-dataset(walking)-npsi(100)_final(6).mov,resources/videos_natural\training(29).mov,False,True,left,0,104,104,104,2018-12-11 14:19:35.927753,2018-12-11 14:19:39.864978,0:00:03.937225,3,right,0,0.45061167697713245,20,m,1,25,2018_Dec_11_1407,MP_PerceptionTuring2,59.94526107507447,
106,resources/videos_generated\model(tmp)-dataset(walking)-numprim(13)_final(0).mov,resources/videos_natural\training(45).mov,False,True,left,0,105,105,105,2018-12-11 14:19:41.433068,2018-12-11 14:19:45.336291,0:00:03.903223,3,right,0,0.28370337130036205,20,m,1,25,2018_Dec_11_1407,MP_PerceptionTuring2,59.94526107507447,
107,resources/videos_generated\model(dmp)-dataset(walking)-npsi(80)_final(6).mov,resources/videos_natural\training(4).mov,True,True,left,0,106,106,106,2018-12-11 14:19:46.737371,2018-12-11 14:19:50.607593,0:00:03.870222,3,right,0,0.5673191020305239,20,m,1,25,2018_Dec_11_1407,MP_PerceptionTuring2,59.94526107507447,
108,resources/videos_generated\model(vcgpdm)-dataset(walking)-mode(ELBO)-parts(1)-dyn(25)-lvm(28)_final(6).mov,resources/videos_natural\training(30).mov,True,True,left,0,107,107,107,2018-12-11 14:19:52.291689,2018-12-11 14:19:56.195912,0:00:03.904223,3,left,1,0.46716399930119223,20,m,1,25,2018_Dec_11_1407,MP_PerceptionTuring2,59.94526107507447,
109,resources/videos_generated\model(dmp)-dataset(walking)-npsi(70)_final(4).mov,resources/videos_natural\training(34).mov,False,False,right,0,108,108,108,2018-12-11 14:19:57.780003,2018-12-11 14:20:01.683226,0:00:03.903223,3,left,0,0.26706039670170867,20,m,1,25,2018_Dec_11_1407,MP_PerceptionTuring2,59.94526107507447,
110,resources/videos_generated\model(dmp)-dataset(walking)-npsi(100)_final(4).mov,resources/videos_natural\training(46).mov,False,True,left,0,109,109,109,2018-12-11 14:20:03.068305,2018-12-11 14:20:07.004530,0:00:03.936225,3,right,0,0.28387564074000693,20,m,1,25,2018_Dec_11_1407,MP_PerceptionTuring2,59.94526107507447,
111,resources/videos_generated\model(vcgpdm)-dataset(walking)-mode(ELBO)-parts(1)-dyn(23)-lvm(22)_final(7).mov,resources/videos_natural\training(13).mov,False,True,left,0,110,110,110,2018-12-11 14:20:08.405611,2018-12-11 14:20:12.309834,0:00:03.904223,3,right,0,0.33385485998587683,20,m,1,25,2018_Dec_11_1407,MP_PerceptionTuring2,59.94526107507447,
112,resources/videos_generated\model(vcgpdm)-dataset(walking)-mode(ELBO)-parts(2)-dyn(28)-lvm(23)_final(1).mov,resources/videos_natural\training(13).mov,True,True,left,0,111,111,111,2018-12-11 14:20:13.760917,2018-12-11 14:20:17.664140,0:00:03.903223,3,left,1,0.4170965371431521,20,m,1,25,2018_Dec_11_1407,MP_PerceptionTuring2,59.94526107507447,
113,resources/videos_generated\model(vcgpdm)-dataset(walking)-mode(ELBO)-parts(1)-dyn(26)-lvm(23)_final(9).mov,resources/videos_natural\training(37).mov,True,False,right,0,112,112,112,2018-12-11 14:20:19.198228,2018-12-11 14:20:23.102451,0:00:03.904223,3,right,1,0.3841331413877924,20,m,1,25,2018_Dec_11_1407,MP_PerceptionTuring2,59.94526107507447,
114,resources/videos_generated\model(vcgpdm)-dataset(walking)-mode(ELBO)-parts(2)-dyn(27)-lvm(18)_final(5).mov,resources/videos_natural\training(1).mov,False,True,left,0,113,113,113,2018-12-11 14:20:24.603537,2018-12-11 14:20:28.539762,0:00:03.936225,3,left,1,0.8009959703394998,20,m,1,25,2018_Dec_11_1407,MP_PerceptionTuring2,59.94526107507447,
115,resources/videos_generated\model(vcgpdm)-dataset(walking)-mode(ELBO)-parts(1)-dyn(27)-lvm(28)_final(7).mov,resources/videos_natural\training(19).mov,False,False,right,0,114,114,114,2018-12-11 14:20:30.458872,2018-12-11 14:20:34.378096,0:00:03.919224,3,right,1,0.26712665417835524,20,m,1,25,2018_Dec_11_1407,MP_PerceptionTuring2,59.94526107507447,
116,resources/videos_generated\model(vcgpdm)-dataset(walking)-mode(ELBO)-parts(1)-dyn(23)-lvm(26)_final(7).mov,resources/videos_natural\training(46).mov,False,False,right,0,115,115,115,2018-12-11 14:20:35.763175,2018-12-11 14:20:39.816407,0:00:04.053232,3,right,1,0.3339723164226598,20,m,1,25,2018_Dec_11_1407,MP_PerceptionTuring2,59.94526107507447,
117,resources/videos_generated\model(vcgpdm)-dataset(walking)-mode(ELBO)-parts(1)-dyn(22)-lvm(25)_final(4).mov,resources/videos_natural\training(34).mov,True,True,left,0,116,116,116,2018-12-11 14:20:41.267490,2018-12-11 14:20:45.187714,0:00:03.920224,3,left,1,0.28387383371773467,20,m,1,25,2018_Dec_11_1407,MP_PerceptionTuring2,59.94526107507447,
118,resources/videos_generated\model(vcgpdm)-dataset(walking)-mode(ELBO)-parts(2)-dyn(23)-lvm(18)_final(9).mov,resources/videos_natural\training(2).mov,True,False,right,0,117,117,117,2018-12-11 14:20:46.588795,2018-12-11 14:20:50.643026,0:00:04.054231,3,left,0,0.3672085725120269,20,m,1,25,2018_Dec_11_1407,MP_PerceptionTuring2,59.94526107507447,
119,resources/videos_generated\model(vcgpdm)-dataset(walking)-mode(ELBO)-parts(2)-dyn(22)-lvm(19)_final(9).mov,resources/videos_natural\training(31).mov,False,True,left,0,118,118,118,2018-12-11 14:20:52.127111,2018-12-11 14:20:56.064336,0:00:03.937225,3,left,1,0.3505083755480882,20,m,1,25,2018_Dec_11_1407,MP_PerceptionTuring2,59.94526107507447,
120,resources/videos_generated\model(vcgpdm)-dataset(walking)-mode(ELBO)-parts(1)-dyn(28)-lvm(27)_final(1).mov,resources/videos_natural\training(0).mov,True,False,right,0,119,119,119,2018-12-11 14:20:57.531420,2018-12-11 14:21:01.485647,0:00:03.954227,3,left,0,0.7008243032414612,20,m,1,25,2018_Dec_11_1407,MP_PerceptionTuring2,59.94526107507447,
121,resources/videos_generated\model(vcgpdm)-dataset(walking)-mode(ELBO)-parts(2)-dyn(27)-lvm(18)_final(7).mov,resources/videos_natural\training(8).mov,False,True,left,0,120,120,120,2018-12-11 14:21:03.303751,2018-12-11 14:21:07.239976,0:00:03.936225,3,right,0,0.3338358862529276,20,m,1,25,2018_Dec_11_1407,MP_PerceptionTuring2,59.94526107507447,
122,resources/videos_generated\model(vcgpdm)-dataset(walking)-mode(ELBO)-parts(1)-dyn(23)-lvm(24)_final(1).mov,resources/videos_natural\training(46).mov,True,False,right,0,121,121,121,2018-12-11 14:21:08.691059,2018-12-11 14:21:12.628284,0:00:03.937225,3,right,1,0.25022738361258234,20,m,1,25,2018_Dec_11_1407,MP_PerceptionTuring2,59.94526107507447,
123,resources/videos_generated\model(vcgpdm)-dataset(walking)-mode(ELBO)-parts(2)-dyn(22)-lvm(23)_final(7).mov,resources/videos_natural\training(28).mov,False,True,left,0,122,122,122,2018-12-11 14:21:13.996362,2018-12-11 14:21:17.916586,0:00:03.920224,3,left,1,0.45070443744407385,20,m,1,25,2018_Dec_11_1407,MP_PerceptionTuring2,59.94526107507447,
124,resources/videos_generated\model(vcgpdm)-dataset(walking)-mode(ELBO)-parts(1)-dyn(28)-lvm(27)_final(9).mov,resources/videos_natural\training(48).mov,True,True,left,0,123,123,123,2018-12-11 14:21:19.483676,2018-12-11 14:21:23.403900,0:00:03.920224,3,left,1,1.401373637956567,20,m,1,25,2018_Dec_11_1407,MP_PerceptionTuring2,59.94526107507447,
125,resources/videos_generated\model(tmp)-dataset(walking)-numprim(15)_final(4).mov,resources/videos_natural\training(19).mov,False,False,right,0,124,124,124,2018-12-11 14:21:25.923044,2018-12-11 14:21:29.843269,0:00:03.920225,3,left,0,0.31720375378790777,20,m,1,25,2018_Dec_11_1407,MP_PerceptionTuring2,59.94526107507447,
126,resources/videos_generated\model(vcgpdm)-dataset(walking)-mode(ELBO)-parts(1)-dyn(23)-lvm(22)_final(1)_fail.mov,resources/videos_natural\training(14).mov,False,False,right,0,125,125,125,2018-12-11 14:21:31.277351,2018-12-11 14:21:35.197575,0:00:03.920224,3,right,1,0.3004827760687476,20,m,1,25,2018_Dec_11_1407,MP_PerceptionTuring2,59.94526107507447,
127,resources/videos_generated\model(dmp)-dataset(walking)-npsi(100)_final(8).mov,resources/videos_natural\training(11).mov,False,False,right,0,126,126,126,2018-12-11 14:21:36.615656,2018-12-11 14:21:40.668888,0:00:04.053232,3,right,1,0.35057854823753587,20,m,1,25,2018_Dec_11_1407,MP_PerceptionTuring2,59.94526107507447,
128,resources/videos_generated\model(dmp)-dataset(walking)-npsi(50)_final(8).mov,resources/videos_natural\training(7).mov,False,True,left,0,127,127,127,2018-12-11 14:21:42.136972,2018-12-11 14:21:46.040195,0:00:03.903223,3,right,0,0.28385696817713324,20,m,1,25,2018_Dec_11_1407,MP_PerceptionTuring2,59.94526107507447,
129,resources/videos_generated\model(vcgpdm)-dataset(walking)-mode(ELBO)-parts(2)-dyn(27)-lvm(18)_final(9).mov,resources/videos_natural\training(48).mov,True,True,left,0,128,128,128,2018-12-11 14:21:47.441275,2018-12-11 14:21:51.345498,0:00:03.904223,3,left,1,0.41723808720780653,20,m,1,25,2018_Dec_11_1407,MP_PerceptionTuring2,59.94526107507447,
130,resources/videos_generated\model(vcgpdm)-dataset(walking)-mode(ELBO)-parts(1)-dyn(22)-lvm(27)_final(4)_fail.mov,resources/videos_natural\training(21).mov,False,True,left,0,129,129,129,2018-12-11 14:21:52.880586,2018-12-11 14:21:56.949819,0:00:04.069233,3,left,1,0.2671727332417504,20,m,1,25,2018_Dec_11_1407,MP_PerceptionTuring2,59.94526107507447,
131,resources/videos_generated\model(vcgpdm)-dataset(walking)-mode(ELBO)-parts(2)-dyn(23)-lvm(18)_final(5).mov,resources/videos_natural\training(32).mov,True,True,left,0,130,130,130,2018-12-11 14:21:58.333898,2018-12-11 14:22:02.221120,0:00:03.887222,3,left,1,0.7508682741117809,20,m,1,25,2018_Dec_11_1407,MP_PerceptionTuring2,59.94526107507447,
132,resources/videos_generated\model(vcgpdm)-dataset(walking)-mode(ELBO)-parts(2)-dyn(28)-lvm(19)_final(3).mov,resources/videos_natural\training(30).mov,True,False,right,0,131,131,131,2018-12-11 14:22:04.089227,2018-12-11 14:22:08.142459,0:00:04.053232,3,left,0,0.8676494859009836,20,m,1,25,2018_Dec_11_1407,MP_PerceptionTuring2,59.94526107507447,
133,resources/videos_generated\model(vcgpdm)-dataset(walking)-mode(ELBO)-parts(2)-dyn(26)-lvm(21)_final(9).mov,resources/videos_natural\training(15).mov,False,True,left,0,132,132,132,2018-12-11 14:22:10.127573,2018-12-11 14:22:14.047797,0:00:03.920224,3,left,1,0.7842213842995989,20,m,1,25,2018_Dec_11_1407,MP_PerceptionTuring2,59.94526107507447,
134,resources/videos_generated\model(vcgpdm)-dataset(walking)-mode(ELBO)-parts(1)-dyn(25)-lvm(24)_final(1).mov,resources/videos_natural\training(24).mov,True,False,right,0,133,133,133,2018-12-11 14:22:15.949906,2018-12-11 14:22:20.036139,0:00:04.086233,3,right,1,0.30073485564935254,20,m,1,25,2018_Dec_11_1407,MP_PerceptionTuring2,59.94526107507447,
135,resources/videos_generated\model(vcgpdm)-dataset(walking)-mode(ELBO)-parts(2)-dyn(22)-lvm(17)_final(1).mov,resources/videos_natural\training(38).mov,True,True,left,0,134,134,134,2018-12-11 14:22:21.454221,2018-12-11 14:22:25.357444,0:00:03.903223,3,left,1,0.6841051325445733,20,m,1,25,2018_Dec_11_1407,MP_PerceptionTuring2,59.94526107507447,
136,resources/videos_generated\model(vcgpdm)-dataset(walking)-mode(ELBO)-parts(1)-dyn(22)-lvm(23)_final(0).mov,resources/videos_natural\training(23).mov,True,True,left,0,135,135,135,2018-12-11 14:23:03.123604,2018-12-11 14:23:07.026827,0:00:03.903223,4,left,1,0.3839819538716256,20,m,1,25,2018_Dec_11_1407,MP_PerceptionTuring2,59.94526107507447,
137,resources/videos_generated\model(vcgpdm)-dataset(walking)-mode(ELBO)-parts(2)-dyn(28)-lvm(17)_final(3).mov,resources/videos_natural\training(43).mov,True,True,left,0,136,136,136,2018-12-11 14:23:08.528913,2018-12-11 14:23:12.615147,0:00:04.086234,4,left,1,0.3505011474589992,20,m,1,25,2018_Dec_11_1407,MP_PerceptionTuring2,59.94526107507447,
138,resources/videos_generated\model(tmp)-dataset(walking)-numprim(11)_final(6).mov,resources/videos_natural\training(38).mov,True,False,right,0,137,137,137,2018-12-11 14:23:14.083231,2018-12-11 14:23:18.003455,0:00:03.920224,4,left,0,0.23383709093650396,20,m,1,25,2018_Dec_11_1407,MP_PerceptionTuring2,59.94526107507447,
139,resources/videos_generated\model(tmp)-dataset(walking)-numprim(12)_final(4).mov,resources/videos_natural\training(47).mov,False,True,left,0,138,138,138,2018-12-11 14:23:19.354532,2018-12-11 14:23:23.257755,0:00:03.903223,4,right,0,0.2504147115705564,20,m,1,25,2018_Dec_11_1407,MP_PerceptionTuring2,59.94526107507447,
140,resources/videos_generated\model(vcgpdm)-dataset(walking)-mode(ELBO)-parts(2)-dyn(24)-lvm(23)_final(1).mov,resources/videos_natural\training(47).mov,False,False,right,0,139,139,139,2018-12-11 14:23:24.625834,2018-12-11 14:23:28.546058,0:00:03.920224,4,right,1,0.23394039236518438,20,m,1,25,2018_Dec_11_1407,MP_PerceptionTuring2,59.94526107507447,
141,resources/videos_generated\model(vcgpdm)-dataset(walking)-mode(ELBO)-parts(2)-dyn(22)-lvm(17)_final(9).mov,resources/videos_natural\training(30).mov,True,True,left,0,140,140,140,2018-12-11 14:23:29.897135,2018-12-11 14:23:33.967368,0:00:04.070233,4,right,0,0.3337425234458351,20,m,1,25,2018_Dec_11_1407,MP_PerceptionTuring2,59.94526107507447,
142,resources/videos_generated\model(vcgpdm)-dataset(walking)-mode(ELBO)-parts(1)-dyn(25)-lvm(24)_final(5).mov,resources/videos_natural\training(39).mov,True,False,right,0,141,141,141,2018-12-11 14:23:35.418451,2018-12-11 14:23:39.421680,0:00:04.003229,4,right,1,0.01685138448010548,20,m,1,25,2018_Dec_11_1407,MP_PerceptionTuring2,59.94526107507447,
143,resources/videos_generated\model(vcgpdm)-dataset(walking)-mode(ELBO)-parts(2)-dyn(28)-lvm(17)_final(5).mov,resources/videos_natural\training(21).mov,True,False,right,0,142,142,142,2018-12-11 14:23:40.555745,2018-12-11 14:23:44.492970,0:00:03.937225,4,right,1,0.33394490992031933,20,m,1,25,2018_Dec_11_1407,MP_PerceptionTuring2,59.94526107507447,
144,resources/videos_generated\model(vcgpdm)-dataset(walking)-mode(ELBO)-parts(2)-dyn(24)-lvm(19)_final(5).mov,resources/videos_natural\training(0).mov,False,True,left,0,143,143,143,2018-12-11 14:23:45.944053,2018-12-11 14:23:50.014286,0:00:04.070233,4,left,1,0.6007438907599862,20,m,1,25,2018_Dec_11_1407,MP_PerceptionTuring2,59.94526107507447,
145,resources/videos_generated\model(vcgpdm)-dataset(walking)-mode(ELBO)-parts(2)-dyn(23)-lvm(20)_final(7).mov,resources/videos_natural\training(13).mov,False,True,left,0,144,144,144,2018-12-11 14:23:51.732384,2018-12-11 14:23:55.635607,0:00:03.903223,4,left,1,0.3172938037223503,20,m,1,25,2018_Dec_11_1407,MP_PerceptionTuring2,59.94526107507447,
146,resources/videos_generated\model(tmp)-dataset(walking)-numprim(14)_final(0).mov,resources/videos_natural\training(48).mov,False,True,left,0,145,145,145,2018-12-11 14:23:57.070689,2018-12-11 14:24:01.106920,0:00:04.036231,4,left,1,0.2836172365805396,20,m,1,25,2018_Dec_11_1407,MP_PerceptionTuring2,59.94526107507447,
147,resources/videos_generated\model(vcgpdm)-dataset(walking)-mode(ELBO)-parts(1)-dyn(23)-lvm(22)_final(5)_fail.mov,resources/videos_natural\training(18).mov,False,False,right,0,146,146,146,2018-12-11 14:24:02.509001,2018-12-11 14:24:06.428225,0:00:03.919224,4,right,1,0.25033972015262407,20,m,1,25,2018_Dec_11_1407,MP_PerceptionTuring2,59.94526107507447,
148,resources/videos_generated\model(vcgpdm)-dataset(walking)-mode(ELBO)-parts(1)-dyn(25)-lvm(26)_final(4)_fail.mov,resources/videos_natural\training(46).mov,True,True,left,0,147,147,147,2018-12-11 14:24:07.796303,2018-12-11 14:24:11.733528,0:00:03.937225,4,left,1,0.800883031459307,20,m,1,25,2018_Dec_11_1407,MP_PerceptionTuring2,59.94526107507447,
149,resources/videos_generated\model(vcgpdm)-dataset(walking)-mode(ELBO)-parts(2)-dyn(24)-lvm(17)_final(7).mov,resources/videos_natural\training(37).mov,True,False,right,0,148,148,148,2018-12-11 14:24:13.651638,2018-12-11 14:24:17.587863,0:00:03.936225,4,left,0,1.0177988663963333,20,m,1,25,2018_Dec_11_1407,MP_PerceptionTuring2,59.94526107507447,
150,resources/videos_generated\model(dmp)-dataset(walking)-npsi(70)_final(8).mov,resources/videos_natural\training(12).mov,False,True,left,0,149,149,149,2018-12-11 14:24:19.722985,2018-12-11 14:24:23.626208,0:00:03.903223,4,right,0,0.30054029960410844,20,m,1,25,2018_Dec_11_1407,MP_PerceptionTuring2,59.94526107507447,
151,resources/videos_generated\model(vcgpdm)-dataset(walking)-mode(ELBO)-parts(2)-dyn(26)-lvm(21)_final(7).mov,resources/videos_natural\training(33).mov,False,False,right,0,150,150,150,2018-12-11 14:24:25.044289,2018-12-11 14:24:29.098521,0:00:04.054232,4,right,1,0.3672621808345866,20,m,1,25,2018_Dec_11_1407,MP_PerceptionTuring2,59.94526107507447,
152,resources/videos_generated\model(vcgpdm)-dataset(walking)-mode(ELBO)-parts(1)-dyn(27)-lvm(24)_final(3).mov,resources/videos_natural\training(4).mov,True,False,right,0,151,151,151,2018-12-11 14:24:30.582606,2018-12-11 14:24:34.502830,0:00:03.920224,4,right,1,0.08370156427918118,20,m,1,25,2018_Dec_11_1407,MP_PerceptionTuring2,59.94526107507447,
153,resources/videos_generated\model(vcgpdm)-dataset(walking)-mode(ELBO)-parts(1)-dyn(27)-lvm(24)_final(5).mov,resources/videos_natural\training(15).mov,False,True,left,0,152,152,152,2018-12-11 14:24:35.703899,2018-12-11 14:24:39.607122,0:00:03.903223,4,left,1,0.2671480372737278,20,m,1,25,2018_Dec_11_1407,MP_PerceptionTuring2,59.94526107507447,
154,resources/videos_generated\model(vcgpdm)-dataset(walking)-mode(ELBO)-parts(1)-dyn(28)-lvm(27)_final(5).mov,resources/videos_natural\training(30).mov,False,True,left,0,153,153,153,2018-12-11 14:24:40.992202,2018-12-11 14:24:44.911426,0:00:03.919224,4,left,1,0.26714954312410555,20,m,1,25,2018_Dec_11_1407,MP_PerceptionTuring2,59.94526107507447,
155,resources/videos_generated\model(vcgpdm)-dataset(walking)-mode(ELBO)-parts(1)-dyn(22)-lvm(25)_final(2).mov,resources/videos_natural\training(47).mov,True,False,right,0,154,154,154,2018-12-11 14:24:46.296505,2018-12-11 14:24:50.216729,0:00:03.920224,4,right,1,0.3676600268645416,20,m,1,25,2018_Dec_11_1407,MP_PerceptionTuring2,59.94526107507447,
156,resources/videos_generated\model(vcgpdm)-dataset(walking)-mode(ELBO)-parts(1)-dyn(24)-lvm(23)_final(4)_fail.mov,resources/videos_natural\training(42).mov,False,False,right,0,155,155,155,2018-12-11 14:24:51.701814,2018-12-11 14:24:55.805049,0:00:04.103235,4,right,1,0.5015823490084586,20,m,1,25,2018_Dec_11_1407,MP_PerceptionTuring2,59.94526107507447,
157,resources/videos_generated\model(vcgpdm)-dataset(walking)-mode(ELBO)-parts(2)-dyn(28)-lvm(19)_final(9).mov,resources/videos_natural\training(10).mov,False,True,left,0,156,156,156,2018-12-11 14:24:57.422141,2018-12-11 14:25:01.342366,0:00:03.920225,4,right,0,0.767616357163206,20,m,1,25,2018_Dec_11_1407,MP_PerceptionTuring2,59.94526107507447,
158,resources/videos_generated\model(vcgpdm)-dataset(walking)-mode(ELBO)-parts(2)-dyn(22)-lvm(21)_final(7).mov,resources/videos_natural\training(42).mov,True,False,right,0,157,157,157,2018-12-11 14:25:03.227473,2018-12-11 14:25:07.331708,0:00:04.104235,4,right,1,0.7342397556913056,20,m,1,25,2018_Dec_11_1407,MP_PerceptionTuring2,59.94526107507447,
159,resources/videos_generated\model(vcgpdm)-dataset(walking)-mode(ELBO)-parts(1)-dyn(26)-lvm(22)_final(7).mov,resources/videos_natural\training(22).mov,True,True,left,0,158,158,158,2018-12-11 14:25:09.182814,2018-12-11 14:25:13.086037,0:00:03.903223,4,right,0,0.05030749492470932,20,m,1,25,2018_Dec_11_1407,MP_PerceptionTuring2,59.94526107507447,
160,resources/videos_generated\model(vcgpdm)-dataset(walking)-mode(ELBO)-parts(1)-dyn(27)-lvm(24)_final(1).mov,resources/videos_natural\training(46).mov,True,False,right,0,159,159,159,2018-12-11 14:25:14.254104,2018-12-11 14:25:18.207330,0:00:03.953226,4,right,1,1.685034845409973,20,m,1,25,2018_Dec_11_1407,MP_PerceptionTuring2,59.94526107507447,
161,resources/videos_generated\model(vcgpdm)-dataset(walking)-mode(ELBO)-parts(2)-dyn(24)-lvm(23)_final(7).mov,resources/videos_natural\training(23).mov,False,False,right,0,160,160,160,2018-12-11 14:25:21.009490,2018-12-11 14:25:25.062722,0:00:04.053232,4,right,1,0.48386871382172103,20,m,1,25,2018_Dec_11_1407,MP_PerceptionTuring2,59.94526107507447,
162,resources/videos_generated\model(vcgpdm)-dataset(walking)-mode(ELBO)-parts(2)-dyn(25)-lvm(20)_final(7).mov,resources/videos_natural\training(26).mov,False,False,right,0,161,161,161,2018-12-11 14:25:26.664814,2018-12-11 14:25:30.735047,0:00:04.070233,4,right,1,0.5843560074445122,20,m,1,25,2018_Dec_11_1407,MP_PerceptionTuring2,59.94526107507447,
163,resources/videos_generated\model(dmp)-dataset(walking)-npsi(60)_final(8).mov,resources/videos_natural\training(32).mov,True,True,left,0,162,162,162,2018-12-11 14:25:32.436144,2018-12-11 14:25:36.373369,0:00:03.937225,4,left,1,0.9177886266024871,20,m,1,25,2018_Dec_11_1407,MP_PerceptionTuring2,59.94526107507447,
164,resources/videos_generated\model(vcgpdm)-dataset(walking)-mode(ELBO)-parts(1)-dyn(27)-lvm(26)_final(7).mov,resources/videos_natural\training(28).mov,False,False,right,0,163,163,163,2018-12-11 14:25:38.407486,2018-12-11 14:25:42.328710,0:00:03.921224,4,right,1,0.36727482998867345,20,m,1,25,2018_Dec_11_1407,MP_PerceptionTuring2,59.94526107507447,
165,resources/videos_generated\model(vcgpdm)-dataset(walking)-mode(ELBO)-parts(2)-dyn(28)-lvm(23)_final(3).mov,resources/videos_natural\training(34).mov,False,True,left,0,164,164,164,2018-12-11 14:25:43.812795,2018-12-11 14:25:47.716018,0:00:03.903223,4,left,1,0.3338139008192229,20,m,1,25,2018_Dec_11_1407,MP_PerceptionTuring2,59.94526107507447,
166,resources/videos_generated\model(vcgpdm)-dataset(walking)-mode(ELBO)-parts(1)-dyn(23)-lvm(28)_final(2).mov,resources/videos_natural\training(36).mov,True,False,right,0,165,165,165,2018-12-11 14:25:49.167101,2018-12-11 14:25:53.121327,0:00:03.954226,4,left,0,0.3165580445620435,20,m,1,25,2018_Dec_11_1407,MP_PerceptionTuring2,59.94526107507447,
167,resources/videos_generated\model(dmp)-dataset(walking)-npsi(70)_final(0).mov,resources/videos_natural\training(45).mov,True,False,right,0,166,166,166,2018-12-11 14:25:54.555409,2018-12-11 14:25:58.658644,0:00:04.103235,4,left,0,0.7008140634497977,20,m,1,25,2018_Dec_11_1407,MP_PerceptionTuring2,59.94526107507447,
168,resources/videos_generated\model(vcgpdm)-dataset(walking)-mode(ELBO)-parts(2)-dyn(23)-lvm(20)_final(9).mov,resources/videos_natural\training(8).mov,True,False,right,0,167,167,167,2018-12-11 14:26:00.476748,2018-12-11 14:26:04.413973,0:00:03.937225,4,right,1,0.25038610038609477,20,m,1,25,2018_Dec_11_1407,MP_PerceptionTuring2,59.94526107507447,
169,resources/videos_generated\model(vcgpdm)-dataset(walking)-mode(ELBO)-parts(2)-dyn(25)-lvm(18)_final(1).mov,resources/videos_natural\training(34).mov,True,True,left,0,168,168,168,2018-12-11 14:26:05.782051,2018-12-11 14:26:09.685275,0:00:03.903224,4,left,1,0.3838943133014254,20,m,1,25,2018_Dec_11_1407,MP_PerceptionTuring2,59.94526107507447,
170,resources/videos_generated\model(vcgpdm)-dataset(walking)-mode(ELBO)-parts(2)-dyn(22)-lvm(19)_final(1).mov,resources/videos_natural\training(6).mov,False,True,left,0,169,169,169,2018-12-11 14:26:11.186360,2018-12-11 14:26:15.289595,0:00:04.103235,4,left,1,0.8342463814387884,20,m,1,25,2018_Dec_11_1407,MP_PerceptionTuring2,59.94526107507447,
171,resources/videos_generated\model(vcgpdm)-dataset(walking)-mode(ELBO)-parts(2)-dyn(22)-lvm(21)_final(1).mov,resources/videos_natural\training(42).mov,True,False,right,0,170,170,170,2018-12-11 14:26:17.241707,2018-12-11 14:26:21.161931,0:00:03.920224,4,right,1,0.30053066215441504,20,m,1,25,2018_Dec_11_1407,MP_PerceptionTuring2,59.94526107507447,
172,resources/videos_generated\model(dmp)-dataset(walking)-npsi(50)_final(2).mov,resources/videos_natural\training(3).mov,False,False,right,0,171,171,171,2018-12-11 14:26:22.580012,2018-12-11 14:26:26.666246,0:00:04.086234,4,right,1,0.23383558508430724,20,m,1,25,2018_Dec_11_1407,MP_PerceptionTuring2,59.94526107507447,
173,resources/videos_generated\model(vcgpdm)-dataset(walking)-mode(ELBO)-parts(1)-dyn(22)-lvm(27)_final(6)_fail.mov,resources/videos_natural\training(12).mov,False,True,left,0,172,172,172,2018-12-11 14:26:28.017323,2018-12-11 14:26:31.920546,0:00:03.903223,4,left,1,0.6173416898054711,20,m,1,25,2018_Dec_11_1407,MP_PerceptionTuring2,59.94526107507447,
174,resources/videos_generated\model(vcgpdm)-dataset(walking)-mode(ELBO)-parts(1)-dyn(27)-lvm(22)_final(5).mov,resources/videos_natural\training(18).mov,False,False,right,0,173,173,173,2018-12-11 14:26:33.655646,2018-12-11 14:26:37.558869,0:00:03.903223,4,right,1,0.35062071208631096,20,m,1,25,2018_Dec_11_1407,MP_PerceptionTuring2,59.94526107507447,
175,resources/videos_generated\model(vcgpdm)-dataset(walking)-mode(ELBO)-parts(2)-dyn(24)-lvm(21)_final(1).mov,resources/videos_natural\training(31).mov,False,True,left,0,174,174,174,2018-12-11 14:26:39.026953,2018-12-11 14:26:43.030182,0:00:04.003229,4,left,1,0.3004770538318553,20,m,1,25,2018_Dec_11_1407,MP_PerceptionTuring2,59.94526107507447,
176,resources/videos_generated\model(vcgpdm)-dataset(walking)-mode(ELBO)-parts(2)-dyn(24)-lvm(19)_final(7).mov,resources/videos_natural\training(45).mov,True,True,left,0,175,175,175,2018-12-11 14:26:44.448263,2018-12-11 14:26:48.386488,0:00:03.938225,4,left,1,0.4006381799681549,20,m,1,25,2018_Dec_11_1407,MP_PerceptionTuring2,59.94526107507447,
177,resources/videos_generated\model(vcgpdm)-dataset(walking)-mode(ELBO)-parts(1)-dyn(22)-lvm(22)_final(6).mov,resources/videos_natural\training(41).mov,True,False,right,0,176,176,176,2018-12-11 14:26:49.903575,2018-12-11 14:26:53.856801,0:00:03.953226,4,right,1,0.3172510375316051,20,m,1,25,2018_Dec_11_1407,MP_PerceptionTuring2,59.94526107507447,
178,resources/videos_generated\model(vcgpdm)-dataset(walking)-mode(ELBO)-parts(1)-dyn(25)-lvm(28)_final(0).mov,resources/videos_natural\training(18).mov,True,True,left,0,177,177,177,2018-12-11 14:26:55.290883,2018-12-11 14:26:59.228108,0:00:03.937225,4,left,1,0.3338602810526936,20,m,1,25,2018_Dec_11_1407,MP_PerceptionTuring2,59.94526107507447,
179,resources/videos_generated\model(vcgpdm)-dataset(walking)-mode(ELBO)-parts(1)-dyn(24)-lvm(27)_final(6).mov,resources/videos_natural\training(10).mov,False,True,left,0,178,178,178,2018-12-11 14:27:00.679191,2018-12-11 14:27:04.732423,0:00:04.053232,4,left,1,0.31722423337123473,20,m,1,25,2018_Dec_11_1407,MP_PerceptionTuring2,59.94526107507447,
180,resources/videos_generated\model(vcgpdm)-dataset(walking)-mode(ELBO)-parts(2)-dyn(28)-lvm(23)_final(9).mov,resources/videos_natural\training(24).mov,False,True,left,0,179,179,179,2018-12-11 14:27:06.167505,2018-12-11 14:27:10.270740,0:00:04.103235,4,left,1,0.40050295448236284,20,m,1,25,2018_Dec_11_1407,MP_PerceptionTuring2,59.94526107507447,
181,resources/videos_generated\model(vcgpdm)-dataset(walking)-mode(ELBO)-parts(1)-dyn(23)-lvm(22)_final(9)_fail.mov,resources/videos_natural\training(20).mov,True,False,right,0,180,180,180,2018-12-11 14:27:44.600703,2018-12-11 14:27:48.687937,0:00:04.087234,5,right,1,0.21728326275842846,20,m,1,25,2018_Dec_11_1407,MP_PerceptionTuring2,59.94526107507447,
182,resources/videos_generated\model(vcgpdm)-dataset(walking)-mode(ELBO)-parts(1)-dyn(27)-lvm(24)_final(7).mov,resources/videos_natural\training(13).mov,True,False,right,0,181,181,181,2018-12-11 14:27:50.022014,2018-12-11 14:27:53.959239,0:00:03.937225,5,right,1,0.3003135183316772,20,m,1,25,2018_Dec_11_1407,MP_PerceptionTuring2,59.94526107507447,
183,resources/videos_generated\model(vcgpdm)-dataset(walking)-mode(ELBO)-parts(2)-dyn(23)-lvm(22)_final(5).mov,resources/videos_natural\training(0).mov,False,False,right,0,182,182,182,2018-12-11 14:27:55.376320,2018-12-11 14:27:59.263542,0:00:03.887222,5,right,1,0.21706702244955522,20,m,1,25,2018_Dec_11_1407,MP_PerceptionTuring2,59.94526107507447,
184,resources/videos_generated\model(vcgpdm)-dataset(walking)-mode(ELBO)-parts(2)-dyn(27)-lvm(22)_final(9).mov,resources/videos_natural\training(48).mov,True,True,left,0,183,183,183,2018-12-11 14:28:00.597618,2018-12-11 14:28:04.517843,0:00:03.920225,5,left,1,0.25043579349403444,20,m,1,25,2018_Dec_11_1407,MP_PerceptionTuring2,59.94526107507447,
185,resources/videos_generated\model(vcgpdm)-dataset(walking)-mode(ELBO)-parts(1)-dyn(26)-lvm(27)_final(7).mov,resources/videos_natural\training(3).mov,True,False,right,0,184,184,184,2018-12-11 14:28:05.885921,2018-12-11 14:28:09.922152,0:00:04.036231,5,right,1,0.23386389509687433,20,m,1,25,2018_Dec_11_1407,MP_PerceptionTuring2,59.94526107507447,
186,resources/videos_generated\model(vcgpdm)-dataset(walking)-mode(ELBO)-parts(1)-dyn(22)-lvm(28)_final(0).mov,resources/videos_natural\training(6).mov,False,False,right,0,185,185,185,2018-12-11 14:28:11.273229,2018-12-11 14:28:15.260457,0:00:03.987228,5,left,0,0.2672814557372476,20,m,1,25,2018_Dec_11_1407,MP_PerceptionTuring2,59.94526107507447,
187,resources/videos_generated\model(vcgpdm)-dataset(walking)-mode(ELBO)-parts(1)-dyn(24)-lvm(25)_final(0).mov,resources/videos_natural\training(20).mov,True,False,right,0,186,186,186,2018-12-11 14:28:16.644536,2018-12-11 14:28:20.564760,0:00:03.920224,5,right,1,0.3672676019014034,20,m,1,25,2018_Dec_11_1407,MP_PerceptionTuring2,59.94526107507447,
188,resources/videos_generated\model(tmp)-dataset(walking)-numprim(14)_final(6).mov,resources/videos_natural\training(20).mov,False,True,left,0,187,187,187,2018-12-11 14:28:22.049845,2018-12-11 14:28:25.953069,0:00:03.903224,5,left,1,0.26713207524335303,20,m,1,25,2018_Dec_11_1407,MP_PerceptionTuring2,59.94526107507447,
189,resources/videos_generated\model(vcgpdm)-dataset(walking)-mode(ELBO)-parts(2)-dyn(24)-lvm(21)_final(5).mov,resources/videos_natural\training(30).mov,True,True,left,0,188,188,188,2018-12-11 14:28:27.337148,2018-12-11 14:28:31.357378,0:00:04.020230,5,left,1,0.2338241406105226,20,m,1,25,2018_Dec_11_1407,MP_PerceptionTuring2,59.94526107507447,
190,resources/videos_generated\model(vcgpdm)-dataset(walking)-mode(ELBO)-parts(1)-dyn(26)-lvm(27)_final(3).mov,resources/videos_natural\training(13).mov,True,True,left,0,189,189,189,2018-12-11 14:28:32.708455,2018-12-11 14:28:36.612678,0:00:03.904223,5,right,0,0.45074870948519674,20,m,1,25,2018_Dec_11_1407,MP_PerceptionTuring2,59.94526107507447,
191,resources/videos_generated\model(vcgpdm)-dataset(walking)-mode(ELBO)-parts(1)-dyn(22)-lvm(22)_final(2).mov,resources/videos_natural\training(41).mov,True,False,right,0,190,190,190,2018-12-11 14:28:38.179768,2018-12-11 14:28:42.116993,0:00:03.937225,5,right,1,0.5174687836934027,20,m,1,25,2018_Dec_11_1407,MP_PerceptionTuring2,59.94526107507447,
192,resources/videos_generated\model(vcgpdm)-dataset(walking)-mode(ELBO)-parts(1)-dyn(28)-lvm(27)_final(7).mov,resources/videos_natural\training(22).mov,True,True,left,0,191,191,191,2018-12-11 14:28:43.752087,2018-12-11 14:28:47.788318,0:00:04.036231,5,left,1,0.30051138724957127,20,m,1,25,2018_Dec_11_1407,MP_PerceptionTuring2,59.94526107507447,
193,resources/videos_generated\model(vcgpdm)-dataset(walking)-mode(ELBO)-parts(2)-dyn(26)-lvm(23)_final(1).mov,resources/videos_natural\training(38).mov,True,True,left,0,192,192,192,2018-12-11 14:28:49.206399,2018-12-11 14:28:53.127623,0:00:03.921224,5,left,1,0.33394641577251605,20,m,1,25,2018_Dec_11_1407,MP_PerceptionTuring2,59.94526107507447,
194,resources/videos_generated\model(vcgpdm)-dataset(walking)-mode(ELBO)-parts(1)-dyn(22)-lvm(22)_final(4).mov,resources/videos_natural\training(44).mov,False,True,left,0,193,193,193,2018-12-11 14:28:54.577706,2018-12-11 14:28:58.514931,0:00:03.937225,5,left,1,1.0511281841227174,20,m,1,25,2018_Dec_11_1407,MP_PerceptionTuring2,59.94526107507447,
195,resources/videos_generated\model(vcgpdm)-dataset(walking)-mode(ELBO)-parts(2)-dyn(25)-lvm(22)_final(1).mov,resources/videos_natural\training(17).mov,True,True,left,0,194,194,194,2018-12-11 14:29:00.683055,2018-12-11 14:29:04.586278,0:00:03.903223,5,left,1,0.5173437979992741,20,m,1,25,2018_Dec_11_1407,MP_PerceptionTuring2,59.94526107507447,
196,resources/videos_generated\model(vcgpdm)-dataset(walking)-mode(ELBO)-parts(2)-dyn(22)-lvm(17)_final(7).mov,resources/videos_natural\training(36).mov,False,True,left,0,195,195,195,2018-12-11 14:29:06.221372,2018-12-11 14:29:10.141596,0:00:03.920224,5,left,1,0.23396448599123687,20,m,1,25,2018_Dec_11_1407,MP_PerceptionTuring2,59.94526107507447,
197,resources/videos_generated\model(vcgpdm)-dataset(walking)-mode(ELBO)-parts(2)-dyn(26)-lvm(19)_final(3).mov,resources/videos_natural\training(38).mov,False,False,right,0,196,196,196,2018-12-11 14:29:11.492673,2018-12-11 14:29:15.395897,0:00:03.903224,5,right,1,0.2836849999093829,20,m,1,25,2018_Dec_11_1407,MP_PerceptionTuring2,59.94526107507447,
198,resources/videos_generated\model(vcgpdm)-dataset(walking)-mode(ELBO)-parts(1)-dyn(24)-lvm(23)_final(6)_fail.mov,resources/videos_natural\training(32).mov,True,False,right,0,197,197,197,2018-12-11 14:29:16.796977,2018-12-11 14:29:20.700200,0:00:03.903223,5,right,1,0.00028490714976214804,20,m,1,25,2018_Dec_11_1407,MP_PerceptionTuring2,59.94526107507447,
199,resources/videos_generated\model(vcgpdm)-dataset(walking)-mode(ELBO)-parts(1)-dyn(24)-lvm(23)_final(2).mov,resources/videos_natural\training(34).mov,True,False,right,0,198,198,198,2018-12-11 14:29:21.818264,2018-12-11 14:29:25.738488,0:00:03.920224,5,left,0,0.31691613610564673,20,m,1,25,2018_Dec_11_1407,MP_PerceptionTuring2,59.94526107507447,
200,resources/videos_generated\model(vcgpdm)-dataset(walking)-mode(ELBO)-parts(2)-dyn(22)-lvm(17)_final(5).mov,resources/videos_natural\training(10).mov,False,False,right,0,199,199,199,2018-12-11 14:29:27.172570,2018-12-11 14:29:31.075793,0:00:03.903223,5,right,1,0.21716550515338895,20,m,1,25,2018_Dec_11_1407,MP_PerceptionTuring2,59.94526107507447,
201,resources/videos_generated\model(vcgpdm)-dataset(walking)-mode(ELBO)-parts(1)-dyn(27)-lvm(28)_final(5).mov,resources/videos_natural\training(29).mov,True,True,left,0,200,200,200,2018-12-11 14:29:32.410870,2018-12-11 14:29:36.297092,0:00:03.886222,5,right,0,0.30043157710861124,20,m,1,25,2018_Dec_11_1407,MP_PerceptionTuring2,59.94526107507447,
202,resources/videos_generated\model(vcgpdm)-dataset(walking)-mode(ELBO)-parts(2)-dyn(27)-lvm(20)_final(1).mov,resources/videos_natural\training(28).mov,True,True,left,0,201,201,201,2018-12-11 14:29:37.715173,2018-12-11 14:29:41.651398,0:00:03.936225,5,right,0,0.43393105608447513,20,m,1,25,2018_Dec_11_1407,MP_PerceptionTuring2,59.94526107507447,
203,resources/videos_generated\model(tmp)-dataset(walking)-numprim(14)_final(8).mov,resources/videos_natural\training(37).mov,False,False,right,0,202,202,202,2018-12-11 14:29:43.203487,2018-12-11 14:29:47.223717,0:00:04.020230,5,right,1,0.2004210361465084,20,m,1,25,2018_Dec_11_1407,MP_PerceptionTuring2,59.94526107507447,
204,resources/videos_generated\model(vcgpdm)-dataset(walking)-mode(ELBO)-parts(2)-dyn(28)-lvm(19)_final(7).mov,resources/videos_natural\training(48).mov,True,False,right,0,203,203,203,2018-12-11 14:29:48.540792,2018-12-11 14:29:52.628026,0:00:04.087234,5,right,1,0.350489401815139,20,m,1,25,2018_Dec_11_1407,MP_PerceptionTuring2,59.94526107507447,
205,resources/videos_generated\model(vcgpdm)-dataset(walking)-mode(ELBO)-parts(1)-dyn(24)-lvm(25)_final(2).mov,resources/videos_natural\training(41).mov,False,True,left,0,204,204,204,2018-12-11 14:29:54.096110,2018-12-11 14:29:57.982332,0:00:03.886222,5,left,1,0.3172663972200098,20,m,1,25,2018_Dec_11_1407,MP_PerceptionTuring2,59.94526107507447,
206,resources/videos_generated\model(vcgpdm)-dataset(walking)-mode(ELBO)-parts(2)-dyn(28)-lvm(21)_final(9).mov,resources/videos_natural\training(20).mov,False,False,right,0,205,205,205,2018-12-11 14:29:59.417415,2018-12-11 14:30:03.353640,0:00:03.936225,5,left,0,0.6174898656172445,20,m,1,25,2018_Dec_11_1407,MP_PerceptionTuring2,59.94526107507447,
207,resources/videos_generated\model(dmp)-dataset(walking)-npsi(90)_final(6).mov,resources/videos_natural\training(25).mov,False,False,right,0,206,206,206,2018-12-11 14:30:05.088739,2018-12-11 14:30:09.058966,0:00:03.970227,5,right,1,0.23363771616459417,20,m,1,25,2018_Dec_11_1407,MP_PerceptionTuring2,59.94526107507447,
208,resources/videos_generated\model(vcgpdm)-dataset(walking)-mode(ELBO)-parts(2)-dyn(28)-lvm(19)_final(1).mov,resources/videos_natural\training(15).mov,False,False,right,0,207,207,207,2018-12-11 14:30:10.410043,2018-12-11 14:30:14.513278,0:00:04.103235,5,right,1,0.48403164697992906,20,m,1,25,2018_Dec_11_1407,MP_PerceptionTuring2,59.94526107507447,
209,resources/videos_generated\model(vcgpdm)-dataset(walking)-mode(ELBO)-parts(2)-dyn(27)-lvm(20)_final(9).mov,resources/videos_natural\training(45).mov,True,False,right,0,208,208,208,2018-12-11 14:30:16.114370,2018-12-11 14:30:20.001592,0:00:03.887222,5,left,0,0.05028189544646011,20,m,1,25,2018_Dec_11_1407,MP_PerceptionTuring2,59.94526107507447,
210,resources/videos_generated\model(vcgpdm)-dataset(walking)-mode(ELBO)-parts(1)-dyn(24)-lvm(27)_final(0).mov,resources/videos_natural\training(23).mov,True,False,right,0,209,209,209,2018-12-11 14:30:21.169659,2018-12-11 14:30:25.105884,0:00:03.936225,5,right,1,0.13385245062272588,20,m,1,25,2018_Dec_11_1407,MP_PerceptionTuring2,59.94526107507447,
211,resources/videos_generated\model(vcgpdm)-dataset(walking)-mode(ELBO)-parts(2)-dyn(23)-lvm(18)_final(7).mov,resources/videos_natural\training(26).mov,True,False,right,0,210,210,210,2018-12-11 14:30:26.356955,2018-12-11 14:30:30.260179,0:00:03.903224,5,right,1,0.23384251200332073,20,m,1,25,2018_Dec_11_1407,MP_PerceptionTuring2,59.94526107507447,
212,resources/videos_generated\model(tmp)-dataset(walking)-numprim(15)_final(6).mov,resources/videos_natural\training(29).mov,True,False,right,0,211,211,211,2018-12-11 14:30:31.611256,2018-12-11 14:30:35.565482,0:00:03.954226,5,right,1,0.30050777320684574,20,m,1,25,2018_Dec_11_1407,MP_PerceptionTuring2,59.94526107507447,
213,resources/videos_generated\model(vcgpdm)-dataset(walking)-mode(ELBO)-parts(2)-dyn(24)-lvm(17)_final(1).mov,resources/videos_natural\training(5).mov,False,True,left,0,212,212,212,2018-12-11 14:30:36.982563,2018-12-11 14:30:41.069797,0:00:04.087234,5,left,1,0.3004806678763998,20,m,1,25,2018_Dec_11_1407,MP_PerceptionTuring2,59.94526107507447,
214,resources/videos_generated\model(tmp)-dataset(walking)-numprim(12)_final(8).mov,resources/videos_natural\training(42).mov,False,True,left,0,213,213,213,2018-12-11 14:30:42.487878,2018-12-11 14:30:46.408102,0:00:03.920224,5,right,0,0.30061378516984405,20,m,1,25,2018_Dec_11_1407,MP_PerceptionTuring2,59.94526107507447,
215,resources/videos_generated\model(tmp)-dataset(walking)-numprim(12)_final(2).mov,resources/videos_natural\training(47).mov,False,False,right,0,214,214,214,2018-12-11 14:30:47.825183,2018-12-11 14:30:51.762408,0:00:03.937225,5,left,0,0.317222727519038,20,m,1,25,2018_Dec_11_1407,MP_PerceptionTuring2,59.94526107507447,
216,resources/videos_generated\model(dmp)-dataset(walking)-npsi(90)_final(4).mov,resources/videos_natural\training(42).mov,False,False,right,0,215,215,215,2018-12-11 14:30:53.196490,2018-12-11 14:30:57.083713,0:00:03.887223,5,left,0,0.30057493419371895,20,m,1,25,2018_Dec_11_1407,MP_PerceptionTuring2,59.94526107507447,
217,resources/videos_generated\model(vcgpdm)-dataset(walking)-mode(ELBO)-parts(2)-dyn(24)-lvm(17)_final(3).mov,resources/videos_natural\training(39).mov,False,False,right,0,216,216,216,2018-12-11 14:30:58.501794,2018-12-11 14:31:02.422018,0:00:03.920224,5,left,0,0.333817816032024,20,m,1,25,2018_Dec_11_1407,MP_PerceptionTuring2,59.94526107507447,
218,resources/videos_generated\model(vcgpdm)-dataset(walking)-mode(ELBO)-parts(2)-dyn(24)-lvm(19)_final(3).mov,resources/videos_natural\training(2).mov,False,False,right,0,217,217,217,2018-12-11 14:31:03.873101,2018-12-11 14:31:07.793325,0:00:03.920224,5,left,0,0.2341045302036946,20,m,1,25,2018_Dec_11_1407,MP_PerceptionTuring2,59.94526107507447,
219,resources/videos_generated\model(vcgpdm)-dataset(walking)-mode(ELBO)-parts(1)-dyn(27)-lvm(28)_final(9).mov,resources/videos_natural\training(2).mov,False,True,left,0,218,218,218,2018-12-11 14:31:09.144403,2018-12-11 14:31:13.047626,0:00:03.903223,5,right,0,1.2347288563360053,20,m,1,25,2018_Dec_11_1407,MP_PerceptionTuring2,59.94526107507447,
220,resources/videos_generated\model(vcgpdm)-dataset(walking)-mode(ELBO)-parts(2)-dyn(22)-lvm(19)_final(7).mov,resources/videos_natural\training(23).mov,True,True,left,0,219,219,219,2018-12-11 14:31:15.399760,2018-12-11 14:31:19.319985,0:00:03.920225,5,left,1,0.43412982851259585,20,m,1,25,2018_Dec_11_1407,MP_PerceptionTuring2,59.94526107507447,
221,resources/videos_generated\model(dmp)-dataset(walking)-npsi(80)_final(0).mov,resources/videos_natural\training(8).mov,False,True,left,0,220,220,220,2018-12-11 14:31:20.871073,2018-12-11 14:31:24.757296,0:00:03.886223,5,right,0,1.0681665953889024,20,m,1,25,2018_Dec_11_1407,MP_PerceptionTuring2,59.94526107507447,
222,resources/videos_generated\model(vcgpdm)-dataset(walking)-mode(ELBO)-parts(1)-dyn(24)-lvm(23)_final(0).mov,resources/videos_natural\training(43).mov,False,True,left,0,221,221,221,2018-12-11 14:31:26.942421,2018-12-11 14:31:30.846644,0:00:03.904223,5,right,0,0.2338283569952182,20,m,1,25,2018_Dec_11_1407,MP_PerceptionTuring2,59.94526107507447,
223,resources/videos_generated\model(dmp)-dataset(walking)-npsi(60)_final(4).mov,resources/videos_natural\training(12).mov,False,False,right,0,222,222,222,2018-12-11 14:31:32.197721,2018-12-11 14:31:36.150947,0:00:03.953226,5,right,1,0.2504065799694217,20,m,1,25,2018_Dec_11_1407,MP_PerceptionTuring2,59.94526107507447,
224,resources/videos_generated\model(vcgpdm)-dataset(walking)-mode(ELBO)-parts(2)-dyn(25)-lvm(18)_final(7).mov,resources/videos_natural\training(3).mov,True,True,left,0,223,223,223,2018-12-11 14:31:37.519026,2018-12-11 14:31:41.505254,0:00:03.986228,5,left,1,0.36719592335794005,20,m,1,25,2018_Dec_11_1407,MP_PerceptionTuring2,59.94526107507447,
225,resources/videos_generated\model(vcgpdm)-dataset(walking)-mode(ELBO)-parts(1)-dyn(25)-lvm(26)_final(2).mov,resources/videos_natural\training(5).mov,False,False,right,0,224,224,224,2018-12-11 14:31:42.990339,2018-12-11 14:31:47.010568,0:00:04.020229,5,right,1,0.2838961203233339,20,m,1,25,2018_Dec_11_1407,MP_PerceptionTuring2,59.94526107507447,
226,resources/videos_generated\model(vcgpdm)-dataset(walking)-mode(ELBO)-parts(2)-dyn(23)-lvm(22)_final(1).mov,resources/videos_natural\training(43).mov,True,False,right,0,225,225,225,2018-12-11 14:32:21.890564,2018-12-11 14:32:25.960796,0:00:04.070232,6,right,1,0.21707545521894644,20,m,1,25,2018_Dec_11_1407,MP_PerceptionTuring2,59.94526107507447,
227,resources/videos_generated\model(vcgpdm)-dataset(walking)-mode(ELBO)-parts(1)-dyn(25)-lvm(25)_final(2).mov,resources/videos_natural\training(17).mov,True,True,left,0,226,226,226,2018-12-11 14:32:27.294873,2018-12-11 14:32:31.348104,0:00:04.053231,6,left,1,0.18380908209292102,20,m,1,25,2018_Dec_11_1407,MP_PerceptionTuring2,59.94526107507447,
228,resources/videos_generated\model(vcgpdm)-dataset(walking)-mode(ELBO)-parts(1)-dyn(26)-lvm(22)_final(0).mov,resources/videos_natural\training(28).mov,False,True,left,0,227,227,227,2018-12-11 14:32:32.649179,2018-12-11 14:32:36.553402,0:00:03.904223,6,left,1,0.25054602184172836,20,m,1,25,2018_Dec_11_1407,MP_PerceptionTuring2,59.94526107507447,
229,resources/videos_generated\model(vcgpdm)-dataset(walking)-mode(ELBO)-parts(1)-dyn(28)-lvm(24)_final(2).mov,resources/videos_natural\training(40).mov,True,True,left,0,228,228,228,2018-12-11 14:32:37.920480,2018-12-11 14:32:41.907708,0:00:03.987228,6,left,1,0.2838988308576518,20,m,1,25,2018_Dec_11_1407,MP_PerceptionTuring2,59.94526107507447,
230,resources/videos_generated\model(vcgpdm)-dataset(walking)-mode(ELBO)-parts(2)-dyn(23)-lvm(20)_final(3).mov,resources/videos_natural\training(17).mov,True,True,left,0,229,229,229,2018-12-11 14:32:43.308789,2018-12-11 14:32:47.362020,0:00:04.053231,6,right,0,1.0343797999012168,20,m,1,25,2018_Dec_11_1407,MP_PerceptionTuring2,59.94526107507447,
231,resources/videos_generated\model(vcgpdm)-dataset(walking)-mode(ELBO)-parts(1)-dyn(24)-lvm(27)_final(4).mov,resources/videos_natural\training(27).mov,False,True,left,0,230,230,230,2018-12-11 14:32:49.514143,2018-12-11 14:32:53.584376,0:00:04.070233,6,left,1,0.30092880935444555,20,m,1,25,2018_Dec_11_1407,MP_PerceptionTuring2,59.94526107507447,
232,resources/videos_generated\model(vcgpdm)-dataset(walking)-mode(ELBO)-parts(1)-dyn(23)-lvm(26)_final(5)_hip-corrected.mov,resources/videos_natural\training(16).mov,True,False,right,0,231,231,231,2018-12-11 14:32:55.002457,2018-12-11 14:32:58.938683,0:00:03.936226,6,left,0,0.45055144290745375,20,m,1,25,2018_Dec_11_1407,MP_PerceptionTuring2,59.94526107507447,
233,resources/videos_generated\model(vcgpdm)-dataset(walking)-mode(ELBO)-parts(1)-dyn(27)-lvm(22)_final(1).mov,resources/videos_natural\training(22).mov,False,True,left,0,232,232,232,2018-12-11 14:33:00.506772,2018-12-11 14:33:04.393995,0:00:03.887223,6,left,1,0.33389852968684863,20,m,1,25,2018_Dec_11_1407,MP_PerceptionTuring2,59.94526107507447,
234,resources/videos_generated\model(vcgpdm)-dataset(walking)-mode(ELBO)-parts(2)-dyn(23)-lvm(18)_final(1).mov,resources/videos_natural\training(27).mov,True,True,left,0,233,233,233,2018-12-11 14:33:05.845078,2018-12-11 14:33:09.948312,0:00:04.103234,6,left,1,0.58405995699286,20,m,1,25,2018_Dec_11_1407,MP_PerceptionTuring2,59.94526107507447,
235,resources/videos_generated\model(vcgpdm)-dataset(walking)-mode(ELBO)-parts(2)-dyn(22)-lvm(23)_final(1).mov,resources/videos_natural\training(14).mov,True,True,left,0,234,234,234,2018-12-11 14:33:11.650410,2018-12-11 14:33:15.570634,0:00:03.920224,6,left,1,0.4005526475884835,20,m,1,25,2018_Dec_11_1407,MP_PerceptionTuring2,59.94526107507447,
236,resources/videos_generated\model(vcgpdm)-dataset(walking)-mode(ELBO)-parts(2)-dyn(22)-lvm(19)_final(3).mov,resources/videos_natural\training(10).mov,False,False,right,0,235,235,235,2018-12-11 14:33:17.087721,2018-12-11 14:33:21.041947,0:00:03.954226,6,right,1,0.8009526018104225,20,m,1,25,2018_Dec_11_1407,MP_PerceptionTuring2,59.94526107507447,
237,resources/videos_generated\model(vcgpdm)-dataset(walking)-mode(ELBO)-parts(1)-dyn(28)-lvm(27)_final(3).mov,resources/videos_natural\training(9).mov,True,True,left,0,236,236,236,2018-12-11 14:33:22.960056,2018-12-11 14:33:27.013288,0:00:04.053232,6,left,1,0.550714074894131,20,m,1,25,2018_Dec_11_1407,MP_PerceptionTuring2,59.94526107507447,
238,resources/videos_generated\model(dmp)-dataset(walking)-npsi(100)_final(0).mov,resources/videos_natural\training(36).mov,True,False,right,0,237,237,237,2018-12-11 14:33:28.681384,2018-12-11 14:33:32.618609,0:00:03.937225,6,right,1,0.20045928478066344,20,m,1,25,2018_Dec_11_1407,MP_PerceptionTuring2,59.94526107507447,
239,resources/videos_generated\model(vcgpdm)-dataset(walking)-mode(ELBO)-parts(2)-dyn(26)-lvm(23)_final(3).mov,resources/videos_natural\training(9).mov,True,False,right,0,238,238,238,2018-12-11 14:33:33.935684,2018-12-11 14:33:38.039919,0:00:04.104235,6,right,1,0.20040808582052705,20,m,1,25,2018_Dec_11_1407,MP_PerceptionTuring2,59.94526107507447,
240,resources/videos_generated\model(vcgpdm)-dataset(walking)-mode(ELBO)-parts(2)-dyn(25)-lvm(18)_final(3).mov,resources/videos_natural\training(23).mov,True,True,left,0,239,239,239,2018-12-11 14:33:39.356994,2018-12-11 14:33:43.311221,0:00:03.954227,6,left,1,0.2503421295168664,20,m,1,25,2018_Dec_11_1407,MP_PerceptionTuring2,59.94526107507447,
241,resources/videos_generated\model(vcgpdm)-dataset(walking)-mode(ELBO)-parts(1)-dyn(23)-lvm(24)_final(5).mov,resources/videos_natural\training(17).mov,False,True,left,0,240,240,240,2018-12-11 14:33:44.678299,2018-12-11 14:33:48.581522,0:00:03.903223,6,left,1,0.2838714243553113,20,m,1,25,2018_Dec_11_1407,MP_PerceptionTuring2,59.94526107507447,
242,resources/videos_generated\model(vcgpdm)-dataset(walking)-mode(ELBO)-parts(2)-dyn(28)-lvm(17)_final(9).mov,resources/videos_natural\training(20).mov,True,True,left,0,241,241,241,2018-12-11 14:33:49.982602,2018-12-11 14:33:53.969830,0:00:03.987228,6,left,1,1.0010691547358874,20,m,1,25,2018_Dec_11_1407,MP_PerceptionTuring2,59.94526107507447,
243,resources/videos_generated\model(vcgpdm)-dataset(walking)-mode(ELBO)-parts(2)-dyn(23)-lvm(22)_final(3).mov,resources/videos_natural\training(3).mov,True,False,right,0,242,242,242,2018-12-11 14:33:56.087951,2018-12-11 14:34:00.075179,0:00:03.987228,6,right,1,0.48394159704730555,20,m,1,25,2018_Dec_11_1407,MP_PerceptionTuring2,59.94526107507447,
244,resources/videos_generated\model(vcgpdm)-dataset(walking)-mode(ELBO)-parts(1)-dyn(27)-lvm(28)_final(1).mov,resources/videos_natural\training(9).mov,False,True,left,0,243,243,243,2018-12-11 14:34:01.676271,2018-12-11 14:34:05.696501,0:00:04.020230,6,right,0,0.4005448171610624,20,m,1,25,2018_Dec_11_1407,MP_PerceptionTuring2,59.94526107507447,
245,resources/videos_generated\model(vcgpdm)-dataset(walking)-mode(ELBO)-parts(1)-dyn(22)-lvm(28)_final(7).mov,resources/videos_natural\training(46).mov,False,True,left,0,244,244,244,2018-12-11 14:34:07.214588,2018-12-11 14:34:11.201816,0:00:03.987228,6,right,0,0.5341006149901659,20,m,1,25,2018_Dec_11_1407,MP_PerceptionTuring2,59.94526107507447,
246,resources/videos_generated\model(vcgpdm)-dataset(walking)-mode(ELBO)-parts(1)-dyn(23)-lvm(28)_final(8).mov,resources/videos_natural\training(31).mov,True,False,right,0,245,245,245,2018-12-11 14:34:12.852910,2018-12-11 14:34:16.756133,0:00:03.903223,6,right,1,0.4672483269987424,20,m,1,25,2018_Dec_11_1407,MP_PerceptionTuring2,59.94526107507447,
247,resources/videos_generated\model(dmp)-dataset(walking)-npsi(80)_final(8).mov,resources/videos_natural\training(24).mov,False,False,right,0,246,246,246,2018-12-11 14:34:18.341224,2018-12-11 14:34:22.377455,0:00:04.036231,6,right,1,1.1013356904932152,20,m,1,25,2018_Dec_11_1407,MP_PerceptionTuring2,59.94526107507447,
248,resources/videos_generated\model(vcgpdm)-dataset(walking)-mode(ELBO)-parts(1)-dyn(25)-lvm(28)_final(2).mov,resources/videos_natural\training(10).mov,True,True,left,0,247,247,247,2018-12-11 14:34:24.596582,2018-12-11 14:34:28.566809,0:00:03.970227,6,right,0,0.21691613610346394,20,m,1,25,2018_Dec_11_1407,MP_PerceptionTuring2,59.94526107507447,
249,resources/videos_generated\model(vcgpdm)-dataset(walking)-mode(ELBO)-parts(2)-dyn(28)-lvm(23)_final(7).mov,resources/videos_natural\training(44).mov,False,True,left,0,248,248,248,2018-12-11 14:34:29.900885,2018-12-11 14:34:33.788108,0:00:03.887223,6,right,0,0.11707635873062827,20,m,1,25,2018_Dec_11_1407,MP_PerceptionTuring2,59.94526107507447,
250,resources/videos_generated\model(vcgpdm)-dataset(walking)-mode(ELBO)-parts(2)-dyn(28)-lvm(21)_final(5).mov,resources/videos_natural\training(41).mov,True,True,left,0,249,249,249,2018-12-11 14:34:35.022178,2018-12-11 14:34:39.009406,0:00:03.987228,6,left,1,0.26712243779184064,20,m,1,25,2018_Dec_11_1407,MP_PerceptionTuring2,59.94526107507447,
251,resources/videos_generated\model(dmp)-dataset(walking)-npsi(70)_final(2).mov,resources/videos_natural\training(38).mov,False,False,right,0,250,250,250,2018-12-11 14:34:40.393485,2018-12-11 14:34:44.329711,0:00:03.936226,6,left,0,1.1680072762756026,20,m,1,25,2018_Dec_11_1407,MP_PerceptionTuring2,59.94526107507447,
252,resources/videos_generated\model(tmp)-dataset(walking)-numprim(15)_final(0).mov,resources/videos_natural\training(34).mov,True,True,left,0,251,251,251,2018-12-11 14:34:46.615841,2018-12-11 14:34:50.552066,0:00:03.936225,6,right,0,0.2505074720356788,20,m,1,25,2018_Dec_11_1407,MP_PerceptionTuring2,59.94526107507447,
253,resources/videos_generated\model(vcgpdm)-dataset(walking)-mode(ELBO)-parts(1)-dyn(23)-lvm(27)_final(2).mov,resources/videos_natural\training(39).mov,True,False,right,0,252,252,252,2018-12-11 14:34:51.920145,2018-12-11 14:34:55.840369,0:00:03.920224,6,left,0,0.8677115269947535,20,m,1,25,2018_Dec_11_1407,MP_PerceptionTuring2,59.94526107507447,
254,resources/videos_generated\model(vcgpdm)-dataset(walking)-mode(ELBO)-parts(1)-dyn(22)-lvm(25)_final(8).mov,resources/videos_natural\training(45).mov,False,False,right,0,253,253,253,2018-12-11 14:34:57.825482,2018-12-11 14:35:01.778709,0:00:03.953227,6,right,1,0.28383136869888403,20,m,1,25,2018_Dec_11_1407,MP_PerceptionTuring2,59.94526107507447,
255,resources/videos_generated\model(vcgpdm)-dataset(walking)-mode(ELBO)-parts(2)-dyn(28)-lvm(23)_final(5).mov,resources/videos_natural\training(42).mov,True,True,left,0,254,254,254,2018-12-11 14:35:03.179789,2018-12-11 14:35:07.183018,0:00:04.003229,6,right,0,0.4506550455062097,20,m,1,25,2018_Dec_11_1407,MP_PerceptionTuring2,59.94526107507447,
256,resources/videos_generated\model(vcgpdm)-dataset(walking)-mode(ELBO)-parts(1)-dyn(28)-lvm(24)_final(7).mov,resources/videos_natural\training(26).mov,False,True,left,0,255,255,255,2018-12-11 14:35:08.752107,2018-12-11 14:35:12.855342,0:00:04.103235,6,left,1,0.3674940820019401,20,m,1,25,2018_Dec_11_1407,MP_PerceptionTuring2,59.94526107507447,
257,resources/videos_generated\model(vcgpdm)-dataset(walking)-mode(ELBO)-parts(2)-dyn(25)-lvm(22)_final(7).mov,resources/videos_natural\training(7).mov,True,True,left,0,256,256,256,2018-12-11 14:35:14.339427,2018-12-11 14:35:18.259651,0:00:03.920224,6,left,1,0.4005399984343967,20,m,1,25,2018_Dec_11_1407,MP_PerceptionTuring2,59.94526107507447,
258,resources/videos_generated\model(vcgpdm)-dataset(walking)-mode(ELBO)-parts(2)-dyn(24)-lvm(23)_final(9).mov,resources/videos_natural\training(21).mov,False,True,left,0,257,257,257,2018-12-11 14:35:19.777738,2018-12-11 14:35:23.713963,0:00:03.936225,6,right,0,0.25042404785017425,20,m,1,25,2018_Dec_11_1407,MP_PerceptionTuring2,59.94526107507447,
259,resources/videos_generated\model(vcgpdm)-dataset(walking)-mode(ELBO)-parts(1)-dyn(26)-lvm(23)_final(5).mov,resources/videos_natural\training(35).mov,True,True,left,0,258,258,258,2018-12-11 14:35:25.082041,2018-12-11 14:35:29.019267,0:00:03.937226,6,right,0,0.11687487576637068,20,m,1,25,2018_Dec_11_1407,MP_PerceptionTuring2,59.94526107507447,
260,resources/videos_generated\model(tmp)-dataset(walking)-numprim(11)_final(2).mov,resources/videos_natural\training(16).mov,True,False,right,0,259,259,259,2018-12-11 14:35:30.253337,2018-12-11 14:35:34.340571,0:00:04.087234,6,left,0,1.084483402502883,20,m,1,25,2018_Dec_11_1407,MP_PerceptionTuring2,59.94526107507447,
261,resources/videos_generated\model(tmp)-dataset(walking)-numprim(13)_final(8).mov,resources/videos_natural\training(14).mov,True,True,left,0,260,260,260,2018-12-11 14:35:36.541697,2018-12-11 14:35:40.611930,0:00:04.070233,6,left,1,0.16719230931266793,20,m,1,25,2018_Dec_11_1407,MP_PerceptionTuring2,59.94526107507447,
262,resources/videos_generated\model(vcgpdm)-dataset(walking)-mode(ELBO)-parts(1)-dyn(24)-lvm(25)_final(6).mov,resources/videos_natural\training(35).mov,True,False,right,0,261,261,261,2018-12-11 14:35:41.897003,2018-12-11 14:35:45.783225,0:00:03.886222,6,left,0,0.3673049470235128,20,m,1,25,2018_Dec_11_1407,MP_PerceptionTuring2,59.94526107507447,
263,resources/videos_generated\model(vcgpdm)-dataset(walking)-mode(ELBO)-parts(2)-dyn(23)-lvm(22)_final(7).mov,resources/videos_natural\training(15).mov,True,True,left,0,262,262,262,2018-12-11 14:35:47.268310,2018-12-11 14:35:51.354544,0:00:04.086234,6,left,1,0.2171082827862847,20,m,1,25,2018_Dec_11_1407,MP_PerceptionTuring2,59.94526107507447,
264,resources/videos_generated\model(vcgpdm)-dataset(walking)-mode(ELBO)-parts(2)-dyn(26)-lvm(21)_final(3).mov,resources/videos_natural\training(9).mov,False,True,left,0,263,263,263,2018-12-11 14:35:52.689621,2018-12-11 14:35:56.609845,0:00:03.920224,6,left,1,0.40061739921475237,20,m,1,25,2018_Dec_11_1407,MP_PerceptionTuring2,59.94526107507447,
265,resources/videos_generated\model(vcgpdm)-dataset(walking)-mode(ELBO)-parts(1)-dyn(25)-lvm(28)_final(4).mov,resources/videos_natural\training(8).mov,False,True,left,0,264,264,264,2018-12-11 14:35:58.126932,2018-12-11 14:36:02.064157,0:00:03.937225,6,left,1,0.5672579644487996,20,m,1,25,2018_Dec_11_1407,MP_PerceptionTuring2,59.94526107507447,
266,resources/videos_generated\model(vcgpdm)-dataset(walking)-mode(ELBO)-parts(1)-dyn(22)-lvm(23)_final(6)_fail.mov,resources/videos_natural\training(37).mov,True,True,left,0,265,265,265,2018-12-11 14:36:03.749253,2018-12-11 14:36:07.718480,0:00:03.969227,6,left,1,0.3170986453351361,20,m,1,25,2018_Dec_11_1407,MP_PerceptionTuring2,59.94526107507447,
267,resources/videos_generated\model(vcgpdm)-dataset(walking)-mode(ELBO)-parts(2)-dyn(25)-lvm(18)_final(5).mov,resources/videos_natural\training(17).mov,False,True,left,0,266,266,266,2018-12-11 14:36:09.153562,2018-12-11 14:36:13.056785,0:00:03.903223,6,left,1,0.5173630729004799,20,m,1,25,2018_Dec_11_1407,MP_PerceptionTuring2,59.94526107507447,
268,resources/videos_generated\model(vcgpdm)-dataset(walking)-mode(ELBO)-parts(1)-dyn(26)-lvm(23)_final(7).mov,resources/videos_natural\training(37).mov,False,True,left,0,267,267,267,2018-12-11 14:36:14.691879,2018-12-11 14:36:18.745111,0:00:04.053232,6,right,0,0.7509733825645526,20,m,1,25,2018_Dec_11_1407,MP_PerceptionTuring2,59.94526107507447,
269,resources/videos_generated\model(vcgpdm)-dataset(walking)-mode(ELBO)-parts(2)-dyn(23)-lvm(20)_final(1).mov,resources/videos_natural\training(35).mov,True,True,left,0,268,268,268,2018-12-11 14:36:20.613218,2018-12-11 14:36:24.550443,0:00:03.937225,6,left,1,0.3338060703899828,20,m,1,25,2018_Dec_11_1407,MP_PerceptionTuring2,59.94526107507447,
270,resources/videos_generated\model(vcgpdm)-dataset(walking)-mode(ELBO)-parts(1)-dyn(28)-lvm(25)_final(9).mov,resources/videos_natural\training(40).mov,False,True,left,0,269,269,269,2018-12-11 14:36:26.001526,2018-12-11 14:36:29.904749,0:00:03.903223,6,right,0,0.35058547515654936,20,m,1,25,2018_Dec_11_1407,MP_PerceptionTuring2,59.94526107507447,
271,resources/videos_generated\model(vcgpdm)-dataset(walking)-mode(ELBO)-parts(2)-dyn(24)-lvm(19)_final(1).mov,resources/videos_natural\training(25).mov,True,False,right,0,270,270,270,2018-12-11 14:37:03.350662,2018-12-11 14:37:07.303888,0:00:03.953226,7,left,0,0.333953041517816,20,m,1,25,2018_Dec_11_1407,MP_PerceptionTuring2,59.94526107507447,
272,resources/videos_generated\model(tmp)-dataset(walking)-numprim(13)_final(6).mov,resources/videos_natural\training(35).mov,True,True,left,0,271,271,271,2018-12-11 14:37:08.754971,2018-12-11 14:37:12.658194,0:00:03.903223,7,right,0,0.3171880929294275,20,m,1,25,2018_Dec_11_1407,MP_PerceptionTuring2,59.94526107507447,
273,resources/videos_generated\model(vcgpdm)-dataset(walking)-mode(ELBO)-parts(2)-dyn(26)-lvm(23)_final(5).mov,resources/videos_natural\training(33).mov,False,False,right,0,272,272,272,2018-12-11 14:37:14.093277,2018-12-11 14:37:17.996500,0:00:03.903223,7,right,1,0.3003421295161388,20,m,1,25,2018_Dec_11_1407,MP_PerceptionTuring2,59.94526107507447,
274,resources/videos_generated\model(vcgpdm)-dataset(walking)-mode(ELBO)-parts(2)-dyn(23)-lvm(18)_final(3).mov,resources/videos_natural\training(24).mov,True,True,left,0,273,273,273,2018-12-11 14:37:19.414581,2018-12-11 14:37:23.334805,0:00:03.920224,7,right,0,0.4504803667041415,20,m,1,25,2018_Dec_11_1407,MP_PerceptionTuring2,59.94526107507447,
275,resources/videos_generated\model(dmp)-dataset(walking)-npsi(80)_final(4).mov,resources/videos_natural\training(19).mov,False,False,right,0,274,274,274,2018-12-11 14:37:24.901895,2018-12-11 14:37:28.922125,0:00:04.020230,7,right,1,0.40064691390762164,20,m,1,25,2018_Dec_11_1407,MP_PerceptionTuring2,59.94526107507447,
276,resources/videos_generated\model(vcgpdm)-dataset(walking)-mode(ELBO)-parts(1)-dyn(22)-lvm(23)_final(8).mov,resources/videos_natural\training(2).mov,True,False,right,0,275,275,275,2018-12-11 14:37:30.440212,2018-12-11 14:37:34.327434,0:00:03.887222,7,right,1,0.467497997216924,20,m,1,25,2018_Dec_11_1407,MP_PerceptionTuring2,59.94526107507447,
277,resources/videos_generated\model(vcgpdm)-dataset(walking)-mode(ELBO)-parts(1)-dyn(22)-lvm(27)_final(0)_hip-correted.mov,resources/videos_natural\training(12).mov,False,True,left,0,276,276,276,2018-12-11 14:37:35.911524,2018-12-11 14:37:39.831749,0:00:03.920225,7,left,1,1.0176564128196333,20,m,1,25,2018_Dec_11_1407,MP_PerceptionTuring2,59.94526107507447,
278,resources/videos_generated\model(vcgpdm)-dataset(walking)-mode(ELBO)-parts(1)-dyn(26)-lvm(27)_final(5).mov,resources/videos_natural\training(45).mov,False,True,left,0,277,277,277,2018-12-11 14:37:41.966871,2018-12-11 14:37:45.920097,0:00:03.953226,7,right,0,0.30055294875819527,20,m,1,25,2018_Dec_11_1407,MP_PerceptionTuring2,59.94526107507447,
279,resources/videos_generated\model(vcgpdm)-dataset(walking)-mode(ELBO)-parts(1)-dyn(28)-lvm(25)_final(7).mov,resources/videos_natural\training(29).mov,False,False,right,0,278,278,278,2018-12-11 14:37:47.338178,2018-12-11 14:37:51.392410,0:00:04.054232,7,right,1,0.6173151868169953,20,m,1,25,2018_Dec_11_1407,MP_PerceptionTuring2,59.94526107507447,
280,resources/videos_generated\model(vcgpdm)-dataset(walking)-mode(ELBO)-parts(1)-dyn(27)-lvm(26)_final(3).mov,resources/videos_natural\training(27).mov,False,False,right,0,279,279,279,2018-12-11 14:37:53.126509,2018-12-11 14:37:57.196742,0:00:04.070233,7,right,1,0.3004872936216998,20,m,1,25,2018_Dec_11_1407,MP_PerceptionTuring2,59.94526107507447,
281,resources/videos_generated\model(vcgpdm)-dataset(walking)-mode(ELBO)-parts(2)-dyn(26)-lvm(19)_final(5).mov,resources/videos_natural\training(18).mov,False,True,left,0,280,280,280,2018-12-11 14:37:58.614823,2018-12-11 14:38:02.718058,0:00:04.103235,7,right,0,0.3838644974384806,20,m,1,25,2018_Dec_11_1407,MP_PerceptionTuring2,59.94526107507447,
282,resources/videos_generated\model(vcgpdm)-dataset(walking)-mode(ELBO)-parts(1)-dyn(25)-lvm(28)_final(8).mov,resources/videos_natural\training(1).mov,True,False,right,0,281,281,281,2018-12-11 14:38:04.219144,2018-12-11 14:38:08.123367,0:00:03.904223,7,right,1,0.6175753979969159,20,m,1,25,2018_Dec_11_1407,MP_PerceptionTuring2,59.94526107507447,
283,resources/videos_generated\model(tmp)-dataset(walking)-numprim(12)_final(6).mov,resources/videos_natural\training(6).mov,True,True,left,0,282,282,282,2018-12-11 14:38:09.857466,2018-12-11 14:38:13.761689,0:00:03.904223,7,right,0,0.36737391503265826,20,m,1,25,2018_Dec_11_1407,MP_PerceptionTuring2,59.94526107507447,
284,resources/videos_generated\model(vcgpdm)-dataset(walking)-mode(ELBO)-parts(1)-dyn(22)-lvm(23)_final(4)_fail.mov,resources/videos_natural\training(47).mov,False,True,left,0,283,283,283,2018-12-11 14:38:15.245774,2018-12-11 14:38:19.132997,0:00:03.887223,7,left,1,0.2836780729903694,20,m,1,25,2018_Dec_11_1407,MP_PerceptionTuring2,59.94526107507447,
285,resources/videos_generated\model(dmp)-dataset(walking)-npsi(70)_final(6).mov,resources/videos_natural\training(5).mov,True,False,right,0,284,284,284,2018-12-11 14:38:20.534077,2018-12-11 14:38:24.437300,0:00:03.903223,7,left,0,0.4173290406506567,20,m,1,25,2018_Dec_11_1407,MP_PerceptionTuring2,59.94526107507447,
286,resources/videos_generated\model(vcgpdm)-dataset(walking)-mode(ELBO)-parts(1)-dyn(25)-lvm(22)_final(2).mov,resources/videos_natural\training(41).mov,False,False,right,0,285,285,285,2018-12-11 14:38:25.971388,2018-12-11 14:38:29.891612,0:00:03.920224,7,right,1,0.2504972322440153,20,m,1,25,2018_Dec_11_1407,MP_PerceptionTuring2,59.94526107507447,
287,resources/videos_generated\model(vcgpdm)-dataset(walking)-mode(ELBO)-parts(1)-dyn(24)-lvm(27)_final(2).mov,resources/videos_natural\training(25).mov,False,False,right,0,286,286,286,2018-12-11 14:38:31.259690,2018-12-11 14:38:35.179914,0:00:03.920224,7,right,1,0.5673245230973407,20,m,1,25,2018_Dec_11_1407,MP_PerceptionTuring2,59.94526107507447,
288,resources/videos_generated\model(vcgpdm)-dataset(walking)-mode(ELBO)-parts(2)-dyn(28)-lvm(21)_final(1).mov,resources/videos_natural\training(21).mov,True,True,left,0,287,287,287,2018-12-11 14:38:36.865011,2018-12-11 14:38:40.768234,0:00:03.903223,7,left,1,0.36736698811728274,20,m,1,25,2018_Dec_11_1407,MP_PerceptionTuring2,59.94526107507447,
289,resources/videos_generated\model(vcgpdm)-dataset(walking)-mode(ELBO)-parts(2)-dyn(25)-lvm(20)_final(1).mov,resources/videos_natural\training(16).mov,False,False,right,0,288,288,288,2018-12-11 14:38:42.252319,2018-12-11 14:38:46.155542,0:00:03.903223,7,right,1,0.4172856721215794,20,m,1,25,2018_Dec_11_1407,MP_PerceptionTuring2,59.94526107507447,
290,resources/videos_generated\model(vcgpdm)-dataset(walking)-mode(ELBO)-parts(1)-dyn(22)-lvm(22)_final(0).mov,resources/videos_natural\training(6).mov,True,False,right,0,289,289,289,2018-12-11 14:38:47.690630,2018-12-11 14:38:51.777864,0:00:04.087234,7,right,1,0.5506333612411254,20,m,1,25,2018_Dec_11_1407,MP_PerceptionTuring2,59.94526107507447,
291,resources/videos_generated\model(vcgpdm)-dataset(walking)-mode(ELBO)-parts(1)-dyn(23)-lvm(28)_final(6)_hip-corrected.mov,resources/videos_natural\training(9).mov,False,True,left,0,290,290,290,2018-12-11 14:38:53.445959,2018-12-11 14:38:57.449188,0:00:04.003229,7,right,0,0.3337949270862737,20,m,1,25,2018_Dec_11_1407,MP_PerceptionTuring2,59.94526107507447,
