n_trial,mov_file_generated,mov_file_natural,mirrored,switch_stim_pos,correct_answer,trials.thisRepN,trials.thisTrialN,trials.thisN,trials.thisIndex,stimulus_onset,stimulus_off,stimulus_length,block,response.keys,response.corr,response.rt,age,gender,condition,participant,date,expName,frameRate,
1,resources/videos_generated\model(vcgpdm)-dataset(walking)-mode(ELBO)-parts(2)-dyn(24)-lvm(23)_final(4).mov,resources/videos_natural\training(8).mov,True,True,left,0,0,0,0,2018-12-11 14:52:08.799451,2018-12-11 14:52:12.970689,0:00:04.171238,1,right,0,9.858608352056763,20,m,2,25,2018_Dec_11_1451,MP_PerceptionTuring2,59.932493411586975,
2,resources/videos_generated\model(vcgpdm)-dataset(walking)-mode(ELBO)-parts(2)-dyn(23)-lvm(18)_final(8).mov,resources/videos_natural\training(38).mov,False,True,left,0,1,1,1,2018-12-11 14:52:23.945317,2018-12-11 14:52:27.882542,0:00:03.937225,1,right,0,0.3019780868453381,20,m,2,25,2018_Dec_11_1451,MP_PerceptionTuring2,59.932493411586975,
3,resources/videos_generated\model(vcgpdm)-dataset(walking)-mode(ELBO)-parts(2)-dyn(27)-lvm(18)_final(4).mov,resources/videos_natural\training(27).mov,False,False,right,0,2,2,2,2018-12-11 14:52:29.300623,2018-12-11 14:52:33.220848,0:00:03.920225,1,right,1,0.3506520338032715,20,m,2,25,2018_Dec_11_1451,MP_PerceptionTuring2,59.932493411586975,
4,resources/videos_generated\model(tmp)-dataset(walking)-numprim(11)_final(5).mov,resources/videos_natural\training(17).mov,False,False,right,0,3,3,3,2018-12-11 14:52:34.687932,2018-12-11 14:52:38.575154,0:00:03.887222,1,right,1,0.2504668140391004,20,m,2,25,2018_Dec_11_1451,MP_PerceptionTuring2,59.932493411586975,
5,resources/videos_generated\model(vcgpdm)-dataset(walking)-mode(ELBO)-parts(2)-dyn(22)-lvm(19)_final(0).mov,resources/videos_natural\training(22).mov,False,True,left,0,4,4,4,2018-12-11 14:52:39.943232,2018-12-11 14:52:43.846455,0:00:03.903223,1,left,1,0.2673010318103479,20,m,2,25,2018_Dec_11_1451,MP_PerceptionTuring2,59.932493411586975,
6,resources/videos_generated\model(vcgpdm)-dataset(walking)-mode(ELBO)-parts(2)-dyn(25)-lvm(18)_final(2).mov,resources/videos_natural\training(40).mov,False,True,left,0,5,5,5,2018-12-11 14:52:45.230535,2018-12-11 14:52:49.150759,0:00:03.920224,1,right,0,0.31725555508637626,20,m,2,25,2018_Dec_11_1451,MP_PerceptionTuring2,59.932493411586975,
7,resources/videos_generated\model(vcgpdm)-dataset(walking)-mode(ELBO)-parts(1)-dyn(28)-lvm(25)_final(6).mov,resources/videos_natural\training(44).mov,False,True,left,0,6,6,6,2018-12-11 14:52:50.585841,2018-12-11 14:52:54.506065,0:00:03.920224,1,left,1,0.3005643932319799,20,m,2,25,2018_Dec_11_1451,MP_PerceptionTuring2,59.932493411586975,
8,resources/videos_generated\model(dmp)-dataset(walking)-npsi(90)_final(3).mov,resources/videos_natural\training(36).mov,True,False,right,0,7,7,7,2018-12-11 14:52:55.923146,2018-12-11 14:52:59.826369,0:00:03.903223,1,left,0,0.2837693276069331,20,m,2,25,2018_Dec_11_1451,MP_PerceptionTuring2,59.932493411586975,
9,resources/videos_generated\model(vcgpdm)-dataset(walking)-mode(ELBO)-parts(1)-dyn(26)-lvm(25)_final(2).mov,resources/videos_natural\training(38).mov,False,False,right,0,8,8,8,2018-12-11 14:53:01.228450,2018-12-11 14:53:05.131673,0:00:03.903223,1,right,1,0.3173112716012838,20,m,2,25,2018_Dec_11_1451,MP_PerceptionTuring2,59.932493411586975,
10,resources/videos_generated\model(vcgpdm)-dataset(walking)-mode(ELBO)-parts(2)-dyn(27)-lvm(20)_final(8).mov,resources/videos_natural\training(36).mov,True,True,left,0,9,9,9,2018-12-11 14:53:06.565755,2018-12-11 14:53:10.518981,0:00:03.953226,1,left,1,0.26715225365842343,20,m,2,25,2018_Dec_11_1451,MP_PerceptionTuring2,59.932493411586975,
11,resources/videos_generated\model(vcgpdm)-dataset(walking)-mode(ELBO)-parts(2)-dyn(22)-lvm(19)_final(2).mov,resources/videos_natural\training(28).mov,False,False,right,0,10,10,10,2018-12-11 14:53:11.904060,2018-12-11 14:53:15.790282,0:00:03.886222,1,right,1,0.23372354971434106,20,m,2,25,2018_Dec_11_1451,MP_PerceptionTuring2,59.932493411586975,
12,resources/videos_generated\model(vcgpdm)-dataset(walking)-mode(ELBO)-parts(1)-dyn(23)-lvm(24)_final(2).mov,resources/videos_natural\training(8).mov,True,True,left,0,11,11,11,2018-12-11 14:53:17.141360,2018-12-11 14:53:21.078585,0:00:03.937225,1,left,1,0.36726519253898005,20,m,2,25,2018_Dec_11_1451,MP_PerceptionTuring2,59.932493411586975,
13,resources/videos_generated\model(vcgpdm)-dataset(walking)-mode(ELBO)-parts(2)-dyn(27)-lvm(20)_final(2).mov,resources/videos_natural\training(22).mov,True,True,left,0,12,12,12,2018-12-11 14:53:22.562670,2018-12-11 14:53:26.482894,0:00:03.920224,1,left,1,0.2504674163792515,20,m,2,25,2018_Dec_11_1451,MP_PerceptionTuring2,59.932493411586975,
14,resources/videos_generated\model(vcgpdm)-dataset(walking)-mode(ELBO)-parts(1)-dyn(24)-lvm(25)_final(5).mov,resources/videos_natural\training(31).mov,True,False,right,0,13,13,13,2018-12-11 14:53:27.850972,2018-12-11 14:53:31.754196,0:00:03.903224,1,right,1,0.23388527819224691,20,m,2,25,2018_Dec_11_1451,MP_PerceptionTuring2,59.932493411586975,
15,resources/videos_generated\model(vcgpdm)-dataset(walking)-mode(ELBO)-parts(1)-dyn(27)-lvm(26)_final(2).mov,resources/videos_natural\training(0).mov,False,False,right,0,14,14,14,2018-12-11 14:53:33.105273,2018-12-11 14:53:37.009496,0:00:03.904223,1,right,1,0.26720074208424194,20,m,2,25,2018_Dec_11_1451,MP_PerceptionTuring2,59.932493411586975,
16,resources/videos_generated\model(vcgpdm)-dataset(walking)-mode(ELBO)-parts(1)-dyn(27)-lvm(28)_final(2).mov,resources/videos_natural\training(29).mov,False,True,left,0,15,15,15,2018-12-11 14:53:38.393575,2018-12-11 14:53:42.296799,0:00:03.903224,1,right,0,0.16709352544057765,20,m,2,25,2018_Dec_11_1451,MP_PerceptionTuring2,59.932493411586975,
17,resources/videos_generated\model(vcgpdm)-dataset(walking)-mode(ELBO)-parts(1)-dyn(28)-lvm(24)_final(0).mov,resources/videos_natural\training(15).mov,False,True,left,0,16,16,16,2018-12-11 14:53:43.580872,2018-12-11 14:53:47.485095,0:00:03.904223,1,right,0,0.18371782747635734,20,m,2,25,2018_Dec_11_1451,MP_PerceptionTuring2,59.932493411586975,
18,resources/videos_generated\model(tmp)-dataset(walking)-numprim(11)_final(9).mov,resources/videos_natural\training(39).mov,False,False,right,0,17,17,17,2018-12-11 14:53:48.786170,2018-12-11 14:53:52.722395,0:00:03.936225,1,right,1,0.20053969726359355,20,m,2,25,2018_Dec_11_1451,MP_PerceptionTuring2,59.932493411586975,
19,resources/videos_generated\model(vcgpdm)-dataset(walking)-mode(ELBO)-parts(2)-dyn(26)-lvm(21)_final(4).mov,resources/videos_natural\training(2).mov,False,True,left,0,18,18,18,2018-12-11 14:53:54.040470,2018-12-11 14:53:57.943694,0:00:03.903224,1,left,1,0.33380366102755943,20,m,2,25,2018_Dec_11_1451,MP_PerceptionTuring2,59.932493411586975,
20,resources/videos_generated\model(vcgpdm)-dataset(walking)-mode(ELBO)-parts(1)-dyn(27)-lvm(26)_final(4).mov,resources/videos_natural\training(9).mov,False,False,right,0,19,19,19,2018-12-11 14:53:59.394777,2018-12-11 14:54:03.281999,0:00:03.887222,1,right,1,0.2838491377478931,20,m,2,25,2018_Dec_11_1451,MP_PerceptionTuring2,59.932493411586975,
21,resources/videos_generated\model(dmp)-dataset(walking)-npsi(60)_final(5).mov,resources/videos_natural\training(6).mov,False,False,right,0,20,20,20,2018-12-11 14:54:04.683079,2018-12-11 14:54:08.603303,0:00:03.920224,1,right,1,0.23375999132622383,20,m,2,25,2018_Dec_11_1451,MP_PerceptionTuring2,59.932493411586975,
22,resources/videos_generated\model(vcgpdm)-dataset(walking)-mode(ELBO)-parts(2)-dyn(27)-lvm(20)_final(4).mov,resources/videos_natural\training(1).mov,True,True,left,0,21,21,21,2018-12-11 14:54:09.954380,2018-12-11 14:54:13.857604,0:00:03.903224,1,left,1,0.3339178045880544,20,m,2,25,2018_Dec_11_1451,MP_PerceptionTuring2,59.932493411586975,
23,resources/videos_generated\model(vcgpdm)-dataset(walking)-mode(ELBO)-parts(2)-dyn(25)-lvm(20)_final(4).mov,resources/videos_natural\training(11).mov,False,False,right,0,22,22,22,2018-12-11 14:54:15.308687,2018-12-11 14:54:19.211910,0:00:03.903223,1,right,1,0.26715978291576903,20,m,2,25,2018_Dec_11_1451,MP_PerceptionTuring2,59.932493411586975,
24,resources/videos_generated\model(vcgpdm)-dataset(walking)-mode(ELBO)-parts(2)-dyn(23)-lvm(18)_final(2).mov,resources/videos_natural\training(24).mov,False,True,left,0,23,23,23,2018-12-11 14:54:20.596989,2018-12-11 14:54:24.500212,0:00:03.903223,1,right,0,0.23383136869961163,20,m,2,25,2018_Dec_11_1451,MP_PerceptionTuring2,59.932493411586975,
25,resources/videos_generated\model(vcgpdm)-dataset(walking)-mode(ELBO)-parts(1)-dyn(25)-lvm(26)_final(9).mov,resources/videos_natural\training(19).mov,False,False,right,0,24,24,24,2018-12-11 14:54:25.851290,2018-12-11 14:54:29.771514,0:00:03.920224,1,right,1,0.23384462019384955,20,m,2,25,2018_Dec_11_1451,MP_PerceptionTuring2,59.932493411586975,
26,resources/videos_generated\model(vcgpdm)-dataset(walking)-mode(ELBO)-parts(1)-dyn(22)-lvm(27)_final(5)_fail.mov,resources/videos_natural\training(35).mov,False,True,left,0,25,25,25,2018-12-11 14:54:31.122591,2018-12-11 14:54:35.042815,0:00:03.920224,1,left,1,0.4171992362316814,20,m,2,25,2018_Dec_11_1451,MP_PerceptionTuring2,59.932493411586975,
27,resources/videos_generated\model(vcgpdm)-dataset(walking)-mode(ELBO)-parts(1)-dyn(25)-lvm(28)_final(7).mov,resources/videos_natural\training(13).mov,False,False,right,0,26,26,26,2018-12-11 14:54:36.576903,2018-12-11 14:54:40.480126,0:00:03.903223,1,right,1,0.3005421066263807,20,m,2,25,2018_Dec_11_1451,MP_PerceptionTuring2,59.932493411586975,
28,resources/videos_generated\model(vcgpdm)-dataset(walking)-mode(ELBO)-parts(2)-dyn(22)-lvm(19)_final(6).mov,resources/videos_natural\training(37).mov,True,False,right,0,27,27,27,2018-12-11 14:54:41.898208,2018-12-11 14:54:45.785430,0:00:03.887222,1,right,1,0.4838876875528513,20,m,2,25,2018_Dec_11_1451,MP_PerceptionTuring2,59.932493411586975,
29,resources/videos_generated\model(tmp)-dataset(walking)-numprim(15)_final(7).mov,resources/videos_natural\training(0).mov,False,True,left,0,28,28,28,2018-12-11 14:54:47.386521,2018-12-11 14:54:51.272744,0:00:03.886223,1,right,0,0.2504595859518304,20,m,2,25,2018_Dec_11_1451,MP_PerceptionTuring2,59.932493411586975,
30,resources/videos_generated\model(vcgpdm)-dataset(walking)-mode(ELBO)-parts(2)-dyn(25)-lvm(22)_final(0).mov,resources/videos_natural\training(46).mov,False,True,left,0,29,29,29,2018-12-11 14:54:52.640822,2018-12-11 14:54:56.544045,0:00:03.903223,1,left,1,0.33394099470569927,20,m,2,25,2018_Dec_11_1451,MP_PerceptionTuring2,59.932493411586975,
31,resources/videos_generated\model(vcgpdm)-dataset(walking)-mode(ELBO)-parts(1)-dyn(22)-lvm(23)_final(1).mov,resources/videos_natural\training(29).mov,False,True,left,0,30,30,30,2018-12-11 14:54:57.996128,2018-12-11 14:55:01.882351,0:00:03.886223,1,left,1,0.26714351971895667,20,m,2,25,2018_Dec_11_1451,MP_PerceptionTuring2,59.932493411586975,
32,resources/videos_generated\model(vcgpdm)-dataset(walking)-mode(ELBO)-parts(2)-dyn(22)-lvm(17)_final(4).mov,resources/videos_natural\training(38).mov,True,False,right,0,31,31,31,2018-12-11 14:55:03.266430,2018-12-11 14:55:07.153652,0:00:03.887222,1,left,0,0.20031321716123784,20,m,2,25,2018_Dec_11_1451,MP_PerceptionTuring2,59.932493411586975,
33,resources/videos_generated\model(vcgpdm)-dataset(walking)-mode(ELBO)-parts(1)-dyn(28)-lvm(24)_final(5).mov,resources/videos_natural\training(17).mov,False,True,left,0,32,32,32,2018-12-11 14:55:08.471727,2018-12-11 14:55:12.374951,0:00:03.903224,1,left,1,0.26716881802531134,20,m,2,25,2018_Dec_11_1451,MP_PerceptionTuring2,59.932493411586975,
34,resources/videos_generated\model(vcgpdm)-dataset(walking)-mode(ELBO)-parts(2)-dyn(23)-lvm(20)_final(2).mov,resources/videos_natural\training(48).mov,False,False,right,0,33,33,33,2018-12-11 14:55:13.759030,2018-12-11 14:55:17.679254,0:00:03.920224,1,right,1,0.23365337702307443,20,m,2,25,2018_Dec_11_1451,MP_PerceptionTuring2,59.932493411586975,
35,resources/videos_generated\model(vcgpdm)-dataset(walking)-mode(ELBO)-parts(2)-dyn(28)-lvm(21)_final(0).mov,resources/videos_natural\training(4).mov,True,True,left,0,34,34,34,2018-12-11 14:55:19.030331,2018-12-11 14:55:23.000558,0:00:03.970227,1,left,1,0.20031683120760135,20,m,2,25,2018_Dec_11_1451,MP_PerceptionTuring2,59.932493411586975,
36,resources/videos_generated\model(vcgpdm)-dataset(walking)-mode(ELBO)-parts(1)-dyn(25)-lvm(23)_final(2).mov,resources/videos_natural\training(22).mov,True,True,left,0,35,35,35,2018-12-11 14:55:24.318634,2018-12-11 14:55:28.204856,0:00:03.886222,1,left,1,0.2837265614180069,20,m,2,25,2018_Dec_11_1451,MP_PerceptionTuring2,59.932493411586975,
37,resources/videos_generated\model(vcgpdm)-dataset(walking)-mode(ELBO)-parts(1)-dyn(23)-lvm(28)_final(7).mov,resources/videos_natural\training(22).mov,False,False,right,0,36,36,36,2018-12-11 14:55:29.605936,2018-12-11 14:55:33.543161,0:00:03.937225,1,right,1,0.30059932899166597,20,m,2,25,2018_Dec_11_1451,MP_PerceptionTuring2,59.932493411586975,
38,resources/videos_generated\model(vcgpdm)-dataset(walking)-mode(ELBO)-parts(2)-dyn(24)-lvm(21)_final(0).mov,resources/videos_natural\training(22).mov,True,True,left,0,37,37,37,2018-12-11 14:55:34.961243,2018-12-11 14:55:38.847465,0:00:03.886222,1,left,1,0.300499039267379,20,m,2,25,2018_Dec_11_1451,MP_PerceptionTuring2,59.932493411586975,
39,resources/videos_generated\model(vcgpdm)-dataset(walking)-mode(ELBO)-parts(2)-dyn(24)-lvm(23)_final(2).mov,resources/videos_natural\training(26).mov,True,True,left,0,38,38,38,2018-12-11 14:55:40.265546,2018-12-11 14:55:44.218772,0:00:03.953226,1,left,1,0.3018663526454475,20,m,2,25,2018_Dec_11_1451,MP_PerceptionTuring2,59.932493411586975,
40,resources/videos_generated\model(dmp)-dataset(walking)-npsi(100)_final(3).mov,resources/videos_natural\training(35).mov,True,False,right,0,39,39,39,2018-12-11 14:55:45.636853,2018-12-11 14:55:49.557077,0:00:03.920224,1,left,0,0.3672594703020877,20,m,2,25,2018_Dec_11_1451,MP_PerceptionTuring2,59.932493411586975,
41,resources/videos_generated\model(vcgpdm)-dataset(walking)-mode(ELBO)-parts(1)-dyn(25)-lvm(28)_final(1).mov,resources/videos_natural\training(17).mov,False,True,left,0,40,40,40,2018-12-11 14:55:51.041162,2018-12-11 14:55:54.978388,0:00:03.937226,1,left,1,0.38395063215648406,20,m,2,25,2018_Dec_11_1451,MP_PerceptionTuring2,59.932493411586975,
42,resources/videos_generated\model(vcgpdm)-dataset(walking)-mode(ELBO)-parts(1)-dyn(23)-lvm(24)_final(0).mov,resources/videos_natural\training(17).mov,False,True,left,0,41,41,41,2018-12-11 14:55:56.479473,2018-12-11 14:56:00.382697,0:00:03.903224,1,left,1,0.45060836410448246,20,m,2,25,2018_Dec_11_1451,MP_PerceptionTuring2,59.932493411586975,
43,resources/videos_generated\model(vcgpdm)-dataset(walking)-mode(ELBO)-parts(1)-dyn(22)-lvm(23)_final(9).mov,resources/videos_natural\training(27).mov,True,False,right,0,42,42,42,2018-12-11 14:56:01.950786,2018-12-11 14:56:05.871011,0:00:03.920225,1,right,1,0.31726880658243317,20,m,2,25,2018_Dec_11_1451,MP_PerceptionTuring2,59.932493411586975,
44,resources/videos_generated\model(vcgpdm)-dataset(walking)-mode(ELBO)-parts(1)-dyn(26)-lvm(27)_final(4).mov,resources/videos_natural\training(29).mov,True,False,right,0,43,43,43,2018-12-11 14:56:07.305093,2018-12-11 14:56:11.209316,0:00:03.904223,1,right,1,0.20039362964598695,20,m,2,25,2018_Dec_11_1451,MP_PerceptionTuring2,59.932493411586975,
45,resources/videos_generated\model(dmp)-dataset(walking)-npsi(90)_final(1).mov,resources/videos_natural\training(8).mov,False,False,right,0,44,44,44,2018-12-11 14:56:12.526391,2018-12-11 14:56:16.463616,0:00:03.937225,1,right,1,0.11714020684485149,20,m,2,25,2018_Dec_11_1451,MP_PerceptionTuring2,59.932493411586975,
46,resources/videos_generated\model(tmp)-dataset(walking)-numprim(11)_final(3).mov,resources/videos_natural\training(2).mov,True,True,left,0,45,45,45,2018-12-11 14:56:48.090425,2018-12-11 14:56:52.010650,0:00:03.920225,2,right,0,0.1670799727744452,20,m,2,25,2018_Dec_11_1451,MP_PerceptionTuring2,59.932493411586975,
47,resources/videos_generated\model(vcgpdm)-dataset(walking)-mode(ELBO)-parts(2)-dyn(28)-lvm(17)_final(8).mov,resources/videos_natural\training(32).mov,False,True,left,0,46,46,46,2018-12-11 14:56:53.295723,2018-12-11 14:56:57.198946,0:00:03.903223,2,left,1,0.2838160090104793,20,m,2,25,2018_Dec_11_1451,MP_PerceptionTuring2,59.932493411586975,
48,resources/videos_generated\model(vcgpdm)-dataset(walking)-mode(ELBO)-parts(1)-dyn(27)-lvm(28)_final(4).mov,resources/videos_natural\training(23).mov,True,False,right,0,47,47,47,2018-12-11 14:56:58.600026,2018-12-11 14:57:02.503250,0:00:03.903224,2,right,1,0.3005415042862296,20,m,2,25,2018_Dec_11_1451,MP_PerceptionTuring2,59.932493411586975,
49,resources/videos_generated\model(dmp)-dataset(walking)-npsi(90)_final(5).mov,resources/videos_natural\training(23).mov,True,True,left,0,48,48,48,2018-12-11 14:57:03.922331,2018-12-11 14:57:07.824554,0:00:03.902223,2,left,1,0.23384130731938058,20,m,2,25,2018_Dec_11_1451,MP_PerceptionTuring2,59.932493411586975,
50,resources/videos_generated\model(tmp)-dataset(walking)-numprim(12)_final(1).mov,resources/videos_natural\training(12).mov,False,False,right,0,49,49,49,2018-12-11 14:57:09.175631,2018-12-11 14:57:13.112857,0:00:03.937226,2,right,1,1.4849661785701755,20,m,2,25,2018_Dec_11_1451,MP_PerceptionTuring2,59.932493411586975,
51,resources/videos_generated\model(vcgpdm)-dataset(walking)-mode(ELBO)-parts(2)-dyn(28)-lvm(21)_final(8).mov,resources/videos_natural\training(16).mov,True,False,right,0,50,50,50,2018-12-11 14:57:15.715005,2018-12-11 14:57:19.651231,0:00:03.936226,2,right,1,0.25039212379306264,20,m,2,25,2018_Dec_11_1451,MP_PerceptionTuring2,59.932493411586975,
52,resources/videos_generated\model(vcgpdm)-dataset(walking)-mode(ELBO)-parts(2)-dyn(22)-lvm(23)_final(4).mov,resources/videos_natural\training(35).mov,True,False,right,0,51,51,51,2018-12-11 14:57:21.019309,2018-12-11 14:57:24.939533,0:00:03.920224,2,right,1,0.18381119028526882,20,m,2,25,2018_Dec_11_1451,MP_PerceptionTuring2,59.932493411586975,
53,resources/videos_generated\model(vcgpdm)-dataset(walking)-mode(ELBO)-parts(1)-dyn(23)-lvm(26)_final(0).mov,resources/videos_natural\training(36).mov,False,True,left,0,52,52,52,2018-12-11 14:57:26.240607,2018-12-11 14:57:30.160832,0:00:03.920225,2,left,1,0.45077641715579375,20,m,2,25,2018_Dec_11_1451,MP_PerceptionTuring2,59.932493411586975,
54,resources/videos_generated\model(vcgpdm)-dataset(walking)-mode(ELBO)-parts(1)-dyn(25)-lvm(26)_final(1).mov,resources/videos_natural\training(46).mov,False,False,right,0,53,53,53,2018-12-11 14:57:31.728921,2018-12-11 14:57:35.649146,0:00:03.920225,2,left,0,0.4840021322870598,20,m,2,25,2018_Dec_11_1451,MP_PerceptionTuring2,59.932493411586975,
55,resources/videos_generated\model(dmp)-dataset(walking)-npsi(70)_final(7).mov,resources/videos_natural\training(21).mov,False,False,right,0,54,54,54,2018-12-11 14:57:37.250237,2018-12-11 14:57:41.170461,0:00:03.920224,2,right,1,0.2670052825287712,20,m,2,25,2018_Dec_11_1451,MP_PerceptionTuring2,59.932493411586975,
56,resources/videos_generated\model(dmp)-dataset(walking)-npsi(100)_final(5).mov,resources/videos_natural\training(14).mov,True,True,left,0,55,55,55,2018-12-11 14:57:42.554541,2018-12-11 14:57:46.457764,0:00:03.903223,2,left,1,0.16695378239819547,20,m,2,25,2018_Dec_11_1451,MP_PerceptionTuring2,59.932493411586975,
57,resources/videos_generated\model(vcgpdm)-dataset(walking)-mode(ELBO)-parts(2)-dyn(24)-lvm(17)_final(2).mov,resources/videos_natural\training(6).mov,True,False,right,0,56,56,56,2018-12-11 14:57:47.741837,2018-12-11 14:57:51.629060,0:00:03.887223,2,left,0,0.01786602738320653,20,m,2,25,2018_Dec_11_1451,MP_PerceptionTuring2,59.932493411586975,
58,resources/videos_generated\model(vcgpdm)-dataset(walking)-mode(ELBO)-parts(1)-dyn(27)-lvm(22)_final(6).mov,resources/videos_natural\training(26).mov,True,True,left,0,57,57,57,2018-12-11 14:57:52.763124,2018-12-11 14:57:56.650347,0:00:03.887223,2,left,1,0.36734470150986454,20,m,2,25,2018_Dec_11_1451,MP_PerceptionTuring2,59.932493411586975,
59,resources/videos_generated\model(vcgpdm)-dataset(walking)-mode(ELBO)-parts(2)-dyn(22)-lvm(19)_final(8).mov,resources/videos_natural\training(35).mov,False,True,left,0,58,58,58,2018-12-11 14:57:58.134432,2018-12-11 14:58:02.071657,0:00:03.937225,2,left,1,0.2505089778878755,20,m,2,25,2018_Dec_11_1451,MP_PerceptionTuring2,59.932493411586975,
60,resources/videos_generated\model(vcgpdm)-dataset(walking)-mode(ELBO)-parts(1)-dyn(25)-lvm(28)_final(3).mov,resources/videos_natural\training(40).mov,False,False,right,0,59,59,59,2018-12-11 14:58:03.439735,2018-12-11 14:58:07.342958,0:00:03.903223,2,right,1,0.2671534583387256,20,m,2,25,2018_Dec_11_1451,MP_PerceptionTuring2,59.932493411586975,
61,resources/videos_generated\model(dmp)-dataset(walking)-npsi(100)_final(1).mov,resources/videos_natural\training(17).mov,False,False,right,0,60,60,60,2018-12-11 14:58:08.727037,2018-12-11 14:58:12.647262,0:00:03.920225,2,left,0,0.3170878032033215,20,m,2,25,2018_Dec_11_1451,MP_PerceptionTuring2,59.932493411586975,
62,resources/videos_generated\model(tmp)-dataset(walking)-numprim(14)_final(5).mov,resources/videos_natural\training(23).mov,False,False,right,0,61,61,61,2018-12-11 14:58:14.081344,2018-12-11 14:58:18.018569,0:00:03.937225,2,right,1,0.0335895289099426,20,m,2,25,2018_Dec_11_1451,MP_PerceptionTuring2,59.932493411586975,
63,resources/videos_generated\model(vcgpdm)-dataset(walking)-mode(ELBO)-parts(2)-dyn(28)-lvm(17)_final(2).mov,resources/videos_natural\training(3).mov,False,False,right,0,62,62,62,2018-12-11 14:58:19.169635,2018-12-11 14:58:23.072858,0:00:03.903223,2,right,1,0.267332654697384,20,m,2,25,2018_Dec_11_1451,MP_PerceptionTuring2,59.932493411586975,
64,resources/videos_generated\model(vcgpdm)-dataset(walking)-mode(ELBO)-parts(2)-dyn(25)-lvm(18)_final(6).mov,resources/videos_natural\training(48).mov,True,True,left,0,63,63,63,2018-12-11 14:58:24.457937,2018-12-11 14:58:28.361160,0:00:03.903223,2,left,1,0.11695408356899861,20,m,2,25,2018_Dec_11_1451,MP_PerceptionTuring2,59.932493411586975,
65,resources/videos_generated\model(vcgpdm)-dataset(walking)-mode(ELBO)-parts(1)-dyn(25)-lvm(24)_final(2).mov,resources/videos_natural\training(37).mov,True,True,left,0,64,64,64,2018-12-11 14:58:29.595231,2018-12-11 14:58:33.498454,0:00:03.903223,2,left,1,0.2504616941441782,20,m,2,25,2018_Dec_11_1451,MP_PerceptionTuring2,59.932493411586975,
66,resources/videos_generated\model(dmp)-dataset(walking)-npsi(100)_final(9).mov,resources/videos_natural\training(38).mov,False,False,right,0,65,65,65,2018-12-11 14:58:34.866533,2018-12-11 14:58:38.769756,0:00:03.903223,2,right,1,0.1836621109632688,20,m,2,25,2018_Dec_11_1451,MP_PerceptionTuring2,59.932493411586975,
67,resources/videos_generated\model(vcgpdm)-dataset(walking)-mode(ELBO)-parts(2)-dyn(26)-lvm(23)_final(8).mov,resources/videos_natural\training(34).mov,True,True,left,0,66,66,66,2018-12-11 14:58:40.070830,2018-12-11 14:58:44.008055,0:00:03.937225,2,left,1,0.30062553081370424,20,m,2,25,2018_Dec_11_1451,MP_PerceptionTuring2,59.932493411586975,
68,resources/videos_generated\model(vcgpdm)-dataset(walking)-mode(ELBO)-parts(2)-dyn(22)-lvm(21)_final(2).mov,resources/videos_natural\training(23).mov,False,True,left,0,67,67,67,2018-12-11 14:58:45.425137,2018-12-11 14:58:49.329360,0:00:03.904223,2,right,0,0.31717514260344615,20,m,2,25,2018_Dec_11_1451,MP_PerceptionTuring2,59.932493411586975,
69,resources/videos_generated\model(vcgpdm)-dataset(walking)-mode(ELBO)-parts(2)-dyn(26)-lvm(19)_final(6).mov,resources/videos_natural\training(33).mov,True,True,left,0,68,68,68,2018-12-11 14:58:50.763442,2018-12-11 14:58:54.683666,0:00:03.920224,2,left,1,0.0670938266102894,20,m,2,25,2018_Dec_11_1451,MP_PerceptionTuring2,59.932493411586975,
70,resources/videos_generated\model(vcgpdm)-dataset(walking)-mode(ELBO)-parts(1)-dyn(22)-lvm(27)_final(7)_hip-corrected.mov,resources/videos_natural\training(32).mov,False,True,left,0,69,69,69,2018-12-11 14:58:55.867734,2018-12-11 14:58:59.770957,0:00:03.903223,2,right,0,0.13356483294046484,20,m,2,25,2018_Dec_11_1451,MP_PerceptionTuring2,59.932493411586975,
71,resources/videos_generated\model(vcgpdm)-dataset(walking)-mode(ELBO)-parts(1)-dyn(22)-lvm(25)_final(7).mov,resources/videos_natural\training(21).mov,True,False,right,0,70,70,70,2018-12-11 14:59:01.022029,2018-12-11 14:59:04.926252,0:00:03.904223,2,right,1,0.46730735638629994,20,m,2,25,2018_Dec_11_1451,MP_PerceptionTuring2,59.932493411586975,
72,resources/videos_generated\model(vcgpdm)-dataset(walking)-mode(ELBO)-parts(2)-dyn(24)-lvm(19)_final(8).mov,resources/videos_natural\training(31).mov,True,True,left,0,71,71,71,2018-12-11 14:59:06.510343,2018-12-11 14:59:10.414566,0:00:03.904223,2,left,1,0.25054301013733493,20,m,2,25,2018_Dec_11_1451,MP_PerceptionTuring2,59.932493411586975,
73,resources/videos_generated\model(vcgpdm)-dataset(walking)-mode(ELBO)-parts(1)-dyn(24)-lvm(25)_final(9).mov,resources/videos_natural\training(23).mov,False,True,left,0,72,72,72,2018-12-11 14:59:11.781644,2018-12-11 14:59:15.684867,0:00:03.903223,2,right,0,0.23378498846432194,20,m,2,25,2018_Dec_11_1451,MP_PerceptionTuring2,59.932493411586975,
74,resources/videos_generated\model(vcgpdm)-dataset(walking)-mode(ELBO)-parts(2)-dyn(24)-lvm(21)_final(4).mov,resources/videos_natural\training(24).mov,True,False,right,0,73,73,73,2018-12-11 14:59:17.035945,2018-12-11 14:59:20.940168,0:00:03.904223,2,left,0,0.5342099398276332,20,m,2,25,2018_Dec_11_1451,MP_PerceptionTuring2,59.932493411586975,
75,resources/videos_generated\model(vcgpdm)-dataset(walking)-mode(ELBO)-parts(2)-dyn(23)-lvm(22)_final(6).mov,resources/videos_natural\training(18).mov,False,True,left,0,74,74,74,2018-12-11 14:59:22.591262,2018-12-11 14:59:26.511487,0:00:03.920225,2,left,1,0.6675615441617992,20,m,2,25,2018_Dec_11_1451,MP_PerceptionTuring2,59.932493411586975,
76,resources/videos_generated\model(vcgpdm)-dataset(walking)-mode(ELBO)-parts(2)-dyn(24)-lvm(19)_final(4).mov,resources/videos_natural\training(44).mov,True,True,left,0,75,75,75,2018-12-11 14:59:28.295589,2018-12-11 14:59:32.215813,0:00:03.920224,2,left,1,0.2338145031590102,20,m,2,25,2018_Dec_11_1451,MP_PerceptionTuring2,59.932493411586975,
77,resources/videos_generated\model(vcgpdm)-dataset(walking)-mode(ELBO)-parts(2)-dyn(27)-lvm(18)_final(0).mov,resources/videos_natural\training(20).mov,True,False,right,0,76,76,76,2018-12-11 14:59:33.567890,2018-12-11 14:59:37.487114,0:00:03.919224,2,right,1,0.08364223371972912,20,m,2,25,2018_Dec_11_1451,MP_PerceptionTuring2,59.932493411586975,
78,resources/videos_generated\model(dmp)-dataset(walking)-npsi(90)_final(7).mov,resources/videos_natural\training(42).mov,False,True,left,0,77,77,77,2018-12-11 14:59:38.688183,2018-12-11 14:59:42.591406,0:00:03.903223,2,right,0,0.28385907636948104,20,m,2,25,2018_Dec_11_1451,MP_PerceptionTuring2,59.932493411586975,
79,resources/videos_generated\model(vcgpdm)-dataset(walking)-mode(ELBO)-parts(1)-dyn(23)-lvm(24)_final(4).mov,resources/videos_natural\training(31).mov,False,True,left,0,78,78,78,2018-12-11 14:59:43.992486,2018-12-11 14:59:47.879709,0:00:03.887223,2,left,1,0.15045536956677097,20,m,2,25,2018_Dec_11_1451,MP_PerceptionTuring2,59.932493411586975,
80,resources/videos_generated\model(vcgpdm)-dataset(walking)-mode(ELBO)-parts(2)-dyn(25)-lvm(22)_final(8).mov,resources/videos_natural\training(37).mov,False,True,left,0,79,79,79,2018-12-11 14:59:49.147781,2018-12-11 14:59:53.084006,0:00:03.936225,2,left,1,0.3674627602867986,20,m,2,25,2018_Dec_11_1451,MP_PerceptionTuring2,59.932493411586975,
81,resources/videos_generated\model(dmp)-dataset(walking)-npsi(50)_final(7).mov,resources/videos_natural\training(3).mov,True,False,right,0,80,80,80,2018-12-11 14:59:54.569091,2018-12-11 14:59:58.472315,0:00:03.903224,2,left,0,0.7509535053231957,20,m,2,25,2018_Dec_11_1451,MP_PerceptionTuring2,59.932493411586975,
82,resources/videos_generated\model(vcgpdm)-dataset(walking)-mode(ELBO)-parts(2)-dyn(25)-lvm(20)_final(2).mov,resources/videos_natural\training(32).mov,True,False,right,0,81,81,81,2018-12-11 15:00:00.340421,2018-12-11 15:00:04.243645,0:00:03.903224,2,right,1,0.20034634590047062,20,m,2,25,2018_Dec_11_1451,MP_PerceptionTuring2,59.932493411586975,
83,resources/videos_generated\model(vcgpdm)-dataset(walking)-mode(ELBO)-parts(1)-dyn(22)-lvm(25)_final(1).mov,resources/videos_natural\training(41).mov,True,True,left,0,82,82,82,2018-12-11 15:00:05.561720,2018-12-11 15:00:09.481944,0:00:03.920224,2,left,1,0.7342400568613812,20,m,2,25,2018_Dec_11_1451,MP_PerceptionTuring2,59.932493411586975,
84,resources/videos_generated\model(vcgpdm)-dataset(walking)-mode(ELBO)-parts(1)-dyn(25)-lvm(24)_final(8).mov,resources/videos_natural\training(10).mov,True,True,left,0,83,83,83,2018-12-11 15:00:11.333050,2018-12-11 15:00:15.253274,0:00:03.920224,2,left,1,0.9343180599807965,20,m,2,25,2018_Dec_11_1451,MP_PerceptionTuring2,59.932493411586975,
85,resources/videos_generated\model(vcgpdm)-dataset(walking)-mode(ELBO)-parts(2)-dyn(28)-lvm(23)_final(4)_fail.mov,resources/videos_natural\training(0).mov,True,True,left,0,84,84,84,2018-12-11 15:00:17.305392,2018-12-11 15:00:21.225616,0:00:03.920224,2,left,1,0.4672829615883529,20,m,2,25,2018_Dec_11_1451,MP_PerceptionTuring2,59.932493411586975,
86,resources/videos_generated\model(vcgpdm)-dataset(walking)-mode(ELBO)-parts(2)-dyn(26)-lvm(23)_final(6).mov,resources/videos_natural\training(24).mov,True,True,left,0,85,85,85,2018-12-11 15:00:22.809707,2018-12-11 15:00:26.679928,0:00:03.870221,2,right,0,0.2504930158593197,20,m,2,25,2018_Dec_11_1451,MP_PerceptionTuring2,59.932493411586975,
87,resources/videos_generated\model(vcgpdm)-dataset(walking)-mode(ELBO)-parts(1)-dyn(27)-lvm(28)_final(0).mov,resources/videos_natural\training(34).mov,True,True,left,0,86,86,86,2018-12-11 15:00:28.048006,2018-12-11 15:00:31.951229,0:00:03.903223,2,left,1,0.3166935712179111,20,m,2,25,2018_Dec_11_1451,MP_PerceptionTuring2,59.932493411586975,
88,resources/videos_generated\model(tmp)-dataset(walking)-numprim(14)_final(3).mov,resources/videos_natural\training(11).mov,True,True,left,0,87,87,87,2018-12-11 15:00:33.385311,2018-12-11 15:00:37.305536,0:00:03.920225,2,left,1,0.11708057511532388,20,m,2,25,2018_Dec_11_1451,MP_PerceptionTuring2,59.932493411586975,
89,resources/videos_generated\model(vcgpdm)-dataset(walking)-mode(ELBO)-parts(1)-dyn(23)-lvm(28)_final(3)_hip-corrected.mov,resources/videos_natural\training(6).mov,False,True,left,0,88,88,88,2018-12-11 15:00:38.540606,2018-12-11 15:00:42.443830,0:00:03.903224,2,right,0,0.033517549196403706,20,m,2,25,2018_Dec_11_1451,MP_PerceptionTuring2,59.932493411586975,
90,resources/videos_generated\model(vcgpdm)-dataset(walking)-mode(ELBO)-parts(1)-dyn(28)-lvm(25)_final(2).mov,resources/videos_natural\training(39).mov,True,True,left,0,89,89,89,2018-12-11 15:00:43.594895,2018-12-11 15:00:47.514120,0:00:03.919225,2,left,1,0.1670634084039193,20,m,2,25,2018_Dec_11_1451,MP_PerceptionTuring2,59.932493411586975,
91,resources/videos_generated\model(vcgpdm)-dataset(walking)-mode(ELBO)-parts(1)-dyn(25)-lvm(26)_final(5).mov,resources/videos_natural\training(15).mov,True,True,left,0,90,90,90,2018-12-11 15:01:22.528122,2018-12-11 15:01:26.465347,0:00:03.937225,3,left,1,0.3338644974373892,20,m,2,25,2018_Dec_11_1451,MP_PerceptionTuring2,59.932493411586975,
92,resources/videos_generated\model(vcgpdm)-dataset(walking)-mode(ELBO)-parts(1)-dyn(23)-lvm(22)_final(2).mov,resources/videos_natural\training(29).mov,False,True,left,0,91,91,91,2018-12-11 15:01:27.916430,2018-12-11 15:01:31.836655,0:00:03.920225,3,left,1,0.33396779886606964,20,m,2,25,2018_Dec_11_1451,MP_PerceptionTuring2,59.932493411586975,
93,resources/videos_generated\model(vcgpdm)-dataset(walking)-mode(ELBO)-parts(1)-dyn(26)-lvm(23)_final(6)_fail.mov,resources/videos_natural\training(32).mov,True,False,right,0,92,92,92,2018-12-11 15:01:33.287738,2018-12-11 15:01:37.190961,0:00:03.903223,3,right,1,0.2505143989546923,20,m,2,25,2018_Dec_11_1451,MP_PerceptionTuring2,59.932493411586975,
94,resources/videos_generated\model(vcgpdm)-dataset(walking)-mode(ELBO)-parts(1)-dyn(27)-lvm(26)_final(6).mov,resources/videos_natural\training(31).mov,False,False,right,0,93,93,93,2018-12-11 15:01:38.559039,2018-12-11 15:01:42.462262,0:00:03.903223,3,right,1,0.2338075762418157,20,m,2,25,2018_Dec_11_1451,MP_PerceptionTuring2,59.932493411586975,
95,resources/videos_generated\model(vcgpdm)-dataset(walking)-mode(ELBO)-parts(2)-dyn(28)-lvm(17)_final(6).mov,resources/videos_natural\training(46).mov,True,False,right,0,94,94,94,2018-12-11 15:01:43.813340,2018-12-11 15:01:47.716563,0:00:03.903223,3,right,1,0.30032857685000636,20,m,2,25,2018_Dec_11_1451,MP_PerceptionTuring2,59.932493411586975,
96,resources/videos_generated\model(dmp)-dataset(walking)-npsi(100)_final(7).mov,resources/videos_natural\training(36).mov,False,False,right,0,95,95,95,2018-12-11 15:01:49.134644,2018-12-11 15:01:53.054868,0:00:03.920224,3,right,1,0.23391449171504064,20,m,2,25,2018_Dec_11_1451,MP_PerceptionTuring2,59.932493411586975,
97,resources/videos_generated\model(dmp)-dataset(walking)-npsi(70)_final(9).mov,resources/videos_natural\training(33).mov,True,True,left,0,96,96,96,2018-12-11 15:01:54.405946,2018-12-11 15:01:58.292168,0:00:03.886222,3,left,1,0.08354676272028883,20,m,2,25,2018_Dec_11_1451,MP_PerceptionTuring2,59.932493411586975,
98,resources/videos_generated\model(vcgpdm)-dataset(walking)-mode(ELBO)-parts(1)-dyn(28)-lvm(27)_final(4).mov,resources/videos_natural\training(41).mov,False,True,left,0,97,97,97,2018-12-11 15:01:59.493237,2018-12-11 15:02:03.396460,0:00:03.903223,3,left,1,0.31717725079761294,20,m,2,25,2018_Dec_11_1451,MP_PerceptionTuring2,59.932493411586975,
99,resources/videos_generated\model(vcgpdm)-dataset(walking)-mode(ELBO)-parts(1)-dyn(27)-lvm(24)_final(2).mov,resources/videos_natural\training(47).mov,False,True,left,0,98,98,98,2018-12-11 15:02:04.831542,2018-12-11 15:02:08.751766,0:00:03.920224,3,left,1,1.0845617067934654,20,m,2,25,2018_Dec_11_1451,MP_PerceptionTuring2,59.932493411586975,
100,resources/videos_generated\model(vcgpdm)-dataset(walking)-mode(ELBO)-parts(1)-dyn(26)-lvm(27)_final(2).mov,resources/videos_natural\training(45).mov,False,True,left,0,99,99,99,2018-12-11 15:02:10.952892,2018-12-11 15:02:14.840114,0:00:03.887222,3,left,1,0.6341765099186887,20,m,2,25,2018_Dec_11_1451,MP_PerceptionTuring2,59.932493411586975,
101,resources/videos_generated\model(tmp)-dataset(walking)-numprim(13)_final(9).mov,resources/videos_natural\training(12).mov,True,True,left,0,100,100,100,2018-12-11 15:02:16.591215,2018-12-11 15:02:20.528440,0:00:03.937225,3,left,1,0.2003502611132717,20,m,2,25,2018_Dec_11_1451,MP_PerceptionTuring2,59.932493411586975,
102,resources/videos_generated\model(vcgpdm)-dataset(walking)-mode(ELBO)-parts(2)-dyn(25)-lvm(18)_final(8).mov,resources/videos_natural\training(6).mov,True,True,left,0,101,101,101,2018-12-11 15:02:21.846515,2018-12-11 15:02:25.749738,0:00:03.903223,3,left,1,0.617354941301528,20,m,2,25,2018_Dec_11_1451,MP_PerceptionTuring2,59.932493411586975,
103,resources/videos_generated\model(vcgpdm)-dataset(walking)-mode(ELBO)-parts(2)-dyn(25)-lvm(22)_final(2).mov,resources/videos_natural\training(16).mov,False,True,left,0,102,102,102,2018-12-11 15:02:27.483838,2018-12-11 15:02:31.371060,0:00:03.887222,3,right,0,0.2171519524872565,20,m,2,25,2018_Dec_11_1451,MP_PerceptionTuring2,59.932493411586975,
104,resources/videos_generated\model(vcgpdm)-dataset(walking)-mode(ELBO)-parts(1)-dyn(23)-lvm(22)_final(0).mov,resources/videos_natural\training(25).mov,False,True,left,0,103,103,103,2018-12-11 15:02:32.705136,2018-12-11 15:02:36.625360,0:00:03.920224,3,left,1,0.2837596901554207,20,m,2,25,2018_Dec_11_1451,MP_PerceptionTuring2,59.932493411586975,
105,resources/videos_generated\model(dmp)-dataset(walking)-npsi(50)_final(3).mov,resources/videos_natural\training(7).mov,False,True,left,0,104,104,104,2018-12-11 15:02:38.026441,2018-12-11 15:02:41.913663,0:00:03.887222,3,right,0,0.20040929050264822,20,m,2,25,2018_Dec_11_1451,MP_PerceptionTuring2,59.932493411586975,
106,resources/videos_generated\model(dmp)-dataset(walking)-npsi(60)_final(9).mov,resources/videos_natural\training(6).mov,True,True,left,0,105,105,105,2018-12-11 15:02:43.230738,2018-12-11 15:02:47.117961,0:00:03.887223,3,left,1,0.200383691024399,20,m,2,25,2018_Dec_11_1451,MP_PerceptionTuring2,59.932493411586975,
107,resources/videos_generated\model(vcgpdm)-dataset(walking)-mode(ELBO)-parts(1)-dyn(22)-lvm(25)_final(3).mov,resources/videos_natural\training(43).mov,True,False,right,0,106,106,106,2018-12-11 15:02:48.436036,2018-12-11 15:02:52.389262,0:00:03.953226,3,right,1,0.20065113029340864,20,m,2,25,2018_Dec_11_1451,MP_PerceptionTuring2,59.932493411586975,
108,resources/videos_generated\model(vcgpdm)-dataset(walking)-mode(ELBO)-parts(1)-dyn(25)-lvm(24)_final(4).mov,resources/videos_natural\training(26).mov,False,True,left,0,107,107,107,2018-12-11 15:02:53.707337,2018-12-11 15:02:57.627562,0:00:03.920225,3,left,1,0.3838548599869682,20,m,2,25,2018_Dec_11_1451,MP_PerceptionTuring2,59.932493411586975,
109,resources/videos_generated\model(dmp)-dataset(walking)-npsi(60)_final(3).mov,resources/videos_natural\training(0).mov,False,False,right,0,108,108,108,2018-12-11 15:02:59.128648,2018-12-11 15:03:03.031871,0:00:03.903223,3,right,1,0.28378498846359435,20,m,2,25,2018_Dec_11_1451,MP_PerceptionTuring2,59.932493411586975,
110,resources/videos_generated\model(vcgpdm)-dataset(walking)-mode(ELBO)-parts(1)-dyn(26)-lvm(25)_final(6).mov,resources/videos_natural\training(0).mov,True,False,right,0,109,109,109,2018-12-11 15:03:04.432951,2018-12-11 15:03:08.336174,0:00:03.903223,3,right,1,0.2838178160327516,20,m,2,25,2018_Dec_11_1451,MP_PerceptionTuring2,59.932493411586975,
111,resources/videos_generated\model(vcgpdm)-dataset(walking)-mode(ELBO)-parts(2)-dyn(26)-lvm(19)_final(4).mov,resources/videos_natural\training(18).mov,True,False,right,0,110,110,110,2018-12-11 15:03:09.737254,2018-12-11 15:03:13.674479,0:00:03.937225,3,right,1,0.3505649955732224,20,m,2,25,2018_Dec_11_1451,MP_PerceptionTuring2,59.932493411586975,
112,resources/videos_generated\model(vcgpdm)-dataset(walking)-mode(ELBO)-parts(2)-dyn(27)-lvm(22)_final(0).mov,resources/videos_natural\training(19).mov,False,False,right,0,111,111,111,2018-12-11 15:03:15.142563,2018-12-11 15:03:19.078789,0:00:03.936226,3,right,1,0.33391087766904093,20,m,2,25,2018_Dec_11_1451,MP_PerceptionTuring2,59.932493411586975,
113,resources/videos_generated\model(tmp)-dataset(walking)-numprim(15)_final(9).mov,resources/videos_natural\training(4).mov,True,True,left,0,112,112,112,2018-12-11 15:03:20.529872,2018-12-11 15:03:24.433095,0:00:03.903223,3,right,0,0.11706491425684362,20,m,2,25,2018_Dec_11_1451,MP_PerceptionTuring2,59.932493411586975,
114,resources/videos_generated\model(vcgpdm)-dataset(walking)-mode(ELBO)-parts(2)-dyn(22)-lvm(23)_final(0).mov,resources/videos_natural\training(15).mov,True,False,right,0,113,113,113,2018-12-11 15:03:25.668165,2018-12-11 15:03:29.571389,0:00:03.903224,3,right,1,0.2504782585110661,20,m,2,25,2018_Dec_11_1451,MP_PerceptionTuring2,59.932493411586975,
115,resources/videos_generated\model(vcgpdm)-dataset(walking)-mode(ELBO)-parts(2)-dyn(27)-lvm(18)_final(6).mov,resources/videos_natural\training(5).mov,False,True,left,0,114,114,114,2018-12-11 15:03:30.939467,2018-12-11 15:03:34.842690,0:00:03.903223,3,left,1,0.35057764472730923,20,m,2,25,2018_Dec_11_1451,MP_PerceptionTuring2,59.932493411586975,
116,resources/videos_generated\model(vcgpdm)-dataset(walking)-mode(ELBO)-parts(2)-dyn(23)-lvm(22)_final(4).mov,resources/videos_natural\training(3).mov,False,False,right,0,115,115,115,2018-12-11 15:03:36.310774,2018-12-11 15:03:40.230998,0:00:03.920224,3,right,1,0.25042404785017425,20,m,2,25,2018_Dec_11_1451,MP_PerceptionTuring2,59.932493411586975,
117,resources/videos_generated\model(tmp)-dataset(walking)-numprim(15)_final(3).mov,resources/videos_natural\training(47).mov,False,False,right,0,116,116,116,2018-12-11 15:03:41.598077,2018-12-11 15:03:45.501300,0:00:03.903223,3,right,1,0.33389581915434974,20,m,2,25,2018_Dec_11_1451,MP_PerceptionTuring2,59.932493411586975,
118,resources/videos_generated\model(vcgpdm)-dataset(walking)-mode(ELBO)-parts(2)-dyn(28)-lvm(21)_final(6).mov,resources/videos_natural\training(1).mov,True,False,right,0,117,117,117,2018-12-11 15:03:46.953383,2018-12-11 15:03:50.856606,0:00:03.903223,3,right,1,0.21718086484179366,20,m,2,25,2018_Dec_11_1451,MP_PerceptionTuring2,59.932493411586975,
119,resources/videos_generated\model(vcgpdm)-dataset(walking)-mode(ELBO)-parts(2)-dyn(28)-lvm(21)_final(4).mov,resources/videos_natural\training(39).mov,True,False,right,0,118,118,118,2018-12-11 15:03:52.190682,2018-12-11 15:03:56.110907,0:00:03.920225,3,right,1,0.08362988573571783,20,m,2,25,2018_Dec_11_1451,MP_PerceptionTuring2,59.932493411586975,
120,resources/videos_generated\model(vcgpdm)-dataset(walking)-mode(ELBO)-parts(1)-dyn(22)-lvm(22)_final(9).mov,resources/videos_natural\training(10).mov,True,False,right,0,119,119,119,2018-12-11 15:03:57.311975,2018-12-11 15:04:01.232200,0:00:03.920225,3,right,1,0.18387142435494752,20,m,2,25,2018_Dec_11_1451,MP_PerceptionTuring2,59.932493411586975,
121,resources/videos_generated\model(vcgpdm)-dataset(walking)-mode(ELBO)-parts(1)-dyn(26)-lvm(25)_final(0).mov,resources/videos_natural\training(44).mov,True,True,left,0,120,120,120,2018-12-11 15:04:02.533274,2018-12-11 15:04:06.436497,0:00:03.903223,3,left,1,0.30039302730438067,20,m,2,25,2018_Dec_11_1451,MP_PerceptionTuring2,59.932493411586975,
122,resources/videos_generated\model(vcgpdm)-dataset(walking)-mode(ELBO)-parts(1)-dyn(23)-lvm(27)_final(7).mov,resources/videos_natural\training(33).mov,False,False,right,0,121,121,121,2018-12-11 15:04:07.854578,2018-12-11 15:04:11.757802,0:00:03.903224,3,left,0,0.2671829730334139,20,m,2,25,2018_Dec_11_1451,MP_PerceptionTuring2,59.932493411586975,
123,resources/videos_generated\model(vcgpdm)-dataset(walking)-mode(ELBO)-parts(1)-dyn(28)-lvm(25)_final(8).mov,resources/videos_natural\training(10).mov,False,False,right,0,122,122,122,2018-12-11 15:04:13.141881,2018-12-11 15:04:17.046104,0:00:03.904223,3,right,1,0.2337377047206246,20,m,2,25,2018_Dec_11_1451,MP_PerceptionTuring2,59.932493411586975,
124,resources/videos_generated\model(dmp)-dataset(walking)-npsi(50)_final(9).mov,resources/videos_natural\training(45).mov,True,True,left,0,123,123,123,2018-12-11 15:04:18.397181,2018-12-11 15:04:22.300405,0:00:03.903224,3,right,0,0.2336503653205,20,m,2,25,2018_Dec_11_1451,MP_PerceptionTuring2,59.932493411586975,
125,resources/videos_generated\model(vcgpdm)-dataset(walking)-mode(ELBO)-parts(1)-dyn(27)-lvm(22)_final(2).mov,resources/videos_natural\training(9).mov,False,True,left,0,124,124,124,2018-12-11 15:04:23.651482,2018-12-11 15:04:27.571706,0:00:03.920224,3,right,0,0.10054993705671222,20,m,2,25,2018_Dec_11_1451,MP_PerceptionTuring2,59.932493411586975,
126,resources/videos_generated\model(vcgpdm)-dataset(walking)-mode(ELBO)-parts(1)-dyn(28)-lvm(27)_final(6).mov,resources/videos_natural\training(10).mov,True,True,left,0,125,125,125,2018-12-11 15:04:28.788776,2018-12-11 15:04:32.675998,0:00:03.887222,3,right,0,0.8177172492305544,20,m,2,25,2018_Dec_11_1451,MP_PerceptionTuring2,59.932493411586975,
127,resources/videos_generated\model(dmp)-dataset(walking)-npsi(70)_final(3).mov,resources/videos_natural\training(15).mov,True,False,right,0,126,126,126,2018-12-11 15:04:34.611109,2018-12-11 15:04:38.497331,0:00:03.886222,3,right,1,0.2670558791469375,20,m,2,25,2018_Dec_11_1451,MP_PerceptionTuring2,59.932493411586975,
128,resources/videos_generated\model(vcgpdm)-dataset(walking)-mode(ELBO)-parts(2)-dyn(22)-lvm(21)_final(6).mov,resources/videos_natural\training(21).mov,True,False,right,0,127,127,127,2018-12-11 15:04:39.882410,2018-12-11 15:04:43.785634,0:00:03.903224,3,right,1,0.40041922912314476,20,m,2,25,2018_Dec_11_1451,MP_PerceptionTuring2,59.932493411586975,
129,resources/videos_generated\model(vcgpdm)-dataset(walking)-mode(ELBO)-parts(2)-dyn(28)-lvm(23)_final(6).mov,resources/videos_natural\training(29).mov,True,True,left,0,128,128,128,2018-12-11 15:04:45.303720,2018-12-11 15:04:49.206944,0:00:03.903224,3,left,1,0.36712273896228,20,m,2,25,2018_Dec_11_1451,MP_PerceptionTuring2,59.932493411586975,
130,resources/videos_generated\model(vcgpdm)-dataset(walking)-mode(ELBO)-parts(2)-dyn(26)-lvm(21)_final(2).mov,resources/videos_natural\training(37).mov,True,False,right,0,129,129,129,2018-12-11 15:04:50.691029,2018-12-11 15:04:54.611253,0:00:03.920224,3,right,1,0.5340494160318485,20,m,2,25,2018_Dec_11_1451,MP_PerceptionTuring2,59.932493411586975,
131,resources/videos_generated\model(vcgpdm)-dataset(walking)-mode(ELBO)-parts(1)-dyn(23)-lvm(24)_final(8).mov,resources/videos_natural\training(9).mov,True,True,left,0,130,130,130,2018-12-11 15:04:56.263347,2018-12-11 15:05:00.166570,0:00:03.903223,3,left,1,0.3005622850396321,20,m,2,25,2018_Dec_11_1451,MP_PerceptionTuring2,59.932493411586975,
132,resources/videos_generated\model(vcgpdm)-dataset(walking)-mode(ELBO)-parts(2)-dyn(28)-lvm(23)_final(8).mov,resources/videos_natural\training(13).mov,True,True,left,0,131,131,131,2018-12-11 15:05:01.584652,2018-12-11 15:05:05.487875,0:00:03.903223,3,left,1,0.28381902071487275,20,m,2,25,2018_Dec_11_1451,MP_PerceptionTuring2,59.932493411586975,
133,resources/videos_generated\model(vcgpdm)-dataset(walking)-mode(ELBO)-parts(1)-dyn(23)-lvm(22)_final(6)_fail.mov,resources/videos_natural\training(6).mov,False,True,left,0,132,132,132,2018-12-11 15:05:06.888955,2018-12-11 15:05:10.775177,0:00:03.886222,3,left,1,0.23368138586556597,20,m,2,25,2018_Dec_11_1451,MP_PerceptionTuring2,59.932493411586975,
134,resources/videos_generated\model(vcgpdm)-dataset(walking)-mode(ELBO)-parts(1)-dyn(24)-lvm(23)_final(5).mov,resources/videos_natural\training(12).mov,False,True,left,0,133,133,133,2018-12-11 15:05:12.127255,2018-12-11 15:05:16.063480,0:00:03.936225,3,left,1,0.1504424192407896,20,m,2,25,2018_Dec_11_1451,MP_PerceptionTuring2,59.932493411586975,
135,resources/videos_generated\model(vcgpdm)-dataset(walking)-mode(ELBO)-parts(1)-dyn(25)-lvm(22)_final(7).mov,resources/videos_natural\training(16).mov,True,True,left,0,134,134,134,2018-12-11 15:05:17.331552,2018-12-11 15:05:21.234776,0:00:03.903224,3,left,1,0.20034393653804727,20,m,2,25,2018_Dec_11_1451,MP_PerceptionTuring2,59.932493411586975,
136,resources/videos_generated\model(vcgpdm)-dataset(walking)-mode(ELBO)-parts(2)-dyn(26)-lvm(21)_final(0).mov,resources/videos_natural\training(23).mov,False,True,left,0,135,135,135,2018-12-11 15:05:58.766922,2018-12-11 15:06:02.670145,0:00:03.903223,4,left,1,0.3504520566930296,20,m,2,25,2018_Dec_11_1451,MP_PerceptionTuring2,59.932493411586975,
137,resources/videos_generated\model(vcgpdm)-dataset(walking)-mode(ELBO)-parts(2)-dyn(24)-lvm(17)_final(8).mov,resources/videos_natural\training(28).mov,False,False,right,0,136,136,136,2018-12-11 15:06:04.138229,2018-12-11 15:06:08.025452,0:00:03.887223,4,right,1,0.23379944464250002,20,m,2,25,2018_Dec_11_1451,MP_PerceptionTuring2,59.932493411586975,
138,resources/videos_generated\model(vcgpdm)-dataset(walking)-mode(ELBO)-parts(1)-dyn(22)-lvm(28)_final(2).mov,resources/videos_natural\training(5).mov,False,True,left,0,137,137,137,2018-12-11 15:06:09.376529,2018-12-11 15:06:13.296753,0:00:03.920224,4,right,0,0.20044000987763866,20,m,2,25,2018_Dec_11_1451,MP_PerceptionTuring2,59.932493411586975,
139,resources/videos_generated\model(vcgpdm)-dataset(walking)-mode(ELBO)-parts(1)-dyn(27)-lvm(22)_final(4).mov,resources/videos_natural\training(26).mov,False,True,left,0,138,138,138,2018-12-11 15:06:14.613829,2018-12-11 15:06:18.534053,0:00:03.920224,4,left,1,0.2504903053268208,20,m,2,25,2018_Dec_11_1451,MP_PerceptionTuring2,59.932493411586975,
140,resources/videos_generated\model(tmp)-dataset(walking)-numprim(11)_final(7).mov,resources/videos_natural\training(20).mov,True,False,right,0,139,139,139,2018-12-11 15:06:19.902131,2018-12-11 15:06:23.822355,0:00:03.920224,4,left,0,0.750785753438322,20,m,2,25,2018_Dec_11_1451,MP_PerceptionTuring2,59.932493411586975,
141,resources/videos_generated\model(vcgpdm)-dataset(walking)-mode(ELBO)-parts(1)-dyn(22)-lvm(23)_final(3)_fail.mov,resources/videos_natural\training(17).mov,False,True,left,0,140,140,140,2018-12-11 15:06:25.690462,2018-12-11 15:06:29.576684,0:00:03.886222,4,left,1,0.21711039098045148,20,m,2,25,2018_Dec_11_1451,MP_PerceptionTuring2,59.932493411586975,
142,resources/videos_generated\model(vcgpdm)-dataset(walking)-mode(ELBO)-parts(2)-dyn(28)-lvm(17)_final(0).mov,resources/videos_natural\training(1).mov,False,False,right,0,141,141,141,2018-12-11 15:06:30.911761,2018-12-11 15:06:34.814984,0:00:03.903223,4,right,1,0.31733446171710966,20,m,2,25,2018_Dec_11_1451,MP_PerceptionTuring2,59.932493411586975,
143,resources/videos_generated\model(tmp)-dataset(walking)-numprim(13)_final(1).mov,resources/videos_natural\training(28).mov,True,False,right,0,142,142,142,2018-12-11 15:06:36.249066,2018-12-11 15:06:40.153289,0:00:03.904223,4,left,0,0.2672447129552893,20,m,2,25,2018_Dec_11_1451,MP_PerceptionTuring2,59.932493411586975,
144,resources/videos_generated\model(vcgpdm)-dataset(walking)-mode(ELBO)-parts(2)-dyn(28)-lvm(19)_final(4).mov,resources/videos_natural\training(20).mov,False,True,left,0,143,143,143,2018-12-11 15:06:41.537369,2018-12-11 15:06:45.457593,0:00:03.920224,4,right,0,0.23371391226282867,20,m,2,25,2018_Dec_11_1451,MP_PerceptionTuring2,59.932493411586975,
145,resources/videos_generated\model(tmp)-dataset(walking)-numprim(11)_final(1).mov,resources/videos_natural\training(38).mov,False,False,right,0,144,144,144,2018-12-11 15:06:46.808670,2018-12-11 15:06:50.728894,0:00:03.920224,4,left,0,0.3172871779734123,20,m,2,25,2018_Dec_11_1451,MP_PerceptionTuring2,59.932493411586975,
146,resources/videos_generated\model(vcgpdm)-dataset(walking)-mode(ELBO)-parts(1)-dyn(22)-lvm(27)_final(9)_hip-corrected.mov,resources/videos_natural\training(28).mov,True,False,right,0,145,145,145,2018-12-11 15:06:52.162976,2018-12-11 15:06:56.066200,0:00:03.903224,4,right,1,0.2670736481977656,20,m,2,25,2018_Dec_11_1451,MP_PerceptionTuring2,59.932493411586975,
147,resources/videos_generated\model(vcgpdm)-dataset(walking)-mode(ELBO)-parts(1)-dyn(22)-lvm(27)_final(1)_fail.mov,resources/videos_natural\training(11).mov,False,False,right,0,146,146,146,2018-12-11 15:06:57.451279,2018-12-11 15:07:01.354502,0:00:03.903223,4,right,1,0.2680970250385144,20,m,2,25,2018_Dec_11_1451,MP_PerceptionTuring2,59.932493411586975,
148,resources/videos_generated\model(tmp)-dataset(walking)-numprim(13)_final(3).mov,resources/videos_natural\training(25).mov,True,False,right,0,147,147,147,2018-12-11 15:07:02.738581,2018-12-11 15:07:06.642805,0:00:03.904224,4,left,0,0.23373168131365674,20,m,2,25,2018_Dec_11_1451,MP_PerceptionTuring2,59.932493411586975,
149,resources/videos_generated\model(dmp)-dataset(walking)-npsi(70)_final(5).mov,resources/videos_natural\training(44).mov,True,True,left,0,148,148,148,2018-12-11 15:07:07.993882,2018-12-11 15:07:11.880104,0:00:03.886222,4,left,1,0.5006978116962273,20,m,2,25,2018_Dec_11_1451,MP_PerceptionTuring2,59.932493411586975,
150,resources/videos_generated\model(vcgpdm)-dataset(walking)-mode(ELBO)-parts(2)-dyn(25)-lvm(20)_final(8).mov,resources/videos_natural\training(9).mov,False,True,left,0,149,149,149,2018-12-11 15:07:13.498197,2018-12-11 15:07:17.418421,0:00:03.920224,4,right,0,0.6841912672643957,20,m,2,25,2018_Dec_11_1451,MP_PerceptionTuring2,59.932493411586975,
151,resources/videos_generated\model(vcgpdm)-dataset(walking)-mode(ELBO)-parts(1)-dyn(26)-lvm(23)_final(0).mov,resources/videos_natural\training(46).mov,True,False,right,0,150,150,150,2018-12-11 15:07:19.219524,2018-12-11 15:07:23.139748,0:00:03.920224,4,right,1,0.21712183545241714,20,m,2,25,2018_Dec_11_1451,MP_PerceptionTuring2,59.932493411586975,
152,resources/videos_generated\model(vcgpdm)-dataset(walking)-mode(ELBO)-parts(2)-dyn(26)-lvm(21)_final(8).mov,resources/videos_natural\training(13).mov,True,False,right,0,151,151,151,2018-12-11 15:07:24.474824,2018-12-11 15:07:28.378048,0:00:03.903224,4,left,0,0.40059451026718307,20,m,2,25,2018_Dec_11_1451,MP_PerceptionTuring2,59.932493411586975,
153,resources/videos_generated\model(vcgpdm)-dataset(walking)-mode(ELBO)-parts(1)-dyn(23)-lvm(22)_final(8)_fail.mov,resources/videos_natural\training(0).mov,False,True,left,0,152,152,152,2018-12-11 15:07:29.896135,2018-12-11 15:07:33.799358,0:00:03.903223,4,left,1,0.4509137508357526,20,m,2,25,2018_Dec_11_1451,MP_PerceptionTuring2,59.932493411586975,
154,resources/videos_generated\model(vcgpdm)-dataset(walking)-mode(ELBO)-parts(2)-dyn(24)-lvm(19)_final(0).mov,resources/videos_natural\training(19).mov,True,True,left,0,153,153,153,2018-12-11 15:07:35.367447,2018-12-11 15:07:39.237669,0:00:03.870222,4,left,1,0.35060475005957414,20,m,2,25,2018_Dec_11_1451,MP_PerceptionTuring2,59.932493411586975,
155,resources/videos_generated\model(vcgpdm)-dataset(walking)-mode(ELBO)-parts(2)-dyn(23)-lvm(20)_final(8).mov,resources/videos_natural\training(42).mov,False,False,right,0,154,154,154,2018-12-11 15:07:40.704753,2018-12-11 15:07:44.658979,0:00:03.954226,4,right,1,0.15028370246727718,20,m,2,25,2018_Dec_11_1451,MP_PerceptionTuring2,59.932493411586975,
156,resources/videos_generated\model(vcgpdm)-dataset(walking)-mode(ELBO)-parts(2)-dyn(22)-lvm(17)_final(8).mov,resources/videos_natural\training(42).mov,False,False,right,0,155,155,155,2018-12-11 15:07:45.926051,2018-12-11 15:07:49.829275,0:00:03.903224,4,right,1,0.2837946259169257,20,m,2,25,2018_Dec_11_1451,MP_PerceptionTuring2,59.932493411586975,
157,resources/videos_generated\model(vcgpdm)-dataset(walking)-mode(ELBO)-parts(1)-dyn(22)-lvm(25)_final(5).mov,resources/videos_natural\training(5).mov,True,True,left,0,156,156,156,2018-12-11 15:07:51.231355,2018-12-11 15:07:55.150579,0:00:03.919224,4,left,1,0.2505415042869572,20,m,2,25,2018_Dec_11_1451,MP_PerceptionTuring2,59.932493411586975,
158,resources/videos_generated\model(vcgpdm)-dataset(walking)-mode(ELBO)-parts(1)-dyn(25)-lvm(25)_final(7).mov,resources/videos_natural\training(13).mov,False,True,left,0,157,157,157,2018-12-11 15:07:56.519657,2018-12-11 15:08:00.405880,0:00:03.886223,4,left,1,0.6674814328471257,20,m,2,25,2018_Dec_11_1451,MP_PerceptionTuring2,59.932493411586975,
159,resources/videos_generated\model(vcgpdm)-dataset(walking)-mode(ELBO)-parts(1)-dyn(23)-lvm(28)_final(9).mov,resources/videos_natural\training(1).mov,True,False,right,0,158,158,158,2018-12-11 15:08:02.190982,2018-12-11 15:08:06.110206,0:00:03.919224,4,right,1,0.43488305555365514,20,m,2,25,2018_Dec_11_1451,MP_PerceptionTuring2,59.932493411586975,
160,resources/videos_generated\model(vcgpdm)-dataset(walking)-mode(ELBO)-parts(2)-dyn(23)-lvm(18)_final(6).mov,resources/videos_natural\training(13).mov,True,True,left,0,159,159,159,2018-12-11 15:08:07.661295,2018-12-11 15:08:11.565518,0:00:03.904223,4,left,1,0.2837452339790616,20,m,2,25,2018_Dec_11_1451,MP_PerceptionTuring2,59.932493411586975,
161,resources/videos_generated\model(vcgpdm)-dataset(walking)-mode(ELBO)-parts(2)-dyn(25)-lvm(20)_final(0).mov,resources/videos_natural\training(2).mov,False,True,left,0,160,160,160,2018-12-11 15:08:12.966598,2018-12-11 15:08:16.869821,0:00:03.903223,4,right,0,0.5674880585956998,20,m,2,25,2018_Dec_11_1451,MP_PerceptionTuring2,59.932493411586975,
162,resources/videos_generated\model(vcgpdm)-dataset(walking)-mode(ELBO)-parts(1)-dyn(25)-lvm(28)_final(5).mov,resources/videos_natural\training(34).mov,False,True,left,0,161,161,161,2018-12-11 15:08:18.554918,2018-12-11 15:08:22.458141,0:00:03.903223,4,right,0,0.033748245683455025,20,m,2,25,2018_Dec_11_1451,MP_PerceptionTuring2,59.932493411586975,
163,resources/videos_generated\model(vcgpdm)-dataset(walking)-mode(ELBO)-parts(2)-dyn(24)-lvm(23)_final(8).mov,resources/videos_natural\training(43).mov,True,False,right,0,162,162,162,2018-12-11 15:08:23.609207,2018-12-11 15:08:27.562433,0:00:03.953226,4,right,1,0.33396237780107185,20,m,2,25,2018_Dec_11_1451,MP_PerceptionTuring2,59.932493411586975,
164,resources/videos_generated\model(dmp)-dataset(walking)-npsi(60)_final(7).mov,resources/videos_natural\training(16).mov,True,True,left,0,163,163,163,2018-12-11 15:08:29.013516,2018-12-11 15:08:32.916739,0:00:03.903223,4,left,1,0.25050446033310436,20,m,2,25,2018_Dec_11_1451,MP_PerceptionTuring2,59.932493411586975,
165,resources/videos_generated\model(vcgpdm)-dataset(walking)-mode(ELBO)-parts(1)-dyn(22)-lvm(22)_final(1).mov,resources/videos_natural\training(43).mov,False,True,left,0,164,164,164,2018-12-11 15:08:34.284817,2018-12-11 15:08:38.188041,0:00:03.903224,4,left,1,0.3003737524031749,20,m,2,25,2018_Dec_11_1451,MP_PerceptionTuring2,59.932493411586975,
166,resources/videos_generated\model(tmp)-dataset(walking)-numprim(12)_final(9).mov,resources/videos_natural\training(27).mov,True,True,left,0,165,165,165,2018-12-11 15:08:39.606122,2018-12-11 15:08:43.509345,0:00:03.903223,4,right,0,0.48412500978884054,20,m,2,25,2018_Dec_11_1451,MP_PerceptionTuring2,59.932493411586975,
167,resources/videos_generated\model(vcgpdm)-dataset(walking)-mode(ELBO)-parts(1)-dyn(24)-lvm(25)_final(3).mov,resources/videos_natural\training(12).mov,True,True,left,0,166,166,166,2018-12-11 15:08:45.110437,2018-12-11 15:08:49.014660,0:00:03.904223,4,left,1,0.2671926104831073,20,m,2,25,2018_Dec_11_1451,MP_PerceptionTuring2,59.932493411586975,
168,resources/videos_generated\model(vcgpdm)-dataset(walking)-mode(ELBO)-parts(1)-dyn(25)-lvm(26)_final(3)_fail.mov,resources/videos_natural\training(2).mov,True,True,left,0,167,167,167,2018-12-11 15:08:50.398739,2018-12-11 15:08:54.318963,0:00:03.920224,4,left,1,0.2503779687867791,20,m,2,25,2018_Dec_11_1451,MP_PerceptionTuring2,59.932493411586975,
169,resources/videos_generated\model(dmp)-dataset(walking)-npsi(50)_final(1).mov,resources/videos_natural\training(27).mov,False,False,right,0,168,168,168,2018-12-11 15:08:55.687041,2018-12-11 15:08:59.573264,0:00:03.886223,4,right,1,0.23374553514986474,20,m,2,25,2018_Dec_11_1451,MP_PerceptionTuring2,59.932493411586975,
170,resources/videos_generated\model(vcgpdm)-dataset(walking)-mode(ELBO)-parts(1)-dyn(25)-lvm(22)_final(5).mov,resources/videos_natural\training(24).mov,False,True,left,0,169,169,169,2018-12-11 15:09:00.924341,2018-12-11 15:09:04.844565,0:00:03.920224,4,left,1,0.46737662556733994,20,m,2,25,2018_Dec_11_1451,MP_PerceptionTuring2,59.932493411586975,
171,resources/videos_generated\model(vcgpdm)-dataset(walking)-mode(ELBO)-parts(1)-dyn(28)-lvm(27)_final(8).mov,resources/videos_natural\training(8).mov,False,False,right,0,170,170,170,2018-12-11 15:09:06.429656,2018-12-11 15:09:10.332879,0:00:03.903223,4,right,1,0.083631090417839,20,m,2,25,2018_Dec_11_1451,MP_PerceptionTuring2,59.932493411586975,
172,resources/videos_generated\model(vcgpdm)-dataset(walking)-mode(ELBO)-parts(2)-dyn(27)-lvm(20)_final(0).mov,resources/videos_natural\training(2).mov,True,True,left,0,171,171,171,2018-12-11 15:09:11.533948,2018-12-11 15:09:15.454172,0:00:03.920224,4,left,1,0.434089471687912,20,m,2,25,2018_Dec_11_1451,MP_PerceptionTuring2,59.932493411586975,
173,resources/videos_generated\model(vcgpdm)-dataset(walking)-mode(ELBO)-parts(1)-dyn(26)-lvm(27)_final(8).mov,resources/videos_natural\training(34).mov,True,False,right,0,172,172,172,2018-12-11 15:09:17.005261,2018-12-11 15:09:20.908484,0:00:03.903223,4,right,1,0.33378167559021676,20,m,2,25,2018_Dec_11_1451,MP_PerceptionTuring2,59.932493411586975,
174,resources/videos_generated\model(vcgpdm)-dataset(walking)-mode(ELBO)-parts(2)-dyn(23)-lvm(20)_final(4).mov,resources/videos_natural\training(11).mov,True,False,right,0,173,173,173,2018-12-11 15:09:22.359567,2018-12-11 15:09:26.262790,0:00:03.903223,4,right,1,0.21706672127947968,20,m,2,25,2018_Dec_11_1451,MP_PerceptionTuring2,59.932493411586975,
175,resources/videos_generated\model(vcgpdm)-dataset(walking)-mode(ELBO)-parts(1)-dyn(27)-lvm(28)_final(8).mov,resources/videos_natural\training(47).mov,True,True,left,0,174,174,174,2018-12-11 15:09:27.597867,2018-12-11 15:09:31.484089,0:00:03.886222,4,left,1,0.25077581481673406,20,m,2,25,2018_Dec_11_1451,MP_PerceptionTuring2,59.932493411586975,
176,resources/videos_generated\model(vcgpdm)-dataset(walking)-mode(ELBO)-parts(2)-dyn(28)-lvm(19)_final(6).mov,resources/videos_natural\training(43).mov,True,True,left,0,175,175,175,2018-12-11 15:09:32.852167,2018-12-11 15:09:36.788392,0:00:03.936225,4,left,1,0.2337681229255395,20,m,2,25,2018_Dec_11_1451,MP_PerceptionTuring2,59.932493411586975,
177,resources/videos_generated\model(tmp)-dataset(walking)-numprim(12)_final(3).mov,resources/videos_natural\training(21).mov,False,False,right,0,176,176,176,2018-12-11 15:09:38.139470,2018-12-11 15:09:42.059694,0:00:03.920224,4,left,0,0.3003385154715943,20,m,2,25,2018_Dec_11_1451,MP_PerceptionTuring2,59.932493411586975,
178,resources/videos_generated\model(tmp)-dataset(walking)-numprim(14)_final(9).mov,resources/videos_natural\training(24).mov,True,False,right,0,177,177,177,2018-12-11 15:09:43.477775,2018-12-11 15:09:47.364997,0:00:03.887222,4,left,0,0.40062342261990125,20,m,2,25,2018_Dec_11_1451,MP_PerceptionTuring2,59.932493411586975,
179,resources/videos_generated\model(tmp)-dataset(walking)-numprim(13)_final(5).mov,resources/videos_natural\training(15).mov,True,False,right,0,178,178,178,2018-12-11 15:09:48.883084,2018-12-11 15:09:52.802308,0:00:03.919224,4,left,0,0.016910715039557545,20,m,2,25,2018_Dec_11_1451,MP_PerceptionTuring2,59.932493411586975,
180,resources/videos_generated\model(tmp)-dataset(walking)-numprim(15)_final(5).mov,resources/videos_natural\training(25).mov,True,False,right,0,179,179,179,2018-12-11 15:09:53.937373,2018-12-11 15:09:57.806595,0:00:03.869222,4,left,0,0.3004770538300363,20,m,2,25,2018_Dec_11_1451,MP_PerceptionTuring2,59.932493411586975,
181,resources/videos_generated\model(vcgpdm)-dataset(walking)-mode(ELBO)-parts(2)-dyn(25)-lvm(22)_final(6).mov,resources/videos_natural\training(8).mov,False,True,left,0,180,180,180,2018-12-11 15:10:30.652473,2018-12-11 15:10:34.521695,0:00:03.869222,5,left,1,0.6173769267370517,20,m,2,25,2018_Dec_11_1451,MP_PerceptionTuring2,59.932493411586975,
182,resources/videos_generated\model(vcgpdm)-dataset(walking)-mode(ELBO)-parts(1)-dyn(26)-lvm(23)_final(2).mov,resources/videos_natural\training(37).mov,False,False,right,0,181,181,181,2018-12-11 15:10:36.256794,2018-12-11 15:10:40.160017,0:00:03.903223,5,left,0,0.3172883826555335,20,m,2,25,2018_Dec_11_1451,MP_PerceptionTuring2,59.932493411586975,
183,resources/videos_generated\model(tmp)-dataset(walking)-numprim(14)_final(7).mov,resources/videos_natural\training(14).mov,False,True,left,0,182,182,182,2018-12-11 15:10:41.595099,2018-12-11 15:10:45.498322,0:00:03.903223,5,right,0,0.2170655165973585,20,m,2,25,2018_Dec_11_1451,MP_PerceptionTuring2,59.932493411586975,
184,resources/videos_generated\model(vcgpdm)-dataset(walking)-mode(ELBO)-parts(2)-dyn(28)-lvm(19)_final(0).mov,resources/videos_natural\training(7).mov,False,False,right,0,183,183,183,2018-12-11 15:10:46.832399,2018-12-11 15:10:50.752623,0:00:03.920224,5,right,1,0.0336871081017307,20,m,2,25,2018_Dec_11_1451,MP_PerceptionTuring2,59.932493411586975,
185,resources/videos_generated\model(vcgpdm)-dataset(walking)-mode(ELBO)-parts(2)-dyn(27)-lvm(20)_final(6).mov,resources/videos_natural\training(13).mov,True,False,right,0,184,184,184,2018-12-11 15:10:51.903689,2018-12-11 15:10:55.823913,0:00:03.920224,5,right,1,0.45084508399486367,20,m,2,25,2018_Dec_11_1451,MP_PerceptionTuring2,59.932493411586975,
186,resources/videos_generated\model(vcgpdm)-dataset(walking)-mode(ELBO)-parts(2)-dyn(22)-lvm(21)_final(8).mov,resources/videos_natural\training(0).mov,False,True,left,0,185,185,185,2018-12-11 15:10:57.392003,2018-12-11 15:11:01.295226,0:00:03.903223,5,left,1,0.3671874905885488,20,m,2,25,2018_Dec_11_1451,MP_PerceptionTuring2,59.932493411586975,
187,resources/videos_generated\model(vcgpdm)-dataset(walking)-mode(ELBO)-parts(1)-dyn(23)-lvm(22)_final(4)_fail.mov,resources/videos_natural\training(39).mov,True,False,right,0,186,186,186,2018-12-11 15:11:02.780311,2018-12-11 15:11:06.716536,0:00:03.936225,5,right,1,0.46739951451490924,20,m,2,25,2018_Dec_11_1451,MP_PerceptionTuring2,59.932493411586975,
188,resources/videos_generated\model(vcgpdm)-dataset(walking)-mode(ELBO)-parts(1)-dyn(26)-lvm(25)_final(4).mov,resources/videos_natural\training(30).mov,True,True,left,0,187,187,187,2018-12-11 15:11:08.301627,2018-12-11 15:11:12.237852,0:00:03.936225,5,left,1,0.4172862744617305,20,m,2,25,2018_Dec_11_1451,MP_PerceptionTuring2,59.932493411586975,
189,resources/videos_generated\model(vcgpdm)-dataset(walking)-mode(ELBO)-parts(2)-dyn(24)-lvm(21)_final(8).mov,resources/videos_natural\training(7).mov,False,False,right,0,188,188,188,2018-12-11 15:11:13.772940,2018-12-11 15:11:17.743167,0:00:03.970227,5,right,1,0.2672404965687747,20,m,2,25,2018_Dec_11_1451,MP_PerceptionTuring2,59.932493411586975,
190,resources/videos_generated\model(vcgpdm)-dataset(walking)-mode(ELBO)-parts(1)-dyn(25)-lvm(22)_final(3).mov,resources/videos_natural\training(43).mov,True,True,left,0,189,189,189,2018-12-11 15:11:19.127246,2018-12-11 15:11:23.030469,0:00:03.903223,5,left,1,0.5006411916710931,20,m,2,25,2018_Dec_11_1451,MP_PerceptionTuring2,59.932493411586975,
191,resources/videos_generated\model(tmp)-dataset(walking)-numprim(15)_final(1).mov,resources/videos_natural\training(42).mov,False,True,left,0,190,190,190,2018-12-11 15:11:24.648562,2018-12-11 15:11:28.568786,0:00:03.920224,5,right,0,0.26708298447738343,20,m,2,25,2018_Dec_11_1451,MP_PerceptionTuring2,59.932493411586975,
192,resources/videos_generated\model(vcgpdm)-dataset(walking)-mode(ELBO)-parts(2)-dyn(26)-lvm(19)_final(2).mov,resources/videos_natural\training(7).mov,False,False,right,0,191,191,191,2018-12-11 15:11:29.953865,2018-12-11 15:11:33.857088,0:00:03.903223,5,right,1,0.16711159566148126,20,m,2,25,2018_Dec_11_1451,MP_PerceptionTuring2,59.932493411586975,
193,resources/videos_generated\model(vcgpdm)-dataset(walking)-mode(ELBO)-parts(2)-dyn(22)-lvm(21)_final(0).mov,resources/videos_natural\training(20).mov,False,False,right,0,192,192,192,2018-12-11 15:11:35.141162,2018-12-11 15:11:39.078387,0:00:03.937225,5,right,1,0.28386750914069125,20,m,2,25,2018_Dec_11_1451,MP_PerceptionTuring2,59.932493411586975,
194,resources/videos_generated\model(vcgpdm)-dataset(walking)-mode(ELBO)-parts(1)-dyn(22)-lvm(22)_final(3).mov,resources/videos_natural\training(22).mov,False,True,left,0,193,193,193,2018-12-11 15:11:40.479467,2018-12-11 15:11:44.399691,0:00:03.920224,5,right,0,0.2510715640983108,20,m,2,25,2018_Dec_11_1451,MP_PerceptionTuring2,59.932493411586975,
195,resources/videos_generated\model(vcgpdm)-dataset(walking)-mode(ELBO)-parts(1)-dyn(28)-lvm(23)_final(0).mov,resources/videos_natural\training(14).mov,True,True,left,0,194,194,194,2018-12-11 15:11:45.766769,2018-12-11 15:11:49.653992,0:00:03.887223,5,right,0,0.03371662279641896,20,m,2,25,2018_Dec_11_1451,MP_PerceptionTuring2,59.932493411586975,
196,resources/videos_generated\model(vcgpdm)-dataset(walking)-mode(ELBO)-parts(1)-dyn(24)-lvm(25)_final(7).mov,resources/videos_natural\training(28).mov,True,False,right,0,195,195,195,2018-12-11 15:11:50.805058,2018-12-11 15:11:54.708281,0:00:03.903223,5,right,1,0.08370337130145344,20,m,2,25,2018_Dec_11_1451,MP_PerceptionTuring2,59.932493411586975,
197,resources/videos_generated\model(vcgpdm)-dataset(walking)-mode(ELBO)-parts(1)-dyn(27)-lvm(24)_final(4).mov,resources/videos_natural\training(8).mov,False,False,right,0,196,196,196,2018-12-11 15:11:55.909350,2018-12-11 15:11:59.829574,0:00:03.920224,5,right,1,0.06682608617120422,20,m,2,25,2018_Dec_11_1451,MP_PerceptionTuring2,59.932493411586975,
198,resources/videos_generated\model(tmp)-dataset(walking)-numprim(14)_final(1).mov,resources/videos_natural\training(10).mov,False,False,right,0,197,197,197,2018-12-11 15:12:01.013642,2018-12-11 15:12:04.899864,0:00:03.886222,5,right,1,0.26717725079652155,20,m,2,25,2018_Dec_11_1451,MP_PerceptionTuring2,59.932493411586975,
199,resources/videos_generated\model(vcgpdm)-dataset(walking)-mode(ELBO)-parts(2)-dyn(28)-lvm(21)_final(2).mov,resources/videos_natural\training(48).mov,False,True,left,0,198,198,198,2018-12-11 15:12:06.284943,2018-12-11 15:12:10.188166,0:00:03.903223,5,left,1,0.21720405495761952,20,m,2,25,2018_Dec_11_1451,MP_PerceptionTuring2,59.932493411586975,
200,resources/videos_generated\model(vcgpdm)-dataset(walking)-mode(ELBO)-parts(1)-dyn(22)-lvm(23)_final(5).mov,resources/videos_natural\training(27).mov,True,True,left,0,199,199,199,2018-12-11 15:12:11.522243,2018-12-11 15:12:15.409465,0:00:03.887222,5,left,1,0.3006779344541428,20,m,2,25,2018_Dec_11_1451,MP_PerceptionTuring2,59.932493411586975,
201,resources/videos_generated\model(vcgpdm)-dataset(walking)-mode(ELBO)-parts(1)-dyn(23)-lvm(24)_final(6).mov,resources/videos_natural\training(4).mov,False,False,right,0,200,200,200,2018-12-11 15:12:16.827546,2018-12-11 15:12:20.713768,0:00:03.886222,5,right,1,0.2171540606796043,20,m,2,25,2018_Dec_11_1451,MP_PerceptionTuring2,59.932493411586975,
202,resources/videos_generated\model(vcgpdm)-dataset(walking)-mode(ELBO)-parts(1)-dyn(27)-lvm(24)_final(0).mov,resources/videos_natural\training(11).mov,False,True,left,0,201,201,201,2018-12-11 15:12:22.048845,2018-12-11 15:12:25.935067,0:00:03.886222,5,right,0,0.2004589836105879,20,m,2,25,2018_Dec_11_1451,MP_PerceptionTuring2,59.932493411586975,
203,resources/videos_generated\model(vcgpdm)-dataset(walking)-mode(ELBO)-parts(1)-dyn(25)-lvm(28)_final(9).mov,resources/videos_natural\training(45).mov,True,True,left,0,202,202,202,2018-12-11 15:12:27.253142,2018-12-11 15:12:31.156366,0:00:03.903224,5,left,1,0.2504020624146506,20,m,2,25,2018_Dec_11_1451,MP_PerceptionTuring2,59.932493411586975,
204,resources/videos_generated\model(vcgpdm)-dataset(walking)-mode(ELBO)-parts(1)-dyn(25)-lvm(24)_final(6).mov,resources/videos_natural\training(40).mov,True,False,right,0,203,203,203,2018-12-11 15:12:32.524444,2018-12-11 15:12:36.410666,0:00:03.886222,5,right,1,0.250602340696787,20,m,2,25,2018_Dec_11_1451,MP_PerceptionTuring2,59.932493411586975,
205,resources/videos_generated\model(vcgpdm)-dataset(walking)-mode(ELBO)-parts(1)-dyn(24)-lvm(27)_final(3).mov,resources/videos_natural\training(48).mov,True,True,left,0,204,204,204,2018-12-11 15:12:37.778744,2018-12-11 15:12:41.681968,0:00:03.903224,5,left,1,0.1670212445569632,20,m,2,25,2018_Dec_11_1451,MP_PerceptionTuring2,59.932493411586975,
206,resources/videos_generated\model(vcgpdm)-dataset(walking)-mode(ELBO)-parts(1)-dyn(26)-lvm(22)_final(2).mov,resources/videos_natural\training(46).mov,False,False,right,0,205,205,205,2018-12-11 15:12:42.966041,2018-12-11 15:12:46.870264,0:00:03.904223,5,right,1,0.3839003367083933,20,m,2,25,2018_Dec_11_1451,MP_PerceptionTuring2,59.932493411586975,
207,resources/videos_generated\model(vcgpdm)-dataset(walking)-mode(ELBO)-parts(1)-dyn(27)-lvm(22)_final(0).mov,resources/videos_natural\training(14).mov,False,True,left,0,206,206,206,2018-12-11 15:12:48.371350,2018-12-11 15:12:52.291574,0:00:03.920224,5,right,0,0.2337633042006928,20,m,2,25,2018_Dec_11_1451,MP_PerceptionTuring2,59.932493411586975,
208,resources/videos_generated\model(vcgpdm)-dataset(walking)-mode(ELBO)-parts(1)-dyn(25)-lvm(24)_final(0).mov,resources/videos_natural\training(41).mov,False,False,right,0,207,207,207,2018-12-11 15:12:53.642652,2018-12-11 15:12:57.545875,0:00:03.903223,5,right,1,0.2504451297736523,20,m,2,25,2018_Dec_11_1451,MP_PerceptionTuring2,59.932493411586975,
209,resources/videos_generated\model(tmp)-dataset(walking)-numprim(12)_final(7).mov,resources/videos_natural\training(24).mov,False,True,left,0,208,208,208,2018-12-11 15:12:58.913953,2018-12-11 15:13:02.834177,0:00:03.920224,5,right,0,0.2170004638028331,20,m,2,25,2018_Dec_11_1451,MP_PerceptionTuring2,59.932493411586975,
210,resources/videos_generated\model(vcgpdm)-dataset(walking)-mode(ELBO)-parts(1)-dyn(28)-lvm(25)_final(0).mov,resources/videos_natural\training(39).mov,False,True,left,0,209,209,209,2018-12-11 15:13:04.168254,2018-12-11 15:13:08.088478,0:00:03.920224,5,right,0,0.21712816002946056,20,m,2,25,2018_Dec_11_1451,MP_PerceptionTuring2,59.932493411586975,
211,resources/videos_generated\model(vcgpdm)-dataset(walking)-mode(ELBO)-parts(1)-dyn(27)-lvm(22)_final(8).mov,resources/videos_natural\training(33).mov,True,False,right,0,210,210,210,2018-12-11 15:13:09.422554,2018-12-11 15:13:13.325778,0:00:03.903224,5,left,0,0.11702305157814408,20,m,2,25,2018_Dec_11_1451,MP_PerceptionTuring2,59.932493411586975,
212,resources/videos_generated\model(vcgpdm)-dataset(walking)-mode(ELBO)-parts(2)-dyn(27)-lvm(22)_final(8).mov,resources/videos_natural\training(35).mov,True,True,left,0,211,211,211,2018-12-11 15:13:14.560848,2018-12-11 15:13:18.447071,0:00:03.886223,5,left,1,0.7675494973464083,20,m,2,25,2018_Dec_11_1451,MP_PerceptionTuring2,59.932493411586975,
213,resources/videos_generated\model(vcgpdm)-dataset(walking)-mode(ELBO)-parts(2)-dyn(28)-lvm(17)_final(4).mov,resources/videos_natural\training(12).mov,True,False,right,0,212,212,212,2018-12-11 15:13:20.332178,2018-12-11 15:13:24.252403,0:00:03.920225,5,right,1,0.21710858395817922,20,m,2,25,2018_Dec_11_1451,MP_PerceptionTuring2,59.932493411586975,
214,resources/videos_generated\model(vcgpdm)-dataset(walking)-mode(ELBO)-parts(1)-dyn(28)-lvm(23)_final(6)_fail.mov,resources/videos_natural\training(35).mov,True,True,left,0,213,213,213,2018-12-11 15:13:25.586479,2018-12-11 15:13:29.540705,0:00:03.954226,5,left,1,0.25033821430224634,20,m,2,25,2018_Dec_11_1451,MP_PerceptionTuring2,59.932493411586975,
215,resources/videos_generated\model(vcgpdm)-dataset(walking)-mode(ELBO)-parts(2)-dyn(27)-lvm(22)_final(4).mov,resources/videos_natural\training(21).mov,True,True,left,0,214,214,214,2018-12-11 15:13:30.907783,2018-12-11 15:13:34.861009,0:00:03.953226,5,left,1,0.3672489293385297,20,m,2,25,2018_Dec_11_1451,MP_PerceptionTuring2,59.932493411586975,
216,resources/videos_generated\model(vcgpdm)-dataset(walking)-mode(ELBO)-parts(1)-dyn(24)-lvm(27)_final(1).mov,resources/videos_natural\training(5).mov,False,False,right,0,215,215,215,2018-12-11 15:13:36.346094,2018-12-11 15:13:40.266318,0:00:03.920224,5,right,1,0.18363018690615718,20,m,2,25,2018_Dec_11_1451,MP_PerceptionTuring2,59.932493411586975,
217,resources/videos_generated\model(vcgpdm)-dataset(walking)-mode(ELBO)-parts(2)-dyn(22)-lvm(23)_final(8).mov,resources/videos_natural\training(15).mov,False,False,right,0,216,216,216,2018-12-11 15:13:41.567393,2018-12-11 15:13:45.470616,0:00:03.903223,5,right,1,0.2005878845193365,20,m,2,25,2018_Dec_11_1451,MP_PerceptionTuring2,59.932493411586975,
218,resources/videos_generated\model(vcgpdm)-dataset(walking)-mode(ELBO)-parts(1)-dyn(22)-lvm(27)_final(3)_fail.mov,resources/videos_natural\training(7).mov,False,False,right,0,217,217,217,2018-12-11 15:13:46.788692,2018-12-11 15:13:50.691915,0:00:03.903223,5,right,1,0.16693149579259625,20,m,2,25,2018_Dec_11_1451,MP_PerceptionTuring2,59.932493411586975,
219,resources/videos_generated\model(vcgpdm)-dataset(walking)-mode(ELBO)-parts(1)-dyn(24)-lvm(27)_final(7).mov,resources/videos_natural\training(16).mov,False,False,right,0,218,218,218,2018-12-11 15:13:51.975988,2018-12-11 15:13:55.896212,0:00:03.920224,5,right,1,0.2170335925420659,20,m,2,25,2018_Dec_11_1451,MP_PerceptionTuring2,59.932493411586975,
220,resources/videos_generated\model(vcgpdm)-dataset(walking)-mode(ELBO)-parts(2)-dyn(25)-lvm(22)_final(4).mov,resources/videos_natural\training(7).mov,False,False,right,0,219,219,219,2018-12-11 15:13:57.230289,2018-12-11 15:14:01.150513,0:00:03.920224,5,right,1,0.734238852181079,20,m,2,25,2018_Dec_11_1451,MP_PerceptionTuring2,59.932493411586975,
221,resources/videos_generated\model(vcgpdm)-dataset(walking)-mode(ELBO)-parts(2)-dyn(23)-lvm(20)_final(0).mov,resources/videos_natural\training(30).mov,True,False,right,0,220,220,220,2018-12-11 15:14:03.002619,2018-12-11 15:14:06.922843,0:00:03.920224,5,right,1,0.05019997711133328,20,m,2,25,2018_Dec_11_1451,MP_PerceptionTuring2,59.932493411586975,
222,resources/videos_generated\model(vcgpdm)-dataset(walking)-mode(ELBO)-parts(2)-dyn(28)-lvm(23)_final(2).mov,resources/videos_natural\training(18).mov,True,False,right,0,221,221,221,2018-12-11 15:14:08.089910,2018-12-11 15:14:11.993133,0:00:03.903223,5,left,0,0.08364735361647035,20,m,2,25,2018_Dec_11_1451,MP_PerceptionTuring2,59.932493411586975,
223,resources/videos_generated\model(vcgpdm)-dataset(walking)-mode(ELBO)-parts(2)-dyn(26)-lvm(19)_final(0).mov,resources/videos_natural\training(41).mov,False,False,right,0,222,222,222,2018-12-11 15:14:13.194202,2018-12-11 15:14:17.098425,0:00:03.904223,5,right,1,0.2672802510569454,20,m,2,25,2018_Dec_11_1451,MP_PerceptionTuring2,59.932493411586975,
224,resources/videos_generated\model(vcgpdm)-dataset(walking)-mode(ELBO)-parts(2)-dyn(22)-lvm(17)_final(2).mov,resources/videos_natural\training(30).mov,False,True,left,0,223,223,223,2018-12-11 15:14:18.482504,2018-12-11 15:14:22.402729,0:00:03.920225,5,left,1,0.20051349544337427,20,m,2,25,2018_Dec_11_1451,MP_PerceptionTuring2,59.932493411586975,
225,resources/videos_generated\model(vcgpdm)-dataset(walking)-mode(ELBO)-parts(2)-dyn(23)-lvm(22)_final(8).mov,resources/videos_natural\training(4).mov,False,False,right,0,224,224,224,2018-12-11 15:14:23.721804,2018-12-11 15:14:27.657029,0:00:03.935225,5,right,1,0.2672212216675689,20,m,2,25,2018_Dec_11_1451,MP_PerceptionTuring2,59.932493411586975,
226,resources/videos_generated\model(dmp)-dataset(walking)-npsi(80)_final(5).mov,resources/videos_natural\training(3).mov,False,False,right,0,225,225,225,2018-12-11 15:15:00.768923,2018-12-11 15:15:04.690147,0:00:03.921224,6,left,0,0.367313379794723,20,m,2,25,2018_Dec_11_1451,MP_PerceptionTuring2,59.932493411586975,
227,resources/videos_generated\model(vcgpdm)-dataset(walking)-mode(ELBO)-parts(1)-dyn(26)-lvm(27)_final(0).mov,resources/videos_natural\training(16).mov,False,True,left,0,226,226,226,2018-12-11 15:15:06.173232,2018-12-11 15:15:10.077455,0:00:03.904223,6,left,1,0.01692848409038561,20,m,2,25,2018_Dec_11_1451,MP_PerceptionTuring2,59.932493411586975,
228,resources/videos_generated\model(vcgpdm)-dataset(walking)-mode(ELBO)-parts(2)-dyn(28)-lvm(23)_final(0).mov,resources/videos_natural\training(28).mov,False,True,left,0,227,227,227,2018-12-11 15:15:11.211520,2018-12-11 15:15:15.147745,0:00:03.936225,6,left,1,0.28376300302988966,20,m,2,25,2018_Dec_11_1451,MP_PerceptionTuring2,59.932493411586975,
229,resources/videos_generated\model(vcgpdm)-dataset(walking)-mode(ELBO)-parts(2)-dyn(22)-lvm(23)_final(6).mov,resources/videos_natural\training(40).mov,True,True,left,0,228,228,228,2018-12-11 15:15:16.549826,2018-12-11 15:15:20.469050,0:00:03.919224,6,left,1,0.11708569501024613,20,m,2,25,2018_Dec_11_1451,MP_PerceptionTuring2,59.932493411586975,
230,resources/videos_generated\model(vcgpdm)-dataset(walking)-mode(ELBO)-parts(2)-dyn(28)-lvm(19)_final(2).mov,resources/videos_natural\training(37).mov,True,False,right,0,229,229,229,2018-12-11 15:15:21.704120,2018-12-11 15:15:25.607344,0:00:03.903224,6,left,0,0.30057583770576457,20,m,2,25,2018_Dec_11_1451,MP_PerceptionTuring2,59.932493411586975,
231,resources/videos_generated\model(vcgpdm)-dataset(walking)-mode(ELBO)-parts(1)-dyn(25)-lvm(22)_final(9).mov,resources/videos_natural\training(30).mov,False,False,right,0,230,230,230,2018-12-11 15:15:27.025425,2018-12-11 15:15:30.928648,0:00:03.903223,6,right,1,0.2671471337616822,20,m,2,25,2018_Dec_11_1451,MP_PerceptionTuring2,59.932493411586975,
232,resources/videos_generated\model(vcgpdm)-dataset(walking)-mode(ELBO)-parts(1)-dyn(26)-lvm(23)_final(4)_fail.mov,resources/videos_natural\training(18).mov,False,False,right,0,231,231,231,2018-12-11 15:15:32.312727,2018-12-11 15:15:36.199950,0:00:03.887223,6,right,1,0.21699444039586524,20,m,2,25,2018_Dec_11_1451,MP_PerceptionTuring2,59.932493411586975,
233,resources/videos_generated\model(dmp)-dataset(walking)-npsi(70)_final(1).mov,resources/videos_natural\training(27).mov,False,True,left,0,232,232,232,2018-12-11 15:15:37.534026,2018-12-11 15:15:41.437249,0:00:03.903223,6,right,0,0.1003177347156452,20,m,2,25,2018_Dec_11_1451,MP_PerceptionTuring2,59.932493411586975,
234,resources/videos_generated\model(vcgpdm)-dataset(walking)-mode(ELBO)-parts(2)-dyn(26)-lvm(17)_final(8).mov,resources/videos_natural\training(47).mov,False,True,left,0,233,233,233,2018-12-11 15:15:42.655319,2018-12-11 15:15:46.575543,0:00:03.920224,6,left,1,0.23385034243074188,20,m,2,25,2018_Dec_11_1451,MP_PerceptionTuring2,59.932493411586975,
235,resources/videos_generated\model(vcgpdm)-dataset(walking)-mode(ELBO)-parts(1)-dyn(28)-lvm(23)_final(2).mov,resources/videos_natural\training(34).mov,True,False,right,0,234,234,234,2018-12-11 15:15:47.926620,2018-12-11 15:15:51.846844,0:00:03.920224,6,left,0,0.25052644576862804,20,m,2,25,2018_Dec_11_1451,MP_PerceptionTuring2,59.932493411586975,
236,resources/videos_generated\model(vcgpdm)-dataset(walking)-mode(ELBO)-parts(1)-dyn(28)-lvm(23)_final(8).mov,resources/videos_natural\training(24).mov,True,True,left,0,235,235,235,2018-12-11 15:15:53.213923,2018-12-11 15:15:57.134147,0:00:03.920224,6,left,1,0.35053758907088195,20,m,2,25,2018_Dec_11_1451,MP_PerceptionTuring2,59.932493411586975,
237,resources/videos_generated\model(vcgpdm)-dataset(walking)-mode(ELBO)-parts(1)-dyn(23)-lvm(26)_final(2).mov,resources/videos_natural\training(40).mov,True,False,right,0,236,236,236,2018-12-11 15:15:58.602231,2018-12-11 15:16:02.539456,0:00:03.937225,6,left,0,0.16699775326924282,20,m,2,25,2018_Dec_11_1451,MP_PerceptionTuring2,59.932493411586975,
238,resources/videos_generated\model(dmp)-dataset(walking)-npsi(80)_final(1).mov,resources/videos_natural\training(36).mov,False,False,right,0,237,237,237,2018-12-11 15:16:03.823529,2018-12-11 15:16:07.726753,0:00:03.903224,6,right,1,0.18381781603238778,20,m,2,25,2018_Dec_11_1451,MP_PerceptionTuring2,59.932493411586975,
239,resources/videos_generated\model(vcgpdm)-dataset(walking)-mode(ELBO)-parts(1)-dyn(23)-lvm(26)_final(6)_hip-corrected.mov,resources/videos_natural\training(4).mov,False,False,right,0,238,238,238,2018-12-11 15:16:09.027827,2018-12-11 15:16:12.948051,0:00:03.920224,6,right,1,0.05023159999836935,20,m,2,25,2018_Dec_11_1451,MP_PerceptionTuring2,59.932493411586975,
240,resources/videos_generated\model(vcgpdm)-dataset(walking)-mode(ELBO)-parts(2)-dyn(26)-lvm(17)_final(6).mov,resources/videos_natural\training(22).mov,True,False,right,0,239,239,239,2018-12-11 15:16:14.116118,2018-12-11 15:16:18.019341,0:00:03.903223,6,right,1,0.10028189544573252,20,m,2,25,2018_Dec_11_1451,MP_PerceptionTuring2,59.932493411586975,
241,resources/videos_generated\model(vcgpdm)-dataset(walking)-mode(ELBO)-parts(2)-dyn(22)-lvm(17)_final(6).mov,resources/videos_natural\training(42).mov,False,True,left,0,240,240,240,2018-12-11 15:16:19.236411,2018-12-11 15:16:23.140634,0:00:03.904223,6,left,1,0.5340560417789675,20,m,2,25,2018_Dec_11_1451,MP_PerceptionTuring2,59.932493411586975,
242,resources/videos_generated\model(vcgpdm)-dataset(walking)-mode(ELBO)-parts(1)-dyn(24)-lvm(27)_final(9).mov,resources/videos_natural\training(1).mov,True,False,right,0,241,241,241,2018-12-11 15:16:24.791729,2018-12-11 15:16:28.694952,0:00:03.903223,6,right,1,0.21704865105857607,20,m,2,25,2018_Dec_11_1451,MP_PerceptionTuring2,59.932493411586975,
243,resources/videos_generated\model(vcgpdm)-dataset(walking)-mode(ELBO)-parts(1)-dyn(22)-lvm(23)_final(7).mov,resources/videos_natural\training(21).mov,True,True,left,0,242,242,242,2018-12-11 15:16:30.030028,2018-12-11 15:16:33.933252,0:00:03.903224,6,right,0,0.2170010661448032,20,m,2,25,2018_Dec_11_1451,MP_PerceptionTuring2,59.932493411586975,
244,resources/videos_generated\model(vcgpdm)-dataset(walking)-mode(ELBO)-parts(1)-dyn(27)-lvm(24)_final(8).mov,resources/videos_natural\training(32).mov,True,True,left,0,243,243,243,2018-12-11 15:16:35.267328,2018-12-11 15:16:39.187552,0:00:03.920224,6,left,1,0.15039302730292547,20,m,2,25,2018_Dec_11_1451,MP_PerceptionTuring2,59.932493411586975,
245,resources/videos_generated\model(vcgpdm)-dataset(walking)-mode(ELBO)-parts(2)-dyn(26)-lvm(23)_final(2).mov,resources/videos_natural\training(46).mov,False,False,right,0,244,244,244,2018-12-11 15:16:40.455625,2018-12-11 15:16:44.374849,0:00:03.919224,6,right,1,1.051104692836816,20,m,2,25,2018_Dec_11_1451,MP_PerceptionTuring2,59.932493411586975,
246,resources/videos_generated\model(vcgpdm)-dataset(walking)-mode(ELBO)-parts(1)-dyn(26)-lvm(25)_final(8).mov,resources/videos_natural\training(34).mov,False,False,right,0,245,245,245,2018-12-11 15:16:46.543973,2018-12-11 15:16:50.464197,0:00:03.920224,6,right,1,0.217117317897646,20,m,2,25,2018_Dec_11_1451,MP_PerceptionTuring2,59.932493411586975,
247,resources/videos_generated\model(vcgpdm)-dataset(walking)-mode(ELBO)-parts(1)-dyn(22)-lvm(25)_final(9).mov,resources/videos_natural\training(42).mov,False,False,right,0,246,246,246,2018-12-11 15:16:51.798273,2018-12-11 15:16:55.718498,0:00:03.920225,6,right,1,0.41719110463236575,20,m,2,25,2018_Dec_11_1451,MP_PerceptionTuring2,59.932493411586975,
248,resources/videos_generated\model(vcgpdm)-dataset(walking)-mode(ELBO)-parts(2)-dyn(26)-lvm(21)_final(6).mov,resources/videos_natural\training(4).mov,False,True,left,0,247,247,247,2018-12-11 15:16:57.252585,2018-12-11 15:17:01.156809,0:00:03.904224,6,right,0,0.10040296592706,20,m,2,25,2018_Dec_11_1451,MP_PerceptionTuring2,59.932493411586975,
249,resources/videos_generated\model(vcgpdm)-dataset(walking)-mode(ELBO)-parts(1)-dyn(23)-lvm(28)_final(1).mov,resources/videos_natural\training(27).mov,False,False,right,0,248,248,248,2018-12-11 15:17:02.373878,2018-12-11 15:17:06.277102,0:00:03.903224,6,right,1,0.20040146007522708,20,m,2,25,2018_Dec_11_1451,MP_PerceptionTuring2,59.932493411586975,
250,resources/videos_generated\model(dmp)-dataset(walking)-npsi(80)_final(9).mov,resources/videos_natural\training(45).mov,False,False,right,0,249,249,249,2018-12-11 15:17:07.595177,2018-12-11 15:17:11.498400,0:00:03.903223,6,left,0,0.16717935898850556,20,m,2,25,2018_Dec_11_1451,MP_PerceptionTuring2,59.932493411586975,
251,resources/videos_generated\model(dmp)-dataset(walking)-npsi(80)_final(3).mov,resources/videos_natural\training(2).mov,False,False,right,0,250,250,250,2018-12-11 15:17:12.783474,2018-12-11 15:17:16.686697,0:00:03.903223,6,left,0,0.6841822321548534,20,m,2,25,2018_Dec_11_1451,MP_PerceptionTuring2,59.932493411586975,
252,resources/videos_generated\model(vcgpdm)-dataset(walking)-mode(ELBO)-parts(2)-dyn(26)-lvm(19)_final(8).mov,resources/videos_natural\training(39).mov,False,False,right,0,251,251,251,2018-12-11 15:17:18.487800,2018-12-11 15:17:22.408024,0:00:03.920224,6,right,1,0.4173085610691487,20,m,2,25,2018_Dec_11_1451,MP_PerceptionTuring2,59.932493411586975,
253,resources/videos_generated\model(vcgpdm)-dataset(walking)-mode(ELBO)-parts(1)-dyn(26)-lvm(27)_final(6).mov,resources/videos_natural\training(14).mov,True,True,left,0,252,252,252,2018-12-11 15:17:23.943112,2018-12-11 15:17:27.846335,0:00:03.903223,6,right,0,0.15040748347928456,20,m,2,25,2018_Dec_11_1451,MP_PerceptionTuring2,59.932493411586975,
254,resources/videos_generated\model(vcgpdm)-dataset(walking)-mode(ELBO)-parts(2)-dyn(27)-lvm(18)_final(2).mov,resources/videos_natural\training(5).mov,True,False,right,0,253,253,253,2018-12-11 15:17:29.113408,2018-12-11 15:17:33.034632,0:00:03.921224,6,right,1,0.2504391063685034,20,m,2,25,2018_Dec_11_1451,MP_PerceptionTuring2,59.932493411586975,
255,resources/videos_generated\model(vcgpdm)-dataset(walking)-mode(ELBO)-parts(1)-dyn(22)-lvm(22)_final(5).mov,resources/videos_natural\training(47).mov,False,True,left,0,254,254,254,2018-12-11 15:17:34.401710,2018-12-11 15:17:38.304934,0:00:03.903224,6,left,1,0.20033670844895823,20,m,2,25,2018_Dec_11_1451,MP_PerceptionTuring2,59.932493411586975,
256,resources/videos_generated\model(vcgpdm)-dataset(walking)-mode(ELBO)-parts(1)-dyn(27)-lvm(26)_final(0).mov,resources/videos_natural\training(12).mov,True,True,left,0,255,255,255,2018-12-11 15:17:39.623009,2018-12-11 15:17:43.526232,0:00:03.903223,6,left,1,0.2170799727755366,20,m,2,25,2018_Dec_11_1451,MP_PerceptionTuring2,59.932493411586975,
257,resources/videos_generated\model(vcgpdm)-dataset(walking)-mode(ELBO)-parts(1)-dyn(24)-lvm(25)_final(1).mov,resources/videos_natural\training(32).mov,False,False,right,0,256,256,256,2018-12-11 15:17:44.861309,2018-12-11 15:17:48.730530,0:00:03.869221,6,right,1,0.23383287454998936,20,m,2,25,2018_Dec_11_1451,MP_PerceptionTuring2,59.932493411586975,
258,resources/videos_generated\model(vcgpdm)-dataset(walking)-mode(ELBO)-parts(2)-dyn(26)-lvm(23)_final(4).mov,resources/videos_natural\training(25).mov,True,False,right,0,257,257,257,2018-12-11 15:17:50.081607,2018-12-11 15:17:54.002831,0:00:03.921224,6,right,1,0.26724170125089586,20,m,2,25,2018_Dec_11_1451,MP_PerceptionTuring2,59.932493411586975,
259,resources/videos_generated\model(vcgpdm)-dataset(walking)-mode(ELBO)-parts(2)-dyn(22)-lvm(19)_final(4).mov,resources/videos_natural\training(23).mov,True,True,left,0,258,258,258,2018-12-11 15:17:55.386911,2018-12-11 15:17:59.290134,0:00:03.903223,6,left,1,0.05019967594125774,20,m,2,25,2018_Dec_11_1451,MP_PerceptionTuring2,59.932493411586975,
260,resources/videos_generated\model(vcgpdm)-dataset(walking)-mode(ELBO)-parts(1)-dyn(25)-lvm(25)_final(0).mov,resources/videos_natural\training(46).mov,True,True,left,0,259,259,259,2018-12-11 15:18:00.457201,2018-12-11 15:18:04.377425,0:00:03.920224,6,left,1,0.6353703491768101,20,m,2,25,2018_Dec_11_1451,MP_PerceptionTuring2,59.932493411586975,
261,resources/videos_generated\model(vcgpdm)-dataset(walking)-mode(ELBO)-parts(2)-dyn(24)-lvm(17)_final(4).mov,resources/videos_natural\training(6).mov,False,False,right,0,260,260,260,2018-12-11 15:18:06.129525,2018-12-11 15:18:10.065750,0:00:03.936225,6,right,1,0.35081315993920725,20,m,2,25,2018_Dec_11_1451,MP_PerceptionTuring2,59.932493411586975,
262,resources/videos_generated\model(vcgpdm)-dataset(walking)-mode(ELBO)-parts(2)-dyn(23)-lvm(22)_final(0).mov,resources/videos_natural\training(30).mov,False,False,right,0,261,261,261,2018-12-11 15:18:11.533834,2018-12-11 15:18:15.437057,0:00:03.903223,6,right,1,0.3839867725982913,20,m,2,25,2018_Dec_11_1451,MP_PerceptionTuring2,59.932493411586975,
263,resources/videos_generated\model(vcgpdm)-dataset(walking)-mode(ELBO)-parts(2)-dyn(26)-lvm(17)_final(0).mov,resources/videos_natural\training(11).mov,True,False,right,0,262,262,262,2018-12-11 15:18:16.938143,2018-12-11 15:18:20.825366,0:00:03.887223,6,right,1,0.20039694251863693,20,m,2,25,2018_Dec_11_1451,MP_PerceptionTuring2,59.932493411586975,
264,resources/videos_generated\model(vcgpdm)-dataset(walking)-mode(ELBO)-parts(2)-dyn(24)-lvm(23)_final(0).mov,resources/videos_natural\training(20).mov,False,False,right,0,263,263,263,2018-12-11 15:18:22.143441,2018-12-11 15:18:26.063665,0:00:03.920224,6,right,1,0.36726037381231436,20,m,2,25,2018_Dec_11_1451,MP_PerceptionTuring2,59.932493411586975,
265,resources/videos_generated\model(vcgpdm)-dataset(walking)-mode(ELBO)-parts(1)-dyn(23)-lvm(26)_final(4)_hip-corrected.mov,resources/videos_natural\training(25).mov,False,False,right,0,264,264,264,2018-12-11 15:18:27.547750,2018-12-11 15:18:31.450973,0:00:03.903223,6,right,1,0.33407110029656906,20,m,2,25,2018_Dec_11_1451,MP_PerceptionTuring2,59.932493411586975,
266,resources/videos_generated\model(vcgpdm)-dataset(walking)-mode(ELBO)-parts(2)-dyn(24)-lvm(19)_final(6).mov,resources/videos_natural\training(45).mov,True,True,left,0,265,265,265,2018-12-11 15:18:32.902056,2018-12-11 15:18:36.806280,0:00:03.904224,6,left,1,0.4171706250472198,20,m,2,25,2018_Dec_11_1451,MP_PerceptionTuring2,59.932493411586975,
267,resources/videos_generated\model(vcgpdm)-dataset(walking)-mode(ELBO)-parts(2)-dyn(25)-lvm(18)_final(4).mov,resources/videos_natural\training(3).mov,True,False,right,0,266,266,266,2018-12-11 15:18:38.340367,2018-12-11 15:18:42.227590,0:00:03.887223,6,right,1,0.3171471337627736,20,m,2,25,2018_Dec_11_1451,MP_PerceptionTuring2,59.932493411586975,
268,resources/videos_generated\model(vcgpdm)-dataset(walking)-mode(ELBO)-parts(1)-dyn(22)-lvm(22)_final(7).mov,resources/videos_natural\training(19).mov,True,True,left,0,267,267,267,2018-12-11 15:18:43.661672,2018-12-11 15:18:47.581896,0:00:03.920224,6,left,1,0.2671465314197121,20,m,2,25,2018_Dec_11_1451,MP_PerceptionTuring2,59.932493411586975,
269,resources/videos_generated\model(vcgpdm)-dataset(walking)-mode(ELBO)-parts(2)-dyn(23)-lvm(18)_final(0).mov,resources/videos_natural\training(25).mov,False,True,left,0,268,268,268,2018-12-11 15:18:48.965975,2018-12-11 15:18:52.853197,0:00:03.887222,6,left,1,0.3172338708227471,20,m,2,25,2018_Dec_11_1451,MP_PerceptionTuring2,59.932493411586975,
270,resources/videos_generated\model(vcgpdm)-dataset(walking)-mode(ELBO)-parts(2)-dyn(27)-lvm(22)_final(6).mov,resources/videos_natural\training(44).mov,True,True,left,0,269,269,269,2018-12-11 15:18:54.287279,2018-12-11 15:18:58.207504,0:00:03.920225,6,left,1,0.3506743204088707,20,m,2,25,2018_Dec_11_1451,MP_PerceptionTuring2,59.932493411586975,
271,resources/videos_generated\model(vcgpdm)-dataset(walking)-mode(ELBO)-parts(2)-dyn(22)-lvm(17)_final(0).mov,resources/videos_natural\training(40).mov,False,False,right,0,270,270,270,2018-12-11 15:19:31.936433,2018-12-11 15:19:35.840656,0:00:03.904223,7,right,1,0.33383709093504876,20,m,2,25,2018_Dec_11_1451,MP_PerceptionTuring2,59.932493411586975,
272,resources/videos_generated\model(vcgpdm)-dataset(walking)-mode(ELBO)-parts(1)-dyn(25)-lvm(26)_final(7).mov,resources/videos_natural\training(31).mov,False,False,right,0,271,271,271,2018-12-11 15:19:37.291739,2018-12-11 15:19:41.194962,0:00:03.903223,7,left,0,0.3005490335453942,20,m,2,25,2018_Dec_11_1451,MP_PerceptionTuring2,59.932493411586975,
273,resources/videos_generated\model(vcgpdm)-dataset(walking)-mode(ELBO)-parts(1)-dyn(23)-lvm(28)_final(5).mov,resources/videos_natural\training(20).mov,False,False,right,0,272,272,272,2018-12-11 15:19:42.613044,2018-12-11 15:19:46.516267,0:00:03.903223,7,right,1,0.30063125305059657,20,m,2,25,2018_Dec_11_1451,MP_PerceptionTuring2,59.932493411586975,
274,resources/videos_generated\model(vcgpdm)-dataset(walking)-mode(ELBO)-parts(1)-dyn(24)-lvm(23)_final(7).mov,resources/videos_natural\training(18).mov,True,True,left,0,273,273,273,2018-12-11 15:19:47.934348,2018-12-11 15:19:51.887574,0:00:03.953226,7,right,0,0.0336172365823586,20,m,2,25,2018_Dec_11_1451,MP_PerceptionTuring2,59.932493411586975,
275,resources/videos_generated\model(vcgpdm)-dataset(walking)-mode(ELBO)-parts(1)-dyn(24)-lvm(23)_final(9).mov,resources/videos_natural\training(11).mov,False,True,left,0,274,274,274,2018-12-11 15:19:53.038640,2018-12-11 15:19:56.974865,0:00:03.936225,7,left,1,0.2171956221882283,20,m,2,25,2018_Dec_11_1451,MP_PerceptionTuring2,59.932493411586975,
276,resources/videos_generated\model(vcgpdm)-dataset(walking)-mode(ELBO)-parts(2)-dyn(23)-lvm(18)_final(4).mov,resources/videos_natural\training(19).mov,True,True,left,0,275,275,275,2018-12-11 15:19:58.309941,2018-12-11 15:20:02.213165,0:00:03.903224,7,left,1,0.1670501569096814,20,m,2,25,2018_Dec_11_1451,MP_PerceptionTuring2,59.932493411586975,
277,resources/videos_generated\model(tmp)-dataset(walking)-numprim(13)_final(7).mov,resources/videos_natural\training(33).mov,False,False,right,0,276,276,276,2018-12-11 15:20:03.497238,2018-12-11 15:20:07.417462,0:00:03.920224,7,right,1,0.23375517260137713,20,m,2,25,2018_Dec_11_1451,MP_PerceptionTuring2,59.932493411586975,
278,resources/videos_generated\model(vcgpdm)-dataset(walking)-mode(ELBO)-parts(2)-dyn(26)-lvm(17)_final(2).mov,resources/videos_natural\training(7).mov,False,False,right,0,277,277,277,2018-12-11 15:20:08.768540,2018-12-11 15:20:12.671763,0:00:03.903223,7,left,0,0.10034574355995574,20,m,2,25,2018_Dec_11_1451,MP_PerceptionTuring2,59.932493411586975,
279,resources/videos_generated\model(vcgpdm)-dataset(walking)-mode(ELBO)-parts(1)-dyn(25)-lvm(22)_final(1).mov,resources/videos_natural\training(8).mov,False,True,left,0,278,278,278,2018-12-11 15:20:13.889832,2018-12-11 15:20:17.793056,0:00:03.903224,7,left,1,0.10026051235035993,20,m,2,25,2018_Dec_11_1451,MP_PerceptionTuring2,59.932493411586975,
280,resources/videos_generated\model(dmp)-dataset(walking)-npsi(50)_final(5).mov,resources/videos_natural\training(19).mov,False,True,left,0,279,279,279,2018-12-11 15:20:19.011125,2018-12-11 15:20:22.931350,0:00:03.920225,7,left,1,0.21706491425720742,20,m,2,25,2018_Dec_11_1451,MP_PerceptionTuring2,59.932493411586975,
281,resources/videos_generated\model(vcgpdm)-dataset(walking)-mode(ELBO)-parts(2)-dyn(24)-lvm(19)_final(2).mov,resources/videos_natural\training(9).mov,True,False,right,0,280,280,280,2018-12-11 15:20:24.265426,2018-12-11 15:20:28.168649,0:00:03.903223,7,right,1,0.3672703124339023,20,m,2,25,2018_Dec_11_1451,MP_PerceptionTuring2,59.932493411586975,
282,resources/videos_generated\model(vcgpdm)-dataset(walking)-mode(ELBO)-parts(2)-dyn(24)-lvm(21)_final(6).mov,resources/videos_natural\training(38).mov,True,True,left,0,281,281,281,2018-12-11 15:20:29.653734,2018-12-11 15:20:33.539956,0:00:03.886222,7,left,1,0.26713568928789755,20,m,2,25,2018_Dec_11_1451,MP_PerceptionTuring2,59.932493411586975,
283,resources/videos_generated\model(vcgpdm)-dataset(walking)-mode(ELBO)-parts(2)-dyn(23)-lvm(20)_final(6).mov,resources/videos_natural\training(45).mov,False,True,left,0,282,282,282,2018-12-11 15:20:34.924036,2018-12-11 15:20:38.828259,0:00:03.904223,7,left,1,0.21705738499804283,20,m,2,25,2018_Dec_11_1451,MP_PerceptionTuring2,59.932493411586975,
284,resources/videos_generated\model(vcgpdm)-dataset(walking)-mode(ELBO)-parts(1)-dyn(24)-lvm(23)_final(1).mov,resources/videos_natural\training(33).mov,False,True,left,0,283,283,283,2018-12-11 15:20:40.162335,2018-12-11 15:20:44.065558,0:00:03.903223,7,left,1,0.9509971750212571,20,m,2,25,2018_Dec_11_1451,MP_PerceptionTuring2,59.932493411586975,
285,resources/videos_generated\model(vcgpdm)-dataset(walking)-mode(ELBO)-parts(1)-dyn(23)-lvm(26)_final(8)_hip-corrected.mov,resources/videos_natural\training(1).mov,False,True,left,0,284,284,284,2018-12-11 15:20:46.134677,2018-12-11 15:20:50.054901,0:00:03.920224,7,left,1,0.23373800589070015,20,m,2,25,2018_Dec_11_1451,MP_PerceptionTuring2,59.932493411586975,
286,resources/videos_generated\model(dmp)-dataset(walking)-npsi(80)_final(7).mov,resources/videos_natural\training(44).mov,False,False,right,0,285,285,285,2018-12-11 15:20:51.404978,2018-12-11 15:20:55.309202,0:00:03.904224,7,right,1,0.267110993319875,20,m,2,25,2018_Dec_11_1451,MP_PerceptionTuring2,59.932493411586975,
287,resources/videos_generated\model(vcgpdm)-dataset(walking)-mode(ELBO)-parts(2)-dyn(22)-lvm(21)_final(4).mov,resources/videos_natural\training(0).mov,True,True,left,0,286,286,286,2018-12-11 15:20:56.693281,2018-12-11 15:21:00.596504,0:00:03.903223,7,left,1,0.2338470295562729,20,m,2,25,2018_Dec_11_1451,MP_PerceptionTuring2,59.932493411586975,
288,resources/videos_generated\model(dmp)-dataset(walking)-npsi(90)_final(9).mov,resources/videos_natural\training(47).mov,True,False,right,0,287,287,287,2018-12-11 15:21:01.947581,2018-12-11 15:21:05.867805,0:00:03.920224,7,left,0,0.21709141724750225,20,m,2,25,2018_Dec_11_1451,MP_PerceptionTuring2,59.932493411586975,
289,resources/videos_generated\model(vcgpdm)-dataset(walking)-mode(ELBO)-parts(2)-dyn(22)-lvm(23)_final(2).mov,resources/videos_natural\training(14).mov,False,False,right,0,288,288,288,2018-12-11 15:21:07.202882,2018-12-11 15:21:11.122106,0:00:03.919224,7,right,1,0.23379492708590988,20,m,2,25,2018_Dec_11_1451,MP_PerceptionTuring2,59.932493411586975,
290,resources/videos_generated\model(vcgpdm)-dataset(walking)-mode(ELBO)-parts(2)-dyn(27)-lvm(22)_final(2).mov,resources/videos_natural\training(43).mov,False,False,right,0,289,289,289,2018-12-11 15:21:12.473183,2018-12-11 15:21:16.393407,0:00:03.920224,7,right,1,0.13367506128815876,20,m,2,25,2018_Dec_11_1451,MP_PerceptionTuring2,59.932493411586975,
