n_trial,mov_file_generated,mov_file_natural,mirrored,switch_stim_pos,correct_answer,trials.thisRepN,trials.thisTrialN,trials.thisN,trials.thisIndex,stimulus_onset,stimulus_off,stimulus_length,block,response.keys,response.corr,response.rt,age,gender,condition,participant,date,expName,frameRate,
1,resources/videos_generated\model(vcgpdm)-dataset(walking)-mode(ELBO)-parts(1)-dyn(22)-lvm(23)_final(2).mov,resources/videos_natural\training(44).mov,False,False,right,0,0,0,0,2018-12-11 17:10:38.059713,2018-12-11 17:10:42.312957,0:00:04.253244,1,left,0,3.569967292900401,19,f,1,26,2018_Dec_11_1709,MP_PerceptionTuring2,59.966697007370335,
2,resources/videos_generated\model(vcgpdm)-dataset(walking)-mode(ELBO)-parts(2)-dyn(27)-lvm(18)_final(5).mov,resources/videos_natural\training(15).mov,False,False,right,0,1,1,1,2018-12-11 17:10:47.000225,2018-12-11 17:10:50.903448,0:00:03.903223,1,right,1,0.45058396930471645,19,f,1,26,2018_Dec_11_1709,MP_PerceptionTuring2,59.966697007370335,
3,resources/videos_generated\model(vcgpdm)-dataset(walking)-mode(ELBO)-parts(2)-dyn(26)-lvm(23)_final(5).mov,resources/videos_natural\training(36).mov,True,False,right,0,2,2,2,2018-12-11 17:10:52.471538,2018-12-11 17:10:56.374761,0:00:03.903223,1,left,0,0.5008071365336946,19,f,1,26,2018_Dec_11_1709,MP_PerceptionTuring2,59.966697007370335,
4,resources/videos_generated\model(vcgpdm)-dataset(walking)-mode(ELBO)-parts(1)-dyn(28)-lvm(27)_final(9).mov,resources/videos_natural\training(13).mov,False,True,left,0,3,3,3,2018-12-11 17:10:57.992853,2018-12-11 17:11:01.897077,0:00:03.904224,1,right,0,0.45063456592470175,19,f,1,26,2018_Dec_11_1709,MP_PerceptionTuring2,59.966697007370335,
5,resources/videos_generated\model(vcgpdm)-dataset(walking)-mode(ELBO)-parts(2)-dyn(28)-lvm(21)_final(1).mov,resources/videos_natural\training(12).mov,True,True,left,0,4,4,4,2018-12-11 17:11:03.464166,2018-12-11 17:11:07.368390,0:00:03.904224,1,right,0,0.4675217896729009,19,f,1,26,2018_Dec_11_1709,MP_PerceptionTuring2,59.966697007370335,
6,resources/videos_generated\model(tmp)-dataset(walking)-numprim(15)_final(2).mov,resources/videos_natural\training(15).mov,True,True,left,0,5,5,5,2018-12-11 17:11:08.952480,2018-12-11 17:11:12.855704,0:00:03.903224,1,left,1,0.517475108274084,19,f,1,26,2018_Dec_11_1709,MP_PerceptionTuring2,59.966697007370335,
7,resources/videos_generated\model(tmp)-dataset(walking)-numprim(12)_final(8).mov,resources/videos_natural\training(29).mov,False,True,left,0,6,6,6,2018-12-11 17:11:14.490797,2018-12-11 17:11:18.394020,0:00:03.903223,1,right,0,0.43402351538316,19,f,1,26,2018_Dec_11_1709,MP_PerceptionTuring2,59.966697007370335,
8,resources/videos_generated\model(vcgpdm)-dataset(walking)-mode(ELBO)-parts(1)-dyn(26)-lvm(25)_final(7).mov,resources/videos_natural\training(5).mov,True,False,right,0,7,7,7,2018-12-11 17:11:19.945109,2018-12-11 17:11:23.849332,0:00:03.904223,1,right,1,0.500664381786919,19,f,1,26,2018_Dec_11_1709,MP_PerceptionTuring2,59.966697007370335,
9,resources/videos_generated\model(vcgpdm)-dataset(walking)-mode(ELBO)-parts(2)-dyn(26)-lvm(17)_final(7).mov,resources/videos_natural\training(34).mov,False,True,left,0,8,8,8,2018-12-11 17:11:25.466425,2018-12-11 17:11:29.403650,0:00:03.937225,1,left,1,0.43398586908733705,19,f,1,26,2018_Dec_11_1709,MP_PerceptionTuring2,59.966697007370335,
10,resources/videos_generated\model(vcgpdm)-dataset(walking)-mode(ELBO)-parts(1)-dyn(23)-lvm(22)_final(1)_fail.mov,resources/videos_natural\training(5).mov,True,False,right,0,9,9,9,2018-12-11 17:11:30.954739,2018-12-11 17:11:34.874963,0:00:03.920224,1,right,1,0.30046079063322395,19,f,1,26,2018_Dec_11_1709,MP_PerceptionTuring2,59.966697007370335,
11,resources/videos_generated\model(vcgpdm)-dataset(walking)-mode(ELBO)-parts(1)-dyn(23)-lvm(28)_final(2).mov,resources/videos_natural\training(36).mov,False,True,left,0,10,10,10,2018-12-11 17:11:36.293044,2018-12-11 17:11:40.213268,0:00:03.920224,1,right,0,0.5173489178960153,19,f,1,26,2018_Dec_11_1709,MP_PerceptionTuring2,59.966697007370335,
12,resources/videos_generated\model(vcgpdm)-dataset(walking)-mode(ELBO)-parts(1)-dyn(24)-lvm(27)_final(4).mov,resources/videos_natural\training(0).mov,True,True,left,0,11,11,11,2018-12-11 17:11:41.847362,2018-12-11 17:11:45.751585,0:00:03.904223,1,right,0,0.36717333558408427,19,f,1,26,2018_Dec_11_1709,MP_PerceptionTuring2,59.966697007370335,
13,resources/videos_generated\model(vcgpdm)-dataset(walking)-mode(ELBO)-parts(1)-dyn(24)-lvm(23)_final(6)_fail.mov,resources/videos_natural\training(26).mov,False,False,right,0,12,12,12,2018-12-11 17:11:47.235670,2018-12-11 17:11:51.172895,0:00:03.937225,1,left,0,0.5840963986083807,19,f,1,26,2018_Dec_11_1709,MP_PerceptionTuring2,59.966697007370335,
14,resources/videos_generated\model(vcgpdm)-dataset(walking)-mode(ELBO)-parts(2)-dyn(22)-lvm(23)_final(7).mov,resources/videos_natural\training(14).mov,True,True,left,0,13,13,13,2018-12-11 17:11:52.873992,2018-12-11 17:11:56.794217,0:00:03.920225,1,left,1,0.5171323764152476,19,f,1,26,2018_Dec_11_1709,MP_PerceptionTuring2,59.966697007370335,
15,resources/videos_generated\model(vcgpdm)-dataset(walking)-mode(ELBO)-parts(2)-dyn(23)-lvm(18)_final(3).mov,resources/videos_natural\training(41).mov,False,False,right,0,14,14,14,2018-12-11 17:11:58.428310,2018-12-11 17:12:02.315532,0:00:03.887222,1,right,1,0.4173001282979385,19,f,1,26,2018_Dec_11_1709,MP_PerceptionTuring2,59.966697007370335,
16,resources/videos_generated\model(vcgpdm)-dataset(walking)-mode(ELBO)-parts(2)-dyn(22)-lvm(21)_final(9).mov,resources/videos_natural\training(24).mov,False,True,left,0,15,15,15,2018-12-11 17:12:03.849620,2018-12-11 17:12:07.769844,0:00:03.920224,1,right,0,0.6173718068421294,19,f,1,26,2018_Dec_11_1709,MP_PerceptionTuring2,59.966697007370335,
17,resources/videos_generated\model(vcgpdm)-dataset(walking)-mode(ELBO)-parts(2)-dyn(27)-lvm(22)_final(9).mov,resources/videos_natural\training(35).mov,False,False,right,0,16,16,16,2018-12-11 17:12:09.504944,2018-12-11 17:12:13.408167,0:00:03.903223,1,right,1,0.4673727103509009,19,f,1,26,2018_Dec_11_1709,MP_PerceptionTuring2,59.966697007370335,
18,resources/videos_generated\model(vcgpdm)-dataset(walking)-mode(ELBO)-parts(2)-dyn(24)-lvm(21)_final(5).mov,resources/videos_natural\training(11).mov,False,True,left,0,17,17,17,2018-12-11 17:12:14.993258,2018-12-11 17:12:18.913482,0:00:03.920224,1,right,0,0.4171673121745698,19,f,1,26,2018_Dec_11_1709,MP_PerceptionTuring2,59.966697007370335,
19,resources/videos_generated\model(tmp)-dataset(walking)-numprim(11)_final(4).mov,resources/videos_natural\training(9).mov,False,True,left,0,18,18,18,2018-12-11 17:12:20.447570,2018-12-11 17:12:24.350793,0:00:03.903223,1,right,0,0.41724712231734884,19,f,1,26,2018_Dec_11_1709,MP_PerceptionTuring2,59.966697007370335,
20,resources/videos_generated\model(dmp)-dataset(walking)-npsi(60)_final(0).mov,resources/videos_natural\training(43).mov,True,False,right,0,19,19,19,2018-12-11 17:12:25.885881,2018-12-11 17:12:29.789104,0:00:03.903223,1,left,0,0.4507637680035259,19,f,1,26,2018_Dec_11_1709,MP_PerceptionTuring2,59.966697007370335,
21,resources/videos_generated\model(vcgpdm)-dataset(walking)-mode(ELBO)-parts(1)-dyn(28)-lvm(25)_final(9).mov,resources/videos_natural\training(6).mov,False,False,right,0,20,20,20,2018-12-11 17:12:31.357194,2018-12-11 17:12:35.277418,0:00:03.920224,1,right,1,0.3338367897667922,19,f,1,26,2018_Dec_11_1709,MP_PerceptionTuring2,59.966697007370335,
22,resources/videos_generated\model(tmp)-dataset(walking)-numprim(12)_final(0).mov,resources/videos_natural\training(41).mov,False,True,left,0,21,21,21,2018-12-11 17:12:36.728501,2018-12-11 17:12:40.614723,0:00:03.886222,1,right,0,0.38390274607081665,19,f,1,26,2018_Dec_11_1709,MP_PerceptionTuring2,59.966697007370335,
23,resources/videos_generated\model(vcgpdm)-dataset(walking)-mode(ELBO)-parts(1)-dyn(28)-lvm(23)_final(3)_fail.mov,resources/videos_natural\training(2).mov,False,True,left,0,22,22,22,2018-12-11 17:12:42.116809,2018-12-11 17:12:46.020032,0:00:03.903223,1,left,1,0.3671341834378836,19,f,1,26,2018_Dec_11_1709,MP_PerceptionTuring2,59.966697007370335,
24,resources/videos_generated\model(vcgpdm)-dataset(walking)-mode(ELBO)-parts(2)-dyn(26)-lvm(21)_final(3).mov,resources/videos_natural\training(35).mov,True,True,left,0,23,23,23,2018-12-11 17:12:47.504117,2018-12-11 17:12:51.407340,0:00:03.903223,1,left,1,0.36712183545387234,19,f,1,26,2018_Dec_11_1709,MP_PerceptionTuring2,59.966697007370335,
25,resources/videos_generated\model(vcgpdm)-dataset(walking)-mode(ELBO)-parts(2)-dyn(24)-lvm(19)_final(7).mov,resources/videos_natural\training(4).mov,True,False,right,0,24,24,24,2018-12-11 17:12:52.892425,2018-12-11 17:12:56.829650,0:00:03.937225,1,left,0,0.35063516826630803,19,f,1,26,2018_Dec_11_1709,MP_PerceptionTuring2,59.966697007370335,
26,resources/videos_generated\model(vcgpdm)-dataset(walking)-mode(ELBO)-parts(1)-dyn(22)-lvm(27)_final(4)_fail.mov,resources/videos_natural\training(7).mov,False,True,left,0,25,25,25,2018-12-11 17:12:58.296734,2018-12-11 17:13:02.216959,0:00:03.920225,1,left,1,0.2670335925395193,19,f,1,26,2018_Dec_11_1709,MP_PerceptionTuring2,59.966697007370335,
27,resources/videos_generated\model(vcgpdm)-dataset(walking)-mode(ELBO)-parts(1)-dyn(28)-lvm(23)_final(1).mov,resources/videos_natural\training(42).mov,True,True,left,0,26,26,26,2018-12-11 17:13:03.602038,2018-12-11 17:13:07.522262,0:00:03.920224,1,left,1,0.31700558369993814,19,f,1,26,2018_Dec_11_1709,MP_PerceptionTuring2,59.966697007370335,
28,resources/videos_generated\model(vcgpdm)-dataset(walking)-mode(ELBO)-parts(1)-dyn(24)-lvm(27)_final(6).mov,resources/videos_natural\training(48).mov,True,False,right,0,27,27,27,2018-12-11 17:13:08.956344,2018-12-11 17:13:12.859567,0:00:03.903223,1,right,1,0.31726097615319304,19,f,1,26,2018_Dec_11_1709,MP_PerceptionTuring2,59.966697007370335,
29,resources/videos_generated\model(vcgpdm)-dataset(walking)-mode(ELBO)-parts(1)-dyn(22)-lvm(28)_final(0).mov,resources/videos_natural\training(21).mov,False,True,left,0,28,28,28,2018-12-11 17:13:14.294649,2018-12-11 17:13:18.230875,0:00:03.936226,1,left,1,0.3006044488902262,19,f,1,26,2018_Dec_11_1709,MP_PerceptionTuring2,59.966697007370335,
30,resources/videos_generated\model(dmp)-dataset(walking)-npsi(60)_final(8).mov,resources/videos_natural\training(27).mov,False,False,right,0,29,29,29,2018-12-11 17:13:19.648956,2018-12-11 17:13:23.569180,0:00:03.920224,1,right,1,0.40059300441498635,19,f,1,26,2018_Dec_11_1709,MP_PerceptionTuring2,59.966697007370335,
31,resources/videos_generated\model(vcgpdm)-dataset(walking)-mode(ELBO)-parts(2)-dyn(26)-lvm(17)_final(9).mov,resources/videos_natural\training(35).mov,False,True,left,0,30,30,30,2018-12-11 17:13:25.087267,2018-12-11 17:13:29.007491,0:00:03.920224,1,left,1,0.4006378787998983,19,f,1,26,2018_Dec_11_1709,MP_PerceptionTuring2,59.966697007370335,
32,resources/videos_generated\model(dmp)-dataset(walking)-npsi(60)_final(2).mov,resources/videos_natural\training(44).mov,True,False,right,0,31,31,31,2018-12-11 17:13:30.524578,2018-12-11 17:13:34.411800,0:00:03.887222,1,right,1,0.41723899071803316,19,f,1,26,2018_Dec_11_1709,MP_PerceptionTuring2,59.966697007370335,
33,resources/videos_generated\model(vcgpdm)-dataset(walking)-mode(ELBO)-parts(1)-dyn(24)-lvm(23)_final(0).mov,resources/videos_natural\training(6).mov,True,False,right,0,32,32,32,2018-12-11 17:13:35.945888,2018-12-11 17:13:39.866112,0:00:03.920224,1,right,1,0.46736427758150967,19,f,1,26,2018_Dec_11_1709,MP_PerceptionTuring2,59.966697007370335,
34,resources/videos_generated\model(vcgpdm)-dataset(walking)-mode(ELBO)-parts(1)-dyn(27)-lvm(28)_final(7).mov,resources/videos_natural\training(12).mov,False,False,right,0,33,33,33,2018-12-11 17:13:41.451203,2018-12-11 17:13:45.371427,0:00:03.920224,1,left,0,0.5340789307265368,19,f,1,26,2018_Dec_11_1709,MP_PerceptionTuring2,59.966697007370335,
35,resources/videos_generated\model(vcgpdm)-dataset(walking)-mode(ELBO)-parts(2)-dyn(25)-lvm(18)_final(7).mov,resources/videos_natural\training(16).mov,True,True,left,0,34,34,34,2018-12-11 17:13:47.022521,2018-12-11 17:13:50.925745,0:00:03.903224,1,left,1,0.2171353881203686,19,f,1,26,2018_Dec_11_1709,MP_PerceptionTuring2,59.966697007370335,
36,resources/videos_generated\model(vcgpdm)-dataset(walking)-mode(ELBO)-parts(1)-dyn(25)-lvm(26)_final(4)_fail.mov,resources/videos_natural\training(26).mov,True,True,left,0,35,35,35,2018-12-11 17:13:52.260821,2018-12-11 17:13:56.181045,0:00:03.920224,1,left,1,0.31726097615319304,19,f,1,26,2018_Dec_11_1709,MP_PerceptionTuring2,59.966697007370335,
37,resources/videos_generated\model(vcgpdm)-dataset(walking)-mode(ELBO)-parts(2)-dyn(26)-lvm(23)_final(3).mov,resources/videos_natural\training(33).mov,False,True,left,0,36,36,36,2018-12-11 17:13:57.615127,2018-12-11 17:14:01.551352,0:00:03.936225,1,left,1,0.367060697873967,19,f,1,26,2018_Dec_11_1709,MP_PerceptionTuring2,59.966697007370335,
38,resources/videos_generated\model(vcgpdm)-dataset(walking)-mode(ELBO)-parts(2)-dyn(25)-lvm(22)_final(5).mov,resources/videos_natural\training(28).mov,True,False,right,0,37,37,37,2018-12-11 17:14:03.036437,2018-12-11 17:14:06.940661,0:00:03.904224,1,right,1,0.2838747372297803,19,f,1,26,2018_Dec_11_1709,MP_PerceptionTuring2,59.966697007370335,
39,resources/videos_generated\model(vcgpdm)-dataset(walking)-mode(ELBO)-parts(2)-dyn(27)-lvm(18)_final(3).mov,resources/videos_natural\training(37).mov,False,False,right,0,38,38,38,2018-12-11 17:14:08.340741,2018-12-11 17:14:12.277966,0:00:03.937225,1,right,1,0.3005246387438092,19,f,1,26,2018_Dec_11_1709,MP_PerceptionTuring2,59.966697007370335,
40,resources/videos_generated\model(vcgpdm)-dataset(walking)-mode(ELBO)-parts(1)-dyn(23)-lvm(24)_final(7).mov,resources/videos_natural\training(9).mov,True,True,left,0,39,39,39,2018-12-11 17:14:13.696047,2018-12-11 17:14:17.565268,0:00:03.869221,1,left,1,0.3673570494938758,19,f,1,26,2018_Dec_11_1709,MP_PerceptionTuring2,59.966697007370335,
41,resources/videos_generated\model(vcgpdm)-dataset(walking)-mode(ELBO)-parts(1)-dyn(26)-lvm(22)_final(0).mov,resources/videos_natural\training(34).mov,True,False,right,0,40,40,40,2018-12-11 17:14:19.050353,2018-12-11 17:14:22.953577,0:00:03.903224,1,right,1,0.46731729500970687,19,f,1,26,2018_Dec_11_1709,MP_PerceptionTuring2,59.966697007370335,
42,resources/videos_generated\model(vcgpdm)-dataset(walking)-mode(ELBO)-parts(2)-dyn(23)-lvm(18)_final(5).mov,resources/videos_natural\training(29).mov,True,False,right,0,41,41,41,2018-12-11 17:14:24.538667,2018-12-11 17:14:28.441890,0:00:03.903223,1,right,1,0.30060053367196815,19,f,1,26,2018_Dec_11_1709,MP_PerceptionTuring2,59.966697007370335,
43,resources/videos_generated\model(vcgpdm)-dataset(walking)-mode(ELBO)-parts(2)-dyn(28)-lvm(17)_final(9).mov,resources/videos_natural\training(28).mov,False,False,right,0,42,42,42,2018-12-11 17:14:29.859972,2018-12-11 17:14:33.779196,0:00:03.919224,1,right,1,0.23392021395193296,19,f,1,26,2018_Dec_11_1709,MP_PerceptionTuring2,59.966697007370335,
44,resources/videos_generated\model(vcgpdm)-dataset(walking)-mode(ELBO)-parts(2)-dyn(25)-lvm(20)_final(1).mov,resources/videos_natural\training(15).mov,True,True,left,0,43,43,43,2018-12-11 17:14:35.131273,2018-12-11 17:14:39.034496,0:00:03.903223,1,left,1,0.6509637451126764,19,f,1,26,2018_Dec_11_1709,MP_PerceptionTuring2,59.966697007370335,
45,resources/videos_generated\model(vcgpdm)-dataset(walking)-mode(ELBO)-parts(2)-dyn(26)-lvm(23)_final(7).mov,resources/videos_natural\training(42).mov,True,False,right,0,44,44,44,2018-12-11 17:14:40.802597,2018-12-11 17:14:44.688820,0:00:03.886223,1,right,1,0.3838756407421897,19,f,1,26,2018_Dec_11_1709,MP_PerceptionTuring2,59.966697007370335,
46,resources/videos_generated\model(dmp)-dataset(walking)-npsi(50)_final(4).mov,resources/videos_natural\training(26).mov,True,False,right,0,45,45,45,2018-12-11 17:15:19.285799,2018-12-11 17:15:23.222024,0:00:03.936225,2,left,0,0.3338714243545837,19,f,1,26,2018_Dec_11_1709,MP_PerceptionTuring2,59.966697007370335,
47,resources/videos_generated\model(vcgpdm)-dataset(walking)-mode(ELBO)-parts(2)-dyn(22)-lvm(19)_final(1).mov,resources/videos_natural\training(34).mov,False,False,right,0,46,46,46,2018-12-11 17:15:24.674107,2018-12-11 17:15:28.544328,0:00:03.870221,2,right,1,0.3172483269991062,19,f,1,26,2018_Dec_11_1709,MP_PerceptionTuring2,59.966697007370335,
48,resources/videos_generated\model(vcgpdm)-dataset(walking)-mode(ELBO)-parts(1)-dyn(27)-lvm(26)_final(5).mov,resources/videos_natural\training(38).mov,False,True,left,0,47,47,47,2018-12-11 17:15:29.978410,2018-12-11 17:15:33.881633,0:00:03.903223,2,left,1,0.36751185105458717,19,f,1,26,2018_Dec_11_1709,MP_PerceptionTuring2,59.966697007370335,
49,resources/videos_generated\model(tmp)-dataset(walking)-numprim(13)_final(6).mov,resources/videos_natural\training(26).mov,False,True,left,0,48,48,48,2018-12-11 17:15:35.365718,2018-12-11 17:15:39.302943,0:00:03.937225,2,left,1,0.26731729500897927,19,f,1,26,2018_Dec_11_1709,MP_PerceptionTuring2,59.966697007370335,
50,resources/videos_generated\model(vcgpdm)-dataset(walking)-mode(ELBO)-parts(1)-dyn(22)-lvm(27)_final(0)_hip-correted.mov,resources/videos_natural\training(13).mov,True,False,right,0,49,49,49,2018-12-11 17:15:40.688023,2018-12-11 17:15:44.591246,0:00:03.903223,2,left,0,0.5173338593776862,19,f,1,26,2018_Dec_11_1709,MP_PerceptionTuring2,59.966697007370335,
51,resources/videos_generated\model(tmp)-dataset(walking)-numprim(14)_final(0).mov,resources/videos_natural\training(15).mov,True,True,left,0,50,50,50,2018-12-11 17:15:46.225339,2018-12-11 17:15:50.162565,0:00:03.937226,2,right,0,0.2673145844746614,19,f,1,26,2018_Dec_11_1709,MP_PerceptionTuring2,59.966697007370335,
52,resources/videos_generated\model(vcgpdm)-dataset(walking)-mode(ELBO)-parts(2)-dyn(27)-lvm(22)_final(1).mov,resources/videos_natural\training(41).mov,True,False,right,0,51,51,51,2018-12-11 17:15:51.546644,2018-12-11 17:15:55.450867,0:00:03.904223,2,right,1,0.2838060703907104,19,f,1,26,2018_Dec_11_1709,MP_PerceptionTuring2,59.966697007370335,
53,resources/videos_generated\model(dmp)-dataset(walking)-npsi(70)_final(8).mov,resources/videos_natural\training(34).mov,True,True,left,0,52,52,52,2018-12-11 17:15:56.851947,2018-12-11 17:16:00.755170,0:00:03.903223,2,left,1,0.2504216384841129,19,f,1,26,2018_Dec_11_1709,MP_PerceptionTuring2,59.966697007370335,
54,resources/videos_generated\model(vcgpdm)-dataset(walking)-mode(ELBO)-parts(2)-dyn(26)-lvm(21)_final(5).mov,resources/videos_natural\training(25).mov,False,True,left,0,53,53,53,2018-12-11 17:16:02.123249,2018-12-11 17:16:06.109477,0:00:03.986228,2,left,1,0.18377896505990066,19,f,1,26,2018_Dec_11_1709,MP_PerceptionTuring2,59.966697007370335,
55,resources/videos_generated\model(dmp)-dataset(walking)-npsi(50)_final(8).mov,resources/videos_natural\training(23).mov,False,True,left,0,54,54,54,2018-12-11 17:16:07.410551,2018-12-11 17:16:11.330775,0:00:03.920224,2,left,1,0.28366120745340595,19,f,1,26,2018_Dec_11_1709,MP_PerceptionTuring2,59.966697007370335,
56,resources/videos_generated\model(vcgpdm)-dataset(walking)-mode(ELBO)-parts(2)-dyn(25)-lvm(20)_final(7).mov,resources/videos_natural\training(41).mov,True,False,right,0,55,55,55,2018-12-11 17:16:12.731855,2018-12-11 17:16:16.619078,0:00:03.887223,2,right,1,0.5005692119593732,19,f,1,26,2018_Dec_11_1709,MP_PerceptionTuring2,59.966697007370335,
57,resources/videos_generated\model(vcgpdm)-dataset(walking)-mode(ELBO)-parts(1)-dyn(23)-lvm(24)_final(5).mov,resources/videos_natural\training(10).mov,False,True,left,0,56,56,56,2018-12-11 17:16:18.237170,2018-12-11 17:16:22.173395,0:00:03.936225,2,left,1,0.33398225504060974,19,f,1,26,2018_Dec_11_1709,MP_PerceptionTuring2,59.966697007370335,
58,resources/videos_generated\model(vcgpdm)-dataset(walking)-mode(ELBO)-parts(2)-dyn(25)-lvm(18)_final(9).mov,resources/videos_natural\training(22).mov,True,True,left,0,57,57,57,2018-12-11 17:16:23.624478,2018-12-11 17:16:27.527702,0:00:03.903224,2,left,1,0.6341671736372518,19,f,1,26,2018_Dec_11_1709,MP_PerceptionTuring2,59.966697007370335,
59,resources/videos_generated\model(tmp)-dataset(walking)-numprim(15)_final(8).mov,resources/videos_natural\training(3).mov,True,True,left,0,58,58,58,2018-12-11 17:16:29.279802,2018-12-11 17:16:33.216027,0:00:03.936225,2,left,1,0.5006884754147904,19,f,1,26,2018_Dec_11_1709,MP_PerceptionTuring2,59.966697007370335,
60,resources/videos_generated\model(vcgpdm)-dataset(walking)-mode(ELBO)-parts(2)-dyn(23)-lvm(22)_final(9).mov,resources/videos_natural\training(6).mov,True,True,left,0,59,59,59,2018-12-11 17:16:34.834120,2018-12-11 17:16:38.754344,0:00:03.920224,2,left,1,0.6174886609369423,19,f,1,26,2018_Dec_11_1709,MP_PerceptionTuring2,59.966697007370335,
61,resources/videos_generated\model(vcgpdm)-dataset(walking)-mode(ELBO)-parts(2)-dyn(24)-lvm(19)_final(9).mov,resources/videos_natural\training(45).mov,True,False,right,0,60,60,60,2018-12-11 17:16:40.489443,2018-12-11 17:16:44.375665,0:00:03.886222,2,right,1,0.283865702120238,19,f,1,26,2018_Dec_11_1709,MP_PerceptionTuring2,59.966697007370335,
62,resources/videos_generated\model(vcgpdm)-dataset(walking)-mode(ELBO)-parts(2)-dyn(27)-lvm(22)_final(3).mov,resources/videos_natural\training(1).mov,False,True,left,0,61,61,61,2018-12-11 17:16:45.776746,2018-12-11 17:16:49.680969,0:00:03.904223,2,left,1,0.28388618170356494,19,f,1,26,2018_Dec_11_1709,MP_PerceptionTuring2,59.966697007370335,
63,resources/videos_generated\model(dmp)-dataset(walking)-npsi(60)_final(4).mov,resources/videos_natural\training(4).mov,False,True,left,0,62,62,62,2018-12-11 17:16:51.082049,2018-12-11 17:16:54.968271,0:00:03.886222,2,left,1,0.3171748414315516,19,f,1,26,2018_Dec_11_1709,MP_PerceptionTuring2,59.966697007370335,
64,resources/videos_generated\model(vcgpdm)-dataset(walking)-mode(ELBO)-parts(1)-dyn(28)-lvm(27)_final(3).mov,resources/videos_natural\training(26).mov,False,True,left,0,63,63,63,2018-12-11 17:16:56.403353,2018-12-11 17:17:00.306577,0:00:03.903224,2,left,1,0.3005107849094202,19,f,1,26,2018_Dec_11_1709,MP_PerceptionTuring2,59.966697007370335,
65,resources/videos_generated\model(vcgpdm)-dataset(walking)-mode(ELBO)-parts(2)-dyn(23)-lvm(18)_final(1).mov,resources/videos_natural\training(21).mov,False,True,left,0,64,64,64,2018-12-11 17:17:01.724658,2018-12-11 17:17:05.610880,0:00:03.886222,2,left,1,0.28379071070230566,19,f,1,26,2018_Dec_11_1709,MP_PerceptionTuring2,59.966697007370335,
66,resources/videos_generated\model(dmp)-dataset(walking)-npsi(100)_final(8).mov,resources/videos_natural\training(43).mov,False,True,left,0,65,65,65,2018-12-11 17:17:07.011960,2018-12-11 17:17:10.932184,0:00:03.920224,2,left,1,0.2671209319414629,19,f,1,26,2018_Dec_11_1709,MP_PerceptionTuring2,59.966697007370335,
67,resources/videos_generated\model(vcgpdm)-dataset(walking)-mode(ELBO)-parts(2)-dyn(27)-lvm(22)_final(5).mov,resources/videos_natural\training(6).mov,False,True,left,0,66,66,66,2018-12-11 17:17:12.317264,2018-12-11 17:17:16.270490,0:00:03.953226,2,left,1,0.26708810437412467,19,f,1,26,2018_Dec_11_1709,MP_PerceptionTuring2,59.966697007370335,
68,resources/videos_generated\model(tmp)-dataset(walking)-numprim(11)_final(6).mov,resources/videos_natural\training(0).mov,False,False,right,0,67,67,67,2018-12-11 17:17:17.654569,2018-12-11 17:17:21.574793,0:00:03.920224,2,left,0,0.3172115842171479,19,f,1,26,2018_Dec_11_1709,MP_PerceptionTuring2,59.966697007370335,
69,resources/videos_generated\model(vcgpdm)-dataset(walking)-mode(ELBO)-parts(2)-dyn(25)-lvm(20)_final(9).mov,resources/videos_natural\training(20).mov,False,False,right,0,68,68,68,2018-12-11 17:17:23.009875,2018-12-11 17:17:26.963101,0:00:03.953226,2,right,1,0.33382233358861413,19,f,1,26,2018_Dec_11_1709,MP_PerceptionTuring2,59.966697007370335,
70,resources/videos_generated\model(vcgpdm)-dataset(walking)-mode(ELBO)-parts(1)-dyn(27)-lvm(24)_final(9).mov,resources/videos_natural\training(16).mov,True,False,right,0,69,69,69,2018-12-11 17:17:28.414184,2018-12-11 17:17:32.334408,0:00:03.920224,2,right,1,0.26710105469828704,19,f,1,26,2018_Dec_11_1709,MP_PerceptionTuring2,59.966697007370335,
71,resources/videos_generated\model(vcgpdm)-dataset(walking)-mode(ELBO)-parts(1)-dyn(23)-lvm(28)_final(0).mov,resources/videos_natural\training(10).mov,True,False,right,0,70,70,70,2018-12-11 17:17:33.718488,2018-12-11 17:17:37.655713,0:00:03.937225,2,left,0,0.0002535854328016285,19,f,1,26,2018_Dec_11_1709,MP_PerceptionTuring2,59.966697007370335,
72,resources/videos_generated\model(vcgpdm)-dataset(walking)-mode(ELBO)-parts(1)-dyn(23)-lvm(22)_final(7).mov,resources/videos_natural\training(47).mov,False,False,right,0,71,71,71,2018-12-11 17:17:38.772777,2018-12-11 17:17:42.693001,0:00:03.920224,2,right,1,0.28384040380842634,19,f,1,26,2018_Dec_11_1709,MP_PerceptionTuring2,59.966697007370335,
73,resources/videos_generated\model(vcgpdm)-dataset(walking)-mode(ELBO)-parts(1)-dyn(23)-lvm(24)_final(9).mov,resources/videos_natural\training(25).mov,False,False,right,0,72,72,72,2018-12-11 17:17:44.094081,2018-12-11 17:17:48.014305,0:00:03.920224,2,right,1,0.2671242448159319,19,f,1,26,2018_Dec_11_1709,MP_PerceptionTuring2,59.966697007370335,
74,resources/videos_generated\model(vcgpdm)-dataset(walking)-mode(ELBO)-parts(1)-dyn(23)-lvm(27)_final(2).mov,resources/videos_natural\training(1).mov,True,True,left,0,73,73,73,2018-12-11 17:17:49.398384,2018-12-11 17:17:53.318609,0:00:03.920225,2,left,1,0.25050084628674085,19,f,1,26,2018_Dec_11_1709,MP_PerceptionTuring2,59.966697007370335,
75,resources/videos_generated\model(vcgpdm)-dataset(walking)-mode(ELBO)-parts(2)-dyn(22)-lvm(17)_final(5).mov,resources/videos_natural\training(43).mov,False,True,left,0,74,74,74,2018-12-11 17:17:54.686687,2018-12-11 17:17:58.623912,0:00:03.937225,2,left,1,0.3838331757215201,19,f,1,26,2018_Dec_11_1709,MP_PerceptionTuring2,59.966697007370335,
76,resources/videos_generated\model(vcgpdm)-dataset(walking)-mode(ELBO)-parts(2)-dyn(28)-lvm(19)_final(1).mov,resources/videos_natural\training(2).mov,True,True,left,0,75,75,75,2018-12-11 17:18:00.124998,2018-12-11 17:18:04.028221,0:00:03.903223,2,right,0,0.5008221950520237,19,f,1,26,2018_Dec_11_1709,MP_PerceptionTuring2,59.966697007370335,
77,resources/videos_generated\model(vcgpdm)-dataset(walking)-mode(ELBO)-parts(1)-dyn(23)-lvm(24)_final(3).mov,resources/videos_natural\training(9).mov,False,False,right,0,76,76,76,2018-12-11 17:18:05.646314,2018-12-11 17:18:09.566538,0:00:03.920224,2,right,1,0.23384522253400064,19,f,1,26,2018_Dec_11_1709,MP_PerceptionTuring2,59.966697007370335,
78,resources/videos_generated\model(tmp)-dataset(walking)-numprim(14)_final(6).mov,resources/videos_natural\training(20).mov,True,False,right,0,77,77,77,2018-12-11 17:18:10.917615,2018-12-11 17:18:14.870841,0:00:03.953226,2,left,0,0.30055144290599856,19,f,1,26,2018_Dec_11_1709,MP_PerceptionTuring2,59.966697007370335,
79,resources/videos_generated\model(vcgpdm)-dataset(walking)-mode(ELBO)-parts(2)-dyn(25)-lvm(18)_final(1).mov,resources/videos_natural\training(24).mov,True,False,right,0,78,78,78,2018-12-11 17:18:16.288923,2018-12-11 17:18:20.159144,0:00:03.870221,2,right,1,0.35067191104462836,19,f,1,26,2018_Dec_11_1709,MP_PerceptionTuring2,59.966697007370335,
80,resources/videos_generated\model(vcgpdm)-dataset(walking)-mode(ELBO)-parts(2)-dyn(27)-lvm(20)_final(1).mov,resources/videos_natural\training(37).mov,True,True,left,0,79,79,79,2018-12-11 17:18:21.627228,2018-12-11 17:18:25.546452,0:00:03.919224,2,left,1,0.31720495846820995,19,f,1,26,2018_Dec_11_1709,MP_PerceptionTuring2,59.966697007370335,
81,resources/videos_generated\model(vcgpdm)-dataset(walking)-mode(ELBO)-parts(1)-dyn(27)-lvm(28)_final(1).mov,resources/videos_natural\training(27).mov,True,False,right,0,80,80,80,2018-12-11 17:18:26.981534,2018-12-11 17:18:30.901758,0:00:03.920224,2,left,0,0.3339060589460132,19,f,1,26,2018_Dec_11_1709,MP_PerceptionTuring2,59.966697007370335,
82,resources/videos_generated\model(vcgpdm)-dataset(walking)-mode(ELBO)-parts(2)-dyn(27)-lvm(20)_final(7).mov,resources/videos_natural\training(30).mov,True,False,right,0,81,81,81,2018-12-11 17:18:32.352841,2018-12-11 17:18:36.239064,0:00:03.886223,2,right,1,0.31716701100594946,19,f,1,26,2018_Dec_11_1709,MP_PerceptionTuring2,59.966697007370335,
83,resources/videos_generated\model(vcgpdm)-dataset(walking)-mode(ELBO)-parts(1)-dyn(27)-lvm(22)_final(1).mov,resources/videos_natural\training(34).mov,True,False,right,0,82,82,82,2018-12-11 17:18:37.674146,2018-12-11 17:18:41.594370,0:00:03.920224,2,right,1,0.26713629162986763,19,f,1,26,2018_Dec_11_1709,MP_PerceptionTuring2,59.966697007370335,
84,resources/videos_generated\model(vcgpdm)-dataset(walking)-mode(ELBO)-parts(2)-dyn(22)-lvm(19)_final(7).mov,resources/videos_natural\training(3).mov,False,True,left,0,83,83,83,2018-12-11 17:18:42.978449,2018-12-11 17:18:46.881672,0:00:03.903223,2,left,1,0.23381781603529816,19,f,1,26,2018_Dec_11_1709,MP_PerceptionTuring2,59.966697007370335,
85,resources/videos_generated\model(tmp)-dataset(walking)-numprim(13)_final(4).mov,resources/videos_natural\training(1).mov,True,False,right,0,84,84,84,2018-12-11 17:18:48.232750,2018-12-11 17:18:52.119972,0:00:03.887222,2,left,0,0.21715526536354446,19,f,1,26,2018_Dec_11_1709,MP_PerceptionTuring2,59.966697007370335,
86,resources/videos_generated\model(vcgpdm)-dataset(walking)-mode(ELBO)-parts(1)-dyn(27)-lvm(22)_final(3).mov,resources/videos_natural\training(45).mov,False,True,left,0,85,85,85,2018-12-11 17:18:53.454048,2018-12-11 17:18:57.374272,0:00:03.920224,2,right,0,0.6173796372677316,19,f,1,26,2018_Dec_11_1709,MP_PerceptionTuring2,59.966697007370335,
87,resources/videos_generated\model(vcgpdm)-dataset(walking)-mode(ELBO)-parts(2)-dyn(22)-lvm(23)_final(1).mov,resources/videos_natural\training(13).mov,True,False,right,0,86,86,86,2018-12-11 17:18:59.109372,2018-12-11 17:19:03.012595,0:00:03.903223,2,right,1,0.26712605183638516,19,f,1,26,2018_Dec_11_1709,MP_PerceptionTuring2,59.966697007370335,
88,resources/videos_generated\model(vcgpdm)-dataset(walking)-mode(ELBO)-parts(1)-dyn(22)-lvm(22)_final(6).mov,resources/videos_natural\training(19).mov,False,True,left,0,87,87,87,2018-12-11 17:19:04.396674,2018-12-11 17:19:08.283896,0:00:03.887222,2,left,1,0.3005490335453942,19,f,1,26,2018_Dec_11_1709,MP_PerceptionTuring2,59.966697007370335,
89,resources/videos_generated\model(vcgpdm)-dataset(walking)-mode(ELBO)-parts(2)-dyn(26)-lvm(19)_final(9).mov,resources/videos_natural\training(10).mov,True,False,right,0,88,88,88,2018-12-11 17:19:09.701978,2018-12-11 17:19:13.622202,0:00:03.920224,2,left,0,0.3338256464630831,19,f,1,26,2018_Dec_11_1709,MP_PerceptionTuring2,59.966697007370335,
90,resources/videos_generated\model(vcgpdm)-dataset(walking)-mode(ELBO)-parts(1)-dyn(23)-lvm(28)_final(8).mov,resources/videos_natural\training(39).mov,True,True,left,0,89,89,89,2018-12-11 17:19:15.073285,2018-12-11 17:19:18.976508,0:00:03.903223,2,left,1,0.2836422337204567,19,f,1,26,2018_Dec_11_1709,MP_PerceptionTuring2,59.966697007370335,
91,resources/videos_generated\model(vcgpdm)-dataset(walking)-mode(ELBO)-parts(2)-dyn(28)-lvm(17)_final(5).mov,resources/videos_natural\training(27).mov,True,True,left,0,90,90,90,2018-12-11 17:19:52.688436,2018-12-11 17:19:56.592660,0:00:03.904224,3,left,1,0.3671664086650708,19,f,1,26,2018_Dec_11_1709,MP_PerceptionTuring2,59.966697007370335,
92,resources/videos_generated\model(vcgpdm)-dataset(walking)-mode(ELBO)-parts(1)-dyn(22)-lvm(23)_final(0).mov,resources/videos_natural\training(48).mov,True,True,left,0,91,91,91,2018-12-11 17:19:58.076744,2018-12-11 17:20:01.979968,0:00:03.903224,3,left,1,0.483972316422296,19,f,1,26,2018_Dec_11_1709,MP_PerceptionTuring2,59.966697007370335,
93,resources/videos_generated\model(vcgpdm)-dataset(walking)-mode(ELBO)-parts(1)-dyn(28)-lvm(24)_final(2).mov,resources/videos_natural\training(31).mov,True,True,left,0,92,92,92,2018-12-11 17:20:03.582059,2018-12-11 17:20:07.501284,0:00:03.919225,3,right,0,0.5006225191064004,19,f,1,26,2018_Dec_11_1709,MP_PerceptionTuring2,59.966697007370335,
94,resources/videos_generated\model(dmp)-dataset(walking)-npsi(90)_final(4).mov,resources/videos_natural\training(25).mov,True,True,left,0,93,93,93,2018-12-11 17:20:09.120376,2018-12-11 17:20:13.023599,0:00:03.903223,3,right,0,0.3673769267370517,19,f,1,26,2018_Dec_11_1709,MP_PerceptionTuring2,59.966697007370335,
95,resources/videos_generated\model(vcgpdm)-dataset(walking)-mode(ELBO)-parts(1)-dyn(27)-lvm(28)_final(9).mov,resources/videos_natural\training(40).mov,False,True,left,0,94,94,94,2018-12-11 17:20:14.507684,2018-12-11 17:20:18.460910,0:00:03.953226,3,left,1,0.2504460332856979,19,f,1,26,2018_Dec_11_1709,MP_PerceptionTuring2,59.966697007370335,
96,resources/videos_generated\model(tmp)-dataset(walking)-numprim(15)_final(0).mov,resources/videos_natural\training(3).mov,False,False,right,0,95,95,95,2018-12-11 17:20:19.828989,2018-12-11 17:20:23.749213,0:00:03.920224,3,left,0,0.550737867350108,19,f,1,26,2018_Dec_11_1709,MP_PerceptionTuring2,59.966697007370335,
97,resources/videos_generated\model(vcgpdm)-dataset(walking)-mode(ELBO)-parts(2)-dyn(24)-lvm(17)_final(9).mov,resources/videos_natural\training(19).mov,False,False,right,0,96,96,96,2018-12-11 17:20:25.417308,2018-12-11 17:20:29.337532,0:00:03.920224,3,right,1,0.3171359904590645,19,f,1,26,2018_Dec_11_1709,MP_PerceptionTuring2,59.966697007370335,
98,resources/videos_generated\model(vcgpdm)-dataset(walking)-mode(ELBO)-parts(1)-dyn(24)-lvm(25)_final(8).mov,resources/videos_natural\training(29).mov,False,False,right,0,97,97,97,2018-12-11 17:20:30.771614,2018-12-11 17:20:34.674838,0:00:03.903224,3,right,1,0.11719261048347107,19,f,1,26,2018_Dec_11_1709,MP_PerceptionTuring2,59.966697007370335,
99,resources/videos_generated\model(vcgpdm)-dataset(walking)-mode(ELBO)-parts(1)-dyn(23)-lvm(22)_final(9)_fail.mov,resources/videos_natural\training(16).mov,False,True,left,0,98,98,98,2018-12-11 17:20:35.909908,2018-12-11 17:20:39.830133,0:00:03.920225,3,left,1,0.30087550220196135,19,f,1,26,2018_Dec_11_1709,MP_PerceptionTuring2,59.966697007370335,
100,resources/videos_generated\model(vcgpdm)-dataset(walking)-mode(ELBO)-parts(1)-dyn(23)-lvm(22)_final(3)_fail.mov,resources/videos_natural\training(21).mov,True,False,right,0,99,99,99,2018-12-11 17:20:41.247214,2018-12-11 17:20:45.151437,0:00:03.904223,3,right,1,0.40070263042434817,19,f,1,26,2018_Dec_11_1709,MP_PerceptionTuring2,59.966697007370335,
101,resources/videos_generated\model(vcgpdm)-dataset(walking)-mode(ELBO)-parts(2)-dyn(23)-lvm(20)_final(7).mov,resources/videos_natural\training(33).mov,False,True,left,0,100,100,100,2018-12-11 17:20:46.668524,2018-12-11 17:20:50.572747,0:00:03.904223,3,left,1,0.2671209319414629,19,f,1,26,2018_Dec_11_1709,MP_PerceptionTuring2,59.966697007370335,
102,resources/videos_generated\model(vcgpdm)-dataset(walking)-mode(ELBO)-parts(2)-dyn(28)-lvm(23)_final(5).mov,resources/videos_natural\training(46).mov,True,True,left,0,101,101,101,2018-12-11 17:20:51.956826,2018-12-11 17:20:55.860049,0:00:03.903223,3,left,1,0.36721459592081374,19,f,1,26,2018_Dec_11_1709,MP_PerceptionTuring2,59.966697007370335,
103,resources/videos_generated\model(vcgpdm)-dataset(walking)-mode(ELBO)-parts(1)-dyn(22)-lvm(25)_final(4).mov,resources/videos_natural\training(47).mov,True,True,left,0,102,102,102,2018-12-11 17:20:57.345134,2018-12-11 17:21:01.265359,0:00:03.920225,3,left,1,0.43385847403260414,19,f,1,26,2018_Dec_11_1709,MP_PerceptionTuring2,59.966697007370335,
104,resources/videos_generated\model(dmp)-dataset(walking)-npsi(50)_final(0).mov,resources/videos_natural\training(6).mov,False,True,left,0,103,103,103,2018-12-11 17:21:02.816447,2018-12-11 17:21:06.719671,0:00:03.903224,3,right,0,0.30042826423232327,19,f,1,26,2018_Dec_11_1709,MP_PerceptionTuring2,59.966697007370335,
105,resources/videos_generated\model(vcgpdm)-dataset(walking)-mode(ELBO)-parts(2)-dyn(27)-lvm(20)_final(5).mov,resources/videos_natural\training(37).mov,True,True,left,0,104,104,104,2018-12-11 17:21:08.137752,2018-12-11 17:21:12.040975,0:00:03.903223,3,left,1,0.3338774477633706,19,f,1,26,2018_Dec_11_1709,MP_PerceptionTuring2,59.966697007370335,
106,resources/videos_generated\model(tmp)-dataset(walking)-numprim(14)_final(4).mov,resources/videos_natural\training(21).mov,True,False,right,0,105,105,105,2018-12-11 17:21:13.492058,2018-12-11 17:21:17.412282,0:00:03.920224,3,left,0,0.46733175118424697,19,f,1,26,2018_Dec_11_1709,MP_PerceptionTuring2,59.966697007370335,
107,resources/videos_generated\model(vcgpdm)-dataset(walking)-mode(ELBO)-parts(1)-dyn(26)-lvm(25)_final(3).mov,resources/videos_natural\training(4).mov,True,True,left,0,106,106,106,2018-12-11 17:21:18.996373,2018-12-11 17:21:22.900596,0:00:03.904223,3,left,1,0.3172468211487285,19,f,1,26,2018_Dec_11_1709,MP_PerceptionTuring2,59.966697007370335,
108,resources/videos_generated\model(vcgpdm)-dataset(walking)-mode(ELBO)-parts(2)-dyn(25)-lvm(22)_final(7).mov,resources/videos_natural\training(20).mov,False,False,right,0,107,107,107,2018-12-11 17:21:24.334678,2018-12-11 17:21:28.254902,0:00:03.920224,3,right,1,0.4006487209298939,19,f,1,26,2018_Dec_11_1709,MP_PerceptionTuring2,59.966697007370335,
109,resources/videos_generated\model(vcgpdm)-dataset(walking)-mode(ELBO)-parts(1)-dyn(26)-lvm(23)_final(9).mov,resources/videos_natural\training(6).mov,True,False,right,0,108,108,108,2018-12-11 17:21:29.772989,2018-12-11 17:21:33.693213,0:00:03.920224,3,right,1,0.3337527632356796,19,f,1,26,2018_Dec_11_1709,MP_PerceptionTuring2,59.966697007370335,
110,resources/videos_generated\model(vcgpdm)-dataset(walking)-mode(ELBO)-parts(1)-dyn(22)-lvm(25)_final(2).mov,resources/videos_natural\training(5).mov,True,False,right,0,109,109,109,2018-12-11 17:21:35.144296,2018-12-11 17:21:39.047520,0:00:03.903224,3,right,1,0.38383769327629125,19,f,1,26,2018_Dec_11_1709,MP_PerceptionTuring2,59.966697007370335,
111,resources/videos_generated\model(vcgpdm)-dataset(walking)-mode(ELBO)-parts(1)-dyn(26)-lvm(27)_final(1).mov,resources/videos_natural\training(48).mov,True,True,left,0,110,110,110,2018-12-11 17:21:40.548606,2018-12-11 17:21:44.468830,0:00:03.920224,3,left,1,0.317278142862051,19,f,1,26,2018_Dec_11_1709,MP_PerceptionTuring2,59.966697007370335,
112,resources/videos_generated\model(vcgpdm)-dataset(walking)-mode(ELBO)-parts(1)-dyn(27)-lvm(22)_final(7).mov,resources/videos_natural\training(17).mov,False,False,right,0,111,111,111,2018-12-11 17:21:45.903912,2018-12-11 17:21:49.807135,0:00:03.903223,3,left,0,0.2504887994764431,19,f,1,26,2018_Dec_11_1709,MP_PerceptionTuring2,59.966697007370335,
113,resources/videos_generated\model(vcgpdm)-dataset(walking)-mode(ELBO)-parts(2)-dyn(28)-lvm(19)_final(3).mov,resources/videos_natural\training(3).mov,True,False,right,0,112,112,112,2018-12-11 17:21:51.175213,2018-12-11 17:21:55.078437,0:00:03.903224,3,right,1,0.28372987429247587,19,f,1,26,2018_Dec_11_1709,MP_PerceptionTuring2,59.966697007370335,
114,resources/videos_generated\model(vcgpdm)-dataset(walking)-mode(ELBO)-parts(1)-dyn(22)-lvm(23)_final(4)_fail.mov,resources/videos_natural\training(13).mov,False,True,left,0,113,113,113,2018-12-11 17:21:56.479517,2018-12-11 17:22:00.415742,0:00:03.936225,3,left,1,0.3506652852956904,19,f,1,26,2018_Dec_11_1709,MP_PerceptionTuring2,59.966697007370335,
115,resources/videos_generated\model(vcgpdm)-dataset(walking)-mode(ELBO)-parts(1)-dyn(27)-lvm(24)_final(5).mov,resources/videos_natural\training(1).mov,False,True,left,0,114,114,114,2018-12-11 17:22:01.883826,2018-12-11 17:22:05.804050,0:00:03.920224,3,left,1,0.3504978345845302,19,f,1,26,2018_Dec_11_1709,MP_PerceptionTuring2,59.966697007370335,
116,resources/videos_generated\model(vcgpdm)-dataset(walking)-mode(ELBO)-parts(1)-dyn(22)-lvm(27)_final(6)_fail.mov,resources/videos_natural\training(22).mov,True,True,left,0,115,115,115,2018-12-11 17:22:07.272134,2018-12-11 17:22:11.192358,0:00:03.920224,3,left,1,0.3005186153386603,19,f,1,26,2018_Dec_11_1709,MP_PerceptionTuring2,59.966697007370335,
117,resources/videos_generated\model(vcgpdm)-dataset(walking)-mode(ELBO)-parts(2)-dyn(27)-lvm(20)_final(3).mov,resources/videos_natural\training(18).mov,False,True,left,0,116,116,116,2018-12-11 17:22:12.609439,2018-12-11 17:22:16.496662,0:00:03.887223,3,left,1,0.3173528331099078,19,f,1,26,2018_Dec_11_1709,MP_PerceptionTuring2,59.966697007370335,
118,resources/videos_generated\model(vcgpdm)-dataset(walking)-mode(ELBO)-parts(1)-dyn(27)-lvm(26)_final(3).mov,resources/videos_natural\training(9).mov,False,False,right,0,117,117,117,2018-12-11 17:22:17.930744,2018-12-11 17:22:21.850968,0:00:03.920224,3,right,1,0.534007553353149,19,f,1,26,2018_Dec_11_1709,MP_PerceptionTuring2,59.966697007370335,
119,resources/videos_generated\model(vcgpdm)-dataset(walking)-mode(ELBO)-parts(1)-dyn(25)-lvm(24)_final(9).mov,resources/videos_natural\training(48).mov,True,True,left,0,118,118,118,2018-12-11 17:22:23.502062,2018-12-11 17:22:27.389285,0:00:03.887223,3,right,0,0.5841195887223876,19,f,1,26,2018_Dec_11_1709,MP_PerceptionTuring2,59.966697007370335,
120,resources/videos_generated\model(vcgpdm)-dataset(walking)-mode(ELBO)-parts(1)-dyn(27)-lvm(24)_final(7).mov,resources/videos_natural\training(4).mov,True,True,left,0,119,119,119,2018-12-11 17:22:29.090382,2018-12-11 17:22:32.994605,0:00:03.904223,3,left,1,0.33386118456473923,19,f,1,26,2018_Dec_11_1709,MP_PerceptionTuring2,59.966697007370335,
121,resources/videos_generated\model(vcgpdm)-dataset(walking)-mode(ELBO)-parts(1)-dyn(27)-lvm(26)_final(1).mov,resources/videos_natural\training(40).mov,True,True,left,0,120,120,120,2018-12-11 17:22:34.445688,2018-12-11 17:22:38.315910,0:00:03.870222,3,left,1,0.4339461146009853,19,f,1,26,2018_Dec_11_1709,MP_PerceptionTuring2,59.966697007370335,
122,resources/videos_generated\model(vcgpdm)-dataset(walking)-mode(ELBO)-parts(2)-dyn(26)-lvm(23)_final(9).mov,resources/videos_natural\training(33).mov,True,False,right,0,121,121,121,2018-12-11 17:22:39.866998,2018-12-11 17:22:43.753221,0:00:03.886223,3,right,1,0.26716701100667706,19,f,1,26,2018_Dec_11_1709,MP_PerceptionTuring2,59.966697007370335,
123,resources/videos_generated\model(vcgpdm)-dataset(walking)-mode(ELBO)-parts(2)-dyn(28)-lvm(17)_final(3).mov,resources/videos_natural\training(30).mov,True,False,right,0,122,122,122,2018-12-11 17:22:45.138300,2018-12-11 17:22:49.041523,0:00:03.903223,3,right,1,0.3004722351070086,19,f,1,26,2018_Dec_11_1709,MP_PerceptionTuring2,59.966697007370335,
124,resources/videos_generated\model(vcgpdm)-dataset(walking)-mode(ELBO)-parts(2)-dyn(28)-lvm(23)_final(1).mov,resources/videos_natural\training(47).mov,True,True,left,0,123,123,123,2018-12-11 17:22:50.459604,2018-12-11 17:22:54.362827,0:00:03.903223,3,left,1,0.3672874791409413,19,f,1,26,2018_Dec_11_1709,MP_PerceptionTuring2,59.966697007370335,
125,resources/videos_generated\model(vcgpdm)-dataset(walking)-mode(ELBO)-parts(2)-dyn(26)-lvm(19)_final(5).mov,resources/videos_natural\training(38).mov,False,True,left,0,124,124,124,2018-12-11 17:22:55.846912,2018-12-11 17:22:59.751136,0:00:03.904224,3,right,0,0.23375246207069722,19,f,1,26,2018_Dec_11_1709,MP_PerceptionTuring2,59.966697007370335,
126,resources/videos_generated\model(dmp)-dataset(walking)-npsi(100)_final(4).mov,resources/videos_natural\training(39).mov,True,False,right,0,125,125,125,2018-12-11 17:23:01.102213,2018-12-11 17:23:05.038438,0:00:03.936225,3,right,1,0.23375607611524174,19,f,1,26,2018_Dec_11_1709,MP_PerceptionTuring2,59.966697007370335,
127,resources/videos_generated\model(vcgpdm)-dataset(walking)-mode(ELBO)-parts(2)-dyn(25)-lvm(20)_final(3).mov,resources/videos_natural\training(40).mov,False,True,left,0,126,126,126,2018-12-11 17:23:06.389515,2018-12-11 17:23:10.309740,0:00:03.920225,3,left,1,0.48397472578290035,19,f,1,26,2018_Dec_11_1709,MP_PerceptionTuring2,59.966697007370335,
128,resources/videos_generated\model(vcgpdm)-dataset(walking)-mode(ELBO)-parts(1)-dyn(25)-lvm(22)_final(8).mov,resources/videos_natural\training(7).mov,False,True,left,0,127,127,127,2018-12-11 17:23:11.910831,2018-12-11 17:23:15.831055,0:00:03.920224,3,left,1,0.3338925062780618,19,f,1,26,2018_Dec_11_1709,MP_PerceptionTuring2,59.966697007370335,
129,resources/videos_generated\model(vcgpdm)-dataset(walking)-mode(ELBO)-parts(1)-dyn(28)-lvm(25)_final(3).mov,resources/videos_natural\training(7).mov,True,True,left,0,128,128,128,2018-12-11 17:23:17.282138,2018-12-11 17:23:21.186362,0:00:03.904224,3,left,1,0.2838801582947781,19,f,1,26,2018_Dec_11_1709,MP_PerceptionTuring2,59.966697007370335,
130,resources/videos_generated\model(vcgpdm)-dataset(walking)-mode(ELBO)-parts(1)-dyn(27)-lvm(28)_final(5).mov,resources/videos_natural\training(0).mov,False,True,left,0,129,129,129,2018-12-11 17:23:22.587442,2018-12-11 17:23:26.490665,0:00:03.903223,3,right,0,0.40063848113641143,19,f,1,26,2018_Dec_11_1709,MP_PerceptionTuring2,59.966697007370335,
131,resources/videos_generated\model(vcgpdm)-dataset(walking)-mode(ELBO)-parts(2)-dyn(25)-lvm(18)_final(3).mov,resources/videos_natural\training(27).mov,True,True,left,0,130,130,130,2018-12-11 17:23:28.008752,2018-12-11 17:23:31.961978,0:00:03.953226,3,left,1,0.5842015070593334,19,f,1,26,2018_Dec_11_1709,MP_PerceptionTuring2,59.966697007370335,
132,resources/videos_generated\model(vcgpdm)-dataset(walking)-mode(ELBO)-parts(2)-dyn(22)-lvm(19)_final(9).mov,resources/videos_natural\training(29).mov,False,True,left,0,131,131,131,2018-12-11 17:23:33.663075,2018-12-11 17:23:37.566299,0:00:03.903224,3,left,1,0.3004887994757155,19,f,1,26,2018_Dec_11_1709,MP_PerceptionTuring2,59.966697007370335,
133,resources/videos_generated\model(vcgpdm)-dataset(walking)-mode(ELBO)-parts(2)-dyn(23)-lvm(22)_final(5).mov,resources/videos_natural\training(42).mov,False,False,right,0,132,132,132,2018-12-11 17:23:38.984380,2018-12-11 17:23:42.887603,0:00:03.903223,3,right,1,0.43395816141492105,19,f,1,26,2018_Dec_11_1709,MP_PerceptionTuring2,59.966697007370335,
134,resources/videos_generated\model(dmp)-dataset(walking)-npsi(90)_final(0).mov,resources/videos_natural\training(8).mov,False,False,right,0,133,133,133,2018-12-11 17:23:44.439692,2018-12-11 17:23:48.375917,0:00:03.936225,3,right,1,0.23373921057282132,19,f,1,26,2018_Dec_11_1709,MP_PerceptionTuring2,59.966697007370335,
135,resources/videos_generated\model(vcgpdm)-dataset(walking)-mode(ELBO)-parts(1)-dyn(28)-lvm(27)_final(7).mov,resources/videos_natural\training(44).mov,True,False,right,0,134,134,134,2018-12-11 17:23:49.726994,2018-12-11 17:23:53.647218,0:00:03.920224,3,right,1,0.2838614857355424,19,f,1,26,2018_Dec_11_1709,MP_PerceptionTuring2,59.966697007370335,
136,resources/videos_generated\model(dmp)-dataset(walking)-npsi(80)_final(6).mov,resources/videos_natural\training(41).mov,True,True,left,0,135,135,135,2018-12-11 17:24:26.893120,2018-12-11 17:24:30.812344,0:00:03.919224,4,left,1,0.2673139821345103,19,f,1,26,2018_Dec_11_1709,MP_PerceptionTuring2,59.966697007370335,
137,resources/videos_generated\model(vcgpdm)-dataset(walking)-mode(ELBO)-parts(2)-dyn(24)-lvm(23)_final(3).mov,resources/videos_natural\training(38).mov,False,True,left,0,136,136,136,2018-12-11 17:24:32.197423,2018-12-11 17:24:36.117647,0:00:03.920224,4,left,1,0.2670884055442002,19,f,1,26,2018_Dec_11_1709,MP_PerceptionTuring2,59.966697007370335,
138,resources/videos_generated\model(vcgpdm)-dataset(walking)-mode(ELBO)-parts(2)-dyn(24)-lvm(21)_final(3).mov,resources/videos_natural\training(0).mov,False,False,right,0,137,137,137,2018-12-11 17:24:37.501727,2018-12-11 17:24:41.454953,0:00:03.953226,4,right,1,0.29870496750663733,19,f,1,26,2018_Dec_11_1709,MP_PerceptionTuring2,59.966697007370335,
139,resources/videos_generated\model(vcgpdm)-dataset(walking)-mode(ELBO)-parts(1)-dyn(23)-lvm(26)_final(3)_hip-corrected.mov,resources/videos_natural\training(13).mov,True,True,left,0,138,138,138,2018-12-11 17:24:42.873034,2018-12-11 17:24:46.760256,0:00:03.887222,4,left,1,0.4339551497105276,19,f,1,26,2018_Dec_11_1709,MP_PerceptionTuring2,59.966697007370335,
140,resources/videos_generated\model(vcgpdm)-dataset(walking)-mode(ELBO)-parts(1)-dyn(27)-lvm(28)_final(3).mov,resources/videos_natural\training(16).mov,True,False,right,0,139,139,139,2018-12-11 17:24:48.311345,2018-12-11 17:24:52.264571,0:00:03.953226,4,left,0,0.2670260632803547,19,f,1,26,2018_Dec_11_1709,MP_PerceptionTuring2,59.966697007370335,
141,resources/videos_generated\model(tmp)-dataset(walking)-numprim(11)_final(2).mov,resources/videos_natural\training(41).mov,True,True,left,0,140,140,140,2018-12-11 17:24:53.648650,2018-12-11 17:24:57.585875,0:00:03.937225,4,left,1,0.5840921822200471,19,f,1,26,2018_Dec_11_1709,MP_PerceptionTuring2,59.966697007370335,
142,resources/videos_generated\model(vcgpdm)-dataset(walking)-mode(ELBO)-parts(1)-dyn(27)-lvm(22)_final(9).mov,resources/videos_natural\training(19).mov,False,False,right,0,141,141,141,2018-12-11 17:24:59.286973,2018-12-11 17:25:03.174195,0:00:03.887222,4,right,1,0.3173576518383925,19,f,1,26,2018_Dec_11_1709,MP_PerceptionTuring2,59.966697007370335,
143,resources/videos_generated\model(vcgpdm)-dataset(walking)-mode(ELBO)-parts(2)-dyn(27)-lvm(20)_final(9).mov,resources/videos_natural\training(11).mov,True,False,right,0,142,142,142,2018-12-11 17:25:04.608277,2018-12-11 17:25:08.495499,0:00:03.887222,4,right,1,0.45064962443939294,19,f,1,26,2018_Dec_11_1709,MP_PerceptionTuring2,59.966697007370335,
144,resources/videos_generated\model(vcgpdm)-dataset(walking)-mode(ELBO)-parts(2)-dyn(24)-lvm(21)_final(1).mov,resources/videos_natural\training(28).mov,False,True,left,0,143,143,143,2018-12-11 17:25:10.063589,2018-12-11 17:25:13.949811,0:00:03.886222,4,right,0,0.23385365530339186,19,f,1,26,2018_Dec_11_1709,MP_PerceptionTuring2,59.966697007370335,
145,resources/videos_generated\model(vcgpdm)-dataset(walking)-mode(ELBO)-parts(2)-dyn(24)-lvm(17)_final(1).mov,resources/videos_natural\training(2).mov,False,False,right,0,144,144,144,2018-12-11 17:25:15.300889,2018-12-11 17:25:19.188111,0:00:03.887222,4,right,1,0.5174437865534856,19,f,1,26,2018_Dec_11_1709,MP_PerceptionTuring2,59.966697007370335,
146,resources/videos_generated\model(vcgpdm)-dataset(walking)-mode(ELBO)-parts(1)-dyn(25)-lvm(26)_final(0).mov,resources/videos_natural\training(33).mov,False,False,right,0,145,145,145,2018-12-11 17:25:20.822204,2018-12-11 17:25:24.742429,0:00:03.920225,4,right,1,0.3338160090097517,19,f,1,26,2018_Dec_11_1709,MP_PerceptionTuring2,59.966697007370335,
147,resources/videos_generated\model(vcgpdm)-dataset(walking)-mode(ELBO)-parts(1)-dyn(23)-lvm(26)_final(1)_hip-corrected.mov,resources/videos_natural\training(32).mov,True,False,right,0,146,146,146,2018-12-11 17:25:26.193512,2018-12-11 17:25:30.097735,0:00:03.904223,4,right,1,0.41730404351255856,19,f,1,26,2018_Dec_11_1709,MP_PerceptionTuring2,59.966697007370335,
148,resources/videos_generated\model(tmp)-dataset(walking)-numprim(11)_final(0).mov,resources/videos_natural\training(11).mov,False,True,left,0,147,147,147,2018-12-11 17:25:31.631823,2018-12-11 17:25:35.519045,0:00:03.887222,4,right,0,0.9342210831273405,19,f,1,26,2018_Dec_11_1709,MP_PerceptionTuring2,59.966697007370335,
149,resources/videos_generated\model(vcgpdm)-dataset(walking)-mode(ELBO)-parts(2)-dyn(27)-lvm(18)_final(9).mov,resources/videos_natural\training(9).mov,True,False,right,0,148,148,148,2018-12-11 17:25:37.570162,2018-12-11 17:25:41.473386,0:00:03.903224,4,right,1,0.5007333497960644,19,f,1,26,2018_Dec_11_1709,MP_PerceptionTuring2,59.966697007370335,
150,resources/videos_generated\model(vcgpdm)-dataset(walking)-mode(ELBO)-parts(1)-dyn(22)-lvm(27)_final(2)_hip-corrected.mov,resources/videos_natural\training(2).mov,False,True,left,0,149,149,149,2018-12-11 17:25:43.091478,2018-12-11 17:25:46.995701,0:00:03.904223,4,right,0,0.45062282028084155,19,f,1,26,2018_Dec_11_1709,MP_PerceptionTuring2,59.966697007370335,
151,resources/videos_generated\model(vcgpdm)-dataset(walking)-mode(ELBO)-parts(2)-dyn(22)-lvm(23)_final(5).mov,resources/videos_natural\training(14).mov,False,True,left,0,150,150,150,2018-12-11 17:25:48.563791,2018-12-11 17:25:52.450013,0:00:03.886222,4,left,1,1.151251663966832,19,f,1,26,2018_Dec_11_1709,MP_PerceptionTuring2,59.966697007370335,
152,resources/videos_generated\model(vcgpdm)-dataset(walking)-mode(ELBO)-parts(1)-dyn(26)-lvm(27)_final(7).mov,resources/videos_natural\training(8).mov,False,True,left,0,151,151,151,2018-12-11 17:25:54.718143,2018-12-11 17:25:58.605366,0:00:03.887223,4,left,1,0.3504403110491694,19,f,1,26,2018_Dec_11_1709,MP_PerceptionTuring2,59.966697007370335,
153,resources/videos_generated\model(dmp)-dataset(walking)-npsi(80)_final(0).mov,resources/videos_natural\training(40).mov,True,False,right,0,152,152,152,2018-12-11 17:26:00.073449,2018-12-11 17:26:03.976673,0:00:03.903224,4,right,1,0.367077864582825,19,f,1,26,2018_Dec_11_1709,MP_PerceptionTuring2,59.966697007370335,
154,resources/videos_generated\model(vcgpdm)-dataset(walking)-mode(ELBO)-parts(1)-dyn(23)-lvm(26)_final(7).mov,resources/videos_natural\training(2).mov,False,False,right,0,153,153,153,2018-12-11 17:26:05.460758,2018-12-11 17:26:09.397983,0:00:03.937225,4,left,0,0.28390816713726963,19,f,1,26,2018_Dec_11_1709,MP_PerceptionTuring2,59.966697007370335,
155,resources/videos_generated\model(vcgpdm)-dataset(walking)-mode(ELBO)-parts(1)-dyn(28)-lvm(23)_final(7).mov,resources/videos_natural\training(44).mov,True,False,right,0,154,154,154,2018-12-11 17:26:10.799063,2018-12-11 17:26:14.736288,0:00:03.937225,4,right,1,0.2837590878152696,19,f,1,26,2018_Dec_11_1709,MP_PerceptionTuring2,59.966697007370335,
156,resources/videos_generated\model(vcgpdm)-dataset(walking)-mode(ELBO)-parts(2)-dyn(24)-lvm(17)_final(7).mov,resources/videos_natural\training(23).mov,True,True,left,0,155,155,155,2018-12-11 17:26:16.137368,2018-12-11 17:26:20.040592,0:00:03.903224,4,left,1,0.2841361530881841,19,f,1,26,2018_Dec_11_1709,MP_PerceptionTuring2,59.966697007370335,
157,resources/videos_generated\model(tmp)-dataset(walking)-numprim(13)_final(2).mov,resources/videos_natural\training(15).mov,True,True,left,0,156,156,156,2018-12-11 17:26:21.441672,2018-12-11 17:26:25.344895,0:00:03.903223,4,left,1,0.36725133870277205,19,f,1,26,2018_Dec_11_1709,MP_PerceptionTuring2,59.966697007370335,
158,resources/videos_generated\model(vcgpdm)-dataset(walking)-mode(ELBO)-parts(2)-dyn(24)-lvm(23)_final(1).mov,resources/videos_natural\training(32).mov,False,False,right,0,157,157,157,2018-12-11 17:26:26.829980,2018-12-11 17:26:30.733203,0:00:03.903223,4,right,1,0.3506381799670635,19,f,1,26,2018_Dec_11_1709,MP_PerceptionTuring2,59.966697007370335,
159,resources/videos_generated\model(vcgpdm)-dataset(walking)-mode(ELBO)-parts(1)-dyn(25)-lvm(26)_final(6)_fail.mov,resources/videos_natural\training(0).mov,True,False,right,0,158,158,158,2018-12-11 17:26:32.201287,2018-12-11 17:26:36.087509,0:00:03.886222,4,right,1,0.4006640806182986,19,f,1,26,2018_Dec_11_1709,MP_PerceptionTuring2,59.966697007370335,
160,resources/videos_generated\model(vcgpdm)-dataset(walking)-mode(ELBO)-parts(2)-dyn(26)-lvm(19)_final(3).mov,resources/videos_natural\training(36).mov,False,True,left,0,159,159,159,2018-12-11 17:26:37.605596,2018-12-11 17:26:41.525820,0:00:03.920224,4,left,1,0.5840668839118734,19,f,1,26,2018_Dec_11_1709,MP_PerceptionTuring2,59.966697007370335,
161,resources/videos_generated\model(vcgpdm)-dataset(walking)-mode(ELBO)-parts(2)-dyn(22)-lvm(17)_final(1).mov,resources/videos_natural\training(7).mov,False,False,right,0,160,160,160,2018-12-11 17:26:43.226918,2018-12-11 17:26:47.131141,0:00:03.904223,4,right,1,0.6006836566884886,19,f,1,26,2018_Dec_11_1709,MP_PerceptionTuring2,59.966697007370335,
162,resources/videos_generated\model(dmp)-dataset(walking)-npsi(80)_final(4).mov,resources/videos_natural\training(21).mov,False,True,left,0,161,161,161,2018-12-11 17:26:48.848239,2018-12-11 17:26:52.769464,0:00:03.921225,4,left,1,0.26712816003055195,19,f,1,26,2018_Dec_11_1709,MP_PerceptionTuring2,59.966697007370335,
163,resources/videos_generated\model(dmp)-dataset(walking)-npsi(90)_final(8).mov,resources/videos_natural\training(30).mov,True,False,right,0,162,162,162,2018-12-11 17:26:54.153543,2018-12-11 17:26:58.073767,0:00:03.920224,4,right,1,0.3209030291727686,19,f,1,26,2018_Dec_11_1709,MP_PerceptionTuring2,59.966697007370335,
164,resources/videos_generated\model(vcgpdm)-dataset(walking)-mode(ELBO)-parts(1)-dyn(22)-lvm(25)_final(0).mov,resources/videos_natural\training(8).mov,True,False,right,0,163,163,163,2018-12-11 17:26:59.507849,2018-12-11 17:27:03.428073,0:00:03.920224,4,right,1,0.48415753618610324,19,f,1,26,2018_Dec_11_1709,MP_PerceptionTuring2,59.966697007370335,
165,resources/videos_generated\model(vcgpdm)-dataset(walking)-mode(ELBO)-parts(1)-dyn(24)-lvm(27)_final(8).mov,resources/videos_natural\training(42).mov,False,True,left,0,164,164,164,2018-12-11 17:27:05.029165,2018-12-11 17:27:08.966390,0:00:03.937225,4,left,1,0.2837024677901354,19,f,1,26,2018_Dec_11_1709,MP_PerceptionTuring2,59.966697007370335,
166,resources/videos_generated\model(vcgpdm)-dataset(walking)-mode(ELBO)-parts(2)-dyn(26)-lvm(21)_final(1).mov,resources/videos_natural\training(8).mov,False,False,right,0,165,165,165,2018-12-11 17:27:10.367470,2018-12-11 17:27:14.254692,0:00:03.887222,4,right,1,0.28383709093395737,19,f,1,26,2018_Dec_11_1709,MP_PerceptionTuring2,59.966697007370335,
167,resources/videos_generated\model(vcgpdm)-dataset(walking)-mode(ELBO)-parts(1)-dyn(26)-lvm(27)_final(9).mov,resources/videos_natural\training(13).mov,True,True,left,0,166,166,166,2018-12-11 17:27:15.654772,2018-12-11 17:27:19.558996,0:00:03.904224,4,left,1,0.3673459061901667,19,f,1,26,2018_Dec_11_1709,MP_PerceptionTuring2,59.966697007370335,
168,resources/videos_generated\model(vcgpdm)-dataset(walking)-mode(ELBO)-parts(1)-dyn(28)-lvm(25)_final(5).mov,resources/videos_natural\training(35).mov,False,True,left,0,167,167,167,2018-12-11 17:27:21.043081,2018-12-11 17:27:24.946304,0:00:03.903223,4,right,0,0.35051198959263274,19,f,1,26,2018_Dec_11_1709,MP_PerceptionTuring2,59.966697007370335,
169,resources/videos_generated\model(vcgpdm)-dataset(walking)-mode(ELBO)-parts(2)-dyn(23)-lvm(22)_final(3).mov,resources/videos_natural\training(32).mov,True,False,right,0,168,168,168,2018-12-11 17:27:26.414388,2018-12-11 17:27:30.317611,0:00:03.903223,4,right,1,0.41702365392120555,19,f,1,26,2018_Dec_11_1709,MP_PerceptionTuring2,59.966697007370335,
170,resources/videos_generated\model(vcgpdm)-dataset(walking)-mode(ELBO)-parts(1)-dyn(22)-lvm(23)_final(8).mov,resources/videos_natural\training(18).mov,True,True,left,0,169,169,169,2018-12-11 17:27:31.852699,2018-12-11 17:27:35.738921,0:00:03.886222,4,left,1,0.2504713315938716,19,f,1,26,2018_Dec_11_1709,MP_PerceptionTuring2,59.966697007370335,
171,resources/videos_generated\model(dmp)-dataset(walking)-npsi(70)_final(6).mov,resources/videos_natural\training(12).mov,True,True,left,0,170,170,170,2018-12-11 17:27:37.106999,2018-12-11 17:27:41.044225,0:00:03.937226,4,left,1,0.21711490853340365,19,f,1,26,2018_Dec_11_1709,MP_PerceptionTuring2,59.966697007370335,
172,resources/videos_generated\model(tmp)-dataset(walking)-numprim(11)_final(8).mov,resources/videos_natural\training(10).mov,False,True,left,0,171,171,171,2018-12-11 17:27:42.378301,2018-12-11 17:27:46.265523,0:00:03.887222,4,left,1,0.2503716442079167,19,f,1,26,2018_Dec_11_1709,MP_PerceptionTuring2,59.966697007370335,
173,resources/videos_generated\model(vcgpdm)-dataset(walking)-mode(ELBO)-parts(2)-dyn(27)-lvm(18)_final(7).mov,resources/videos_natural\training(37).mov,True,False,right,0,172,172,172,2018-12-11 17:27:47.632602,2018-12-11 17:27:51.569827,0:00:03.937225,4,left,0,0.21710617459393688,19,f,1,26,2018_Dec_11_1709,MP_PerceptionTuring2,59.966697007370335,
174,resources/videos_generated\model(vcgpdm)-dataset(walking)-mode(ELBO)-parts(1)-dyn(27)-lvm(24)_final(3).mov,resources/videos_natural\training(6).mov,False,True,left,0,173,173,173,2018-12-11 17:27:52.903903,2018-12-11 17:27:56.824127,0:00:03.920224,4,left,1,0.3337792662314314,19,f,1,26,2018_Dec_11_1709,MP_PerceptionTuring2,59.966697007370335,
175,resources/videos_generated\model(vcgpdm)-dataset(walking)-mode(ELBO)-parts(2)-dyn(28)-lvm(23)_final(7).mov,resources/videos_natural\training(27).mov,False,True,left,0,174,174,174,2018-12-11 17:27:58.275210,2018-12-11 17:28:02.178433,0:00:03.903223,4,right,0,0.31726639721819083,19,f,1,26,2018_Dec_11_1709,MP_PerceptionTuring2,59.966697007370335,
176,resources/videos_generated\model(vcgpdm)-dataset(walking)-mode(ELBO)-parts(2)-dyn(24)-lvm(19)_final(5).mov,resources/videos_natural\training(40).mov,True,True,left,0,175,175,175,2018-12-11 17:28:03.613516,2018-12-11 17:28:07.516739,0:00:03.903223,4,left,1,0.30051349544373807,19,f,1,26,2018_Dec_11_1709,MP_PerceptionTuring2,59.966697007370335,
177,resources/videos_generated\model(vcgpdm)-dataset(walking)-mode(ELBO)-parts(1)-dyn(25)-lvm(22)_final(2).mov,resources/videos_natural\training(38).mov,False,False,right,0,176,176,176,2018-12-11 17:28:08.934820,2018-12-11 17:28:12.872045,0:00:03.937225,4,right,1,0.2670344960533839,19,f,1,26,2018_Dec_11_1709,MP_PerceptionTuring2,59.966697007370335,
178,resources/videos_generated\model(dmp)-dataset(walking)-npsi(70)_final(0).mov,resources/videos_natural\training(37).mov,True,True,left,0,177,177,177,2018-12-11 17:28:14.256124,2018-12-11 17:28:18.176349,0:00:03.920225,4,left,1,0.2506134839968581,19,f,1,26,2018_Dec_11_1709,MP_PerceptionTuring2,59.966697007370335,
179,resources/videos_generated\model(vcgpdm)-dataset(walking)-mode(ELBO)-parts(2)-dyn(28)-lvm(19)_final(7).mov,resources/videos_natural\training(40).mov,True,True,left,0,178,178,178,2018-12-11 17:28:19.543427,2018-12-11 17:28:23.463651,0:00:03.920224,4,left,1,0.21707154000614537,19,f,1,26,2018_Dec_11_1709,MP_PerceptionTuring2,59.966697007370335,
180,resources/videos_generated\model(vcgpdm)-dataset(walking)-mode(ELBO)-parts(2)-dyn(25)-lvm(18)_final(5).mov,resources/videos_natural\training(7).mov,True,True,left,0,179,179,179,2018-12-11 17:28:24.798727,2018-12-11 17:28:28.718952,0:00:03.920225,4,left,1,0.35054602184027317,19,f,1,26,2018_Dec_11_1709,MP_PerceptionTuring2,59.966697007370335,
181,resources/videos_generated\model(vcgpdm)-dataset(walking)-mode(ELBO)-parts(1)-dyn(26)-lvm(23)_final(1).mov,resources/videos_natural\training(19).mov,False,True,left,0,180,180,180,2018-12-11 17:29:02.080860,2018-12-11 17:29:05.984083,0:00:03.903223,5,left,1,0.26736487992093316,19,f,1,26,2018_Dec_11_1709,MP_PerceptionTuring2,59.966697007370335,
182,resources/videos_generated\model(tmp)-dataset(walking)-numprim(12)_final(2).mov,resources/videos_natural\training(14).mov,True,True,left,0,181,181,181,2018-12-11 17:29:07.368162,2018-12-11 17:29:11.288386,0:00:03.920224,5,left,1,0.25055084056657506,19,f,1,26,2018_Dec_11_1709,MP_PerceptionTuring2,59.966697007370335,
183,resources/videos_generated\model(tmp)-dataset(walking)-numprim(14)_final(2).mov,resources/videos_natural\training(20).mov,True,False,right,0,182,182,182,2018-12-11 17:29:12.656465,2018-12-11 17:29:16.526686,0:00:03.870221,5,right,1,0.30054933471183176,19,f,1,26,2018_Dec_11_1709,MP_PerceptionTuring2,59.966697007370335,
184,resources/videos_generated\model(vcgpdm)-dataset(walking)-mode(ELBO)-parts(2)-dyn(28)-lvm(21)_final(5).mov,resources/videos_natural\training(36).mov,False,True,left,0,183,183,183,2018-12-11 17:29:17.944767,2018-12-11 17:29:21.813988,0:00:03.869221,5,left,1,0.2506104722924647,19,f,1,26,2018_Dec_11_1709,MP_PerceptionTuring2,59.966697007370335,
185,resources/videos_generated\model(vcgpdm)-dataset(walking)-mode(ELBO)-parts(1)-dyn(25)-lvm(23)_final(0).mov,resources/videos_natural\training(46).mov,True,True,left,0,184,184,184,2018-12-11 17:29:23.182067,2018-12-11 17:29:27.102291,0:00:03.920224,5,left,1,0.10044753913825843,19,f,1,26,2018_Dec_11_1709,MP_PerceptionTuring2,59.966697007370335,
186,resources/videos_generated\model(vcgpdm)-dataset(walking)-mode(ELBO)-parts(1)-dyn(26)-lvm(27)_final(3).mov,resources/videos_natural\training(0).mov,True,True,left,0,185,185,185,2018-12-11 17:29:28.320361,2018-12-11 17:29:32.223584,0:00:03.903223,5,left,1,0.23378920484901755,19,f,1,26,2018_Dec_11_1709,MP_PerceptionTuring2,59.966697007370335,
187,resources/videos_generated\model(vcgpdm)-dataset(walking)-mode(ELBO)-parts(1)-dyn(24)-lvm(25)_final(0).mov,resources/videos_natural\training(31).mov,False,False,right,0,186,186,186,2018-12-11 17:29:33.574661,2018-12-11 17:29:37.477884,0:00:03.903223,5,right,1,0.06681584637772175,19,f,1,26,2018_Dec_11_1709,MP_PerceptionTuring2,59.966697007370335,
188,resources/videos_generated\model(vcgpdm)-dataset(walking)-mode(ELBO)-parts(2)-dyn(24)-lvm(23)_final(5).mov,resources/videos_natural\training(23).mov,True,True,left,0,187,187,187,2018-12-11 17:29:38.661952,2018-12-11 17:29:42.532173,0:00:03.870221,5,left,1,0.31730133297969587,19,f,1,26,2018_Dec_11_1709,MP_PerceptionTuring2,59.966697007370335,
189,resources/videos_generated\model(vcgpdm)-dataset(walking)-mode(ELBO)-parts(2)-dyn(28)-lvm(21)_final(9).mov,resources/videos_natural\training(23).mov,True,False,right,0,188,188,188,2018-12-11 17:29:43.967255,2018-12-11 17:29:47.870479,0:00:03.903224,5,left,0,0.3672085725120269,19,f,1,26,2018_Dec_11_1709,MP_PerceptionTuring2,59.966697007370335,
190,resources/videos_generated\model(vcgpdm)-dataset(walking)-mode(ELBO)-parts(1)-dyn(26)-lvm(23)_final(3)_fail.mov,resources/videos_natural\training(19).mov,True,True,left,0,189,189,189,2018-12-11 17:29:49.354564,2018-12-11 17:29:53.274788,0:00:03.920224,5,left,1,0.6676142489741324,19,f,1,26,2018_Dec_11_1709,MP_PerceptionTuring2,59.966697007370335,
191,resources/videos_generated\model(vcgpdm)-dataset(walking)-mode(ELBO)-parts(2)-dyn(24)-lvm(21)_final(9).mov,resources/videos_natural\training(36).mov,False,False,right,0,190,190,190,2018-12-11 17:29:55.059890,2018-12-11 17:29:58.963113,0:00:03.903223,5,right,1,0.2504412145608512,19,f,1,26,2018_Dec_11_1709,MP_PerceptionTuring2,59.966697007370335,
192,resources/videos_generated\model(vcgpdm)-dataset(walking)-mode(ELBO)-parts(2)-dyn(22)-lvm(23)_final(9).mov,resources/videos_natural\training(48).mov,False,False,right,0,191,191,191,2018-12-11 17:30:00.331191,2018-12-11 17:30:04.251416,0:00:03.920225,5,right,1,0.267176949626446,19,f,1,26,2018_Dec_11_1709,MP_PerceptionTuring2,59.966697007370335,
193,resources/videos_generated\model(vcgpdm)-dataset(walking)-mode(ELBO)-parts(2)-dyn(22)-lvm(17)_final(7).mov,resources/videos_natural\training(7).mov,False,False,right,0,192,192,192,2018-12-11 17:30:05.635495,2018-12-11 17:30:09.522717,0:00:03.887222,5,right,1,0.35067823562349076,19,f,1,26,2018_Dec_11_1709,MP_PerceptionTuring2,59.966697007370335,
194,resources/videos_generated\model(vcgpdm)-dataset(walking)-mode(ELBO)-parts(2)-dyn(28)-lvm(17)_final(7).mov,resources/videos_natural\training(2).mov,False,True,left,0,193,193,193,2018-12-11 17:30:10.990801,2018-12-11 17:30:14.910025,0:00:03.919224,5,left,1,0.2671712273877347,19,f,1,26,2018_Dec_11_1709,MP_PerceptionTuring2,59.966697007370335,
195,resources/videos_generated\model(vcgpdm)-dataset(walking)-mode(ELBO)-parts(2)-dyn(23)-lvm(20)_final(9).mov,resources/videos_natural\training(10).mov,True,False,right,0,194,194,194,2018-12-11 17:30:16.295105,2018-12-11 17:30:20.215329,0:00:03.920224,5,right,1,0.48429246050000074,19,f,1,26,2018_Dec_11_1709,MP_PerceptionTuring2,59.966697007370335,
196,resources/videos_generated\model(vcgpdm)-dataset(walking)-mode(ELBO)-parts(2)-dyn(26)-lvm(19)_final(1).mov,resources/videos_natural\training(37).mov,True,False,right,0,195,195,195,2018-12-11 17:30:21.816420,2018-12-11 17:30:25.702643,0:00:03.886223,5,right,1,0.3004153139117989,19,f,1,26,2018_Dec_11_1709,MP_PerceptionTuring2,59.966697007370335,
197,resources/videos_generated\model(vcgpdm)-dataset(walking)-mode(ELBO)-parts(1)-dyn(28)-lvm(23)_final(9).mov,resources/videos_natural\training(30).mov,False,False,right,0,196,196,196,2018-12-11 17:30:27.120724,2018-12-11 17:30:31.007946,0:00:03.887222,5,right,1,0.20041983146802522,19,f,1,26,2018_Dec_11_1709,MP_PerceptionTuring2,59.966697007370335,
198,resources/videos_generated\model(dmp)-dataset(walking)-npsi(90)_final(6).mov,resources/videos_natural\training(21).mov,True,False,right,0,197,197,197,2018-12-11 17:30:32.325021,2018-12-11 17:30:36.229245,0:00:03.904224,5,left,0,0.6008706834727491,19,f,1,26,2018_Dec_11_1709,MP_PerceptionTuring2,59.966697007370335,
199,resources/videos_generated\model(tmp)-dataset(walking)-numprim(13)_final(0).mov,resources/videos_natural\training(39).mov,False,False,right,0,198,198,198,2018-12-11 17:30:37.947343,2018-12-11 17:30:41.833565,0:00:03.886222,5,left,0,0.48404128443144145,19,f,1,26,2018_Dec_11_1709,MP_PerceptionTuring2,59.966697007370335,
200,resources/videos_generated\model(vcgpdm)-dataset(walking)-mode(ELBO)-parts(1)-dyn(26)-lvm(25)_final(9).mov,resources/videos_natural\training(12).mov,True,False,right,0,199,199,199,2018-12-11 17:30:43.434657,2018-12-11 17:30:47.304878,0:00:03.870221,5,right,1,0.38396087194996653,19,f,1,26,2018_Dec_11_1709,MP_PerceptionTuring2,59.966697007370335,
201,resources/videos_generated\model(vcgpdm)-dataset(walking)-mode(ELBO)-parts(2)-dyn(22)-lvm(19)_final(3).mov,resources/videos_natural\training(39).mov,True,True,left,0,200,200,200,2018-12-11 17:30:48.805964,2018-12-11 17:30:52.710187,0:00:03.904223,5,left,1,0.33386750913996366,19,f,1,26,2018_Dec_11_1709,MP_PerceptionTuring2,59.966697007370335,
202,resources/videos_generated\model(vcgpdm)-dataset(walking)-mode(ELBO)-parts(2)-dyn(24)-lvm(23)_final(9).mov,resources/videos_natural\training(5).mov,False,True,left,0,201,201,201,2018-12-11 17:30:54.161270,2018-12-11 17:30:58.047493,0:00:03.886223,5,left,1,0.1002394304232439,19,f,1,26,2018_Dec_11_1709,MP_PerceptionTuring2,59.966697007370335,
203,resources/videos_generated\model(vcgpdm)-dataset(walking)-mode(ELBO)-parts(1)-dyn(22)-lvm(27)_final(8)_fail.mov,resources/videos_natural\training(17).mov,True,False,right,0,202,202,202,2018-12-11 17:30:59.265562,2018-12-11 17:31:03.201787,0:00:03.936225,5,right,1,0.2671332799291122,19,f,1,26,2018_Dec_11_1709,MP_PerceptionTuring2,59.966697007370335,
204,resources/videos_generated\model(vcgpdm)-dataset(walking)-mode(ELBO)-parts(2)-dyn(23)-lvm(20)_final(1).mov,resources/videos_natural\training(43).mov,False,False,right,0,203,203,203,2018-12-11 17:31:04.586867,2018-12-11 17:31:08.490090,0:00:03.903223,5,right,1,0.25044332275138004,19,f,1,26,2018_Dec_11_1709,MP_PerceptionTuring2,59.966697007370335,
205,resources/videos_generated\model(vcgpdm)-dataset(walking)-mode(ELBO)-parts(1)-dyn(25)-lvm(28)_final(2).mov,resources/videos_natural\training(17).mov,False,False,right,0,204,204,204,2018-12-11 17:31:09.858168,2018-12-11 17:31:13.794393,0:00:03.936225,5,right,1,0.3840915798791684,19,f,1,26,2018_Dec_11_1709,MP_PerceptionTuring2,59.966697007370335,
206,resources/videos_generated\model(vcgpdm)-dataset(walking)-mode(ELBO)-parts(2)-dyn(28)-lvm(23)_final(9).mov,resources/videos_natural\training(12).mov,True,True,left,0,205,205,205,2018-12-11 17:31:15.295479,2018-12-11 17:31:19.182701,0:00:03.887222,5,left,1,0.40055023822787916,19,f,1,26,2018_Dec_11_1709,MP_PerceptionTuring2,59.966697007370335,
207,resources/videos_generated\model(vcgpdm)-dataset(walking)-mode(ELBO)-parts(1)-dyn(26)-lvm(22)_final(7).mov,resources/videos_natural\training(39).mov,False,False,right,0,206,206,206,2018-12-11 17:31:20.700788,2018-12-11 17:31:24.621013,0:00:03.920225,5,right,1,0.31711430619543535,19,f,1,26,2018_Dec_11_1709,MP_PerceptionTuring2,59.966697007370335,
208,resources/videos_generated\model(vcgpdm)-dataset(walking)-mode(ELBO)-parts(1)-dyn(28)-lvm(25)_final(7).mov,resources/videos_natural\training(28).mov,False,True,left,0,207,207,207,2018-12-11 17:31:26.055095,2018-12-11 17:31:29.942317,0:00:03.887222,5,right,0,0.2670911160748801,19,f,1,26,2018_Dec_11_1709,MP_PerceptionTuring2,59.966697007370335,
209,resources/videos_generated\model(vcgpdm)-dataset(walking)-mode(ELBO)-parts(2)-dyn(22)-lvm(23)_final(3).mov,resources/videos_natural\training(32).mov,True,False,right,0,208,208,208,2018-12-11 17:31:31.326396,2018-12-11 17:31:35.229619,0:00:03.903223,5,right,1,0.31719953740321216,19,f,1,26,2018_Dec_11_1709,MP_PerceptionTuring2,59.966697007370335,
210,resources/videos_generated\model(dmp)-dataset(walking)-npsi(80)_final(2).mov,resources/videos_natural\training(17).mov,False,False,right,0,209,209,209,2018-12-11 17:31:36.664701,2018-12-11 17:31:40.600927,0:00:03.936226,5,left,0,0.2504824748975807,19,f,1,26,2018_Dec_11_1709,MP_PerceptionTuring2,59.966697007370335,
211,resources/videos_generated\model(vcgpdm)-dataset(walking)-mode(ELBO)-parts(1)-dyn(28)-lvm(27)_final(5).mov,resources/videos_natural\training(4).mov,True,False,right,0,210,210,210,2018-12-11 17:31:41.969005,2018-12-11 17:31:45.855227,0:00:03.886222,5,right,1,0.3672968154241971,19,f,1,26,2018_Dec_11_1709,MP_PerceptionTuring2,59.966697007370335,
212,resources/videos_generated\model(vcgpdm)-dataset(walking)-mode(ELBO)-parts(2)-dyn(26)-lvm(21)_final(7).mov,resources/videos_natural\training(14).mov,False,True,left,0,211,211,211,2018-12-11 17:31:47.340312,2018-12-11 17:31:51.210533,0:00:03.870221,5,left,1,0.41733084767474793,19,f,1,26,2018_Dec_11_1709,MP_PerceptionTuring2,59.966697007370335,
213,resources/videos_generated\model(vcgpdm)-dataset(walking)-mode(ELBO)-parts(2)-dyn(25)-lvm(22)_final(9).mov,resources/videos_natural\training(3).mov,False,True,left,0,212,212,212,2018-12-11 17:31:52.744621,2018-12-11 17:31:56.698847,0:00:03.954226,5,left,1,0.2670859961799579,19,f,1,26,2018_Dec_11_1709,MP_PerceptionTuring2,59.966697007370335,
214,resources/videos_generated\model(vcgpdm)-dataset(walking)-mode(ELBO)-parts(2)-dyn(26)-lvm(23)_final(1).mov,resources/videos_natural\training(2).mov,False,True,left,0,213,213,213,2018-12-11 17:31:58.082926,2018-12-11 17:32:01.986150,0:00:03.903224,5,left,1,0.017079972774808994,19,f,1,26,2018_Dec_11_1709,MP_PerceptionTuring2,59.966697007370335,
215,resources/videos_generated\model(vcgpdm)-dataset(walking)-mode(ELBO)-parts(2)-dyn(24)-lvm(19)_final(3).mov,resources/videos_natural\training(23).mov,False,False,right,0,214,214,214,2018-12-11 17:32:03.120215,2018-12-11 17:32:07.007437,0:00:03.887222,5,right,1,0.26711340268229833,19,f,1,26,2018_Dec_11_1709,MP_PerceptionTuring2,59.966697007370335,
216,resources/videos_generated\model(vcgpdm)-dataset(walking)-mode(ELBO)-parts(1)-dyn(25)-lvm(24)_final(3).mov,resources/videos_natural\training(21).mov,True,False,right,0,215,215,215,2018-12-11 17:32:08.391516,2018-12-11 17:32:12.294739,0:00:03.903223,5,right,1,0.2838428131726687,19,f,1,26,2018_Dec_11_1709,MP_PerceptionTuring2,59.966697007370335,
217,resources/videos_generated\model(vcgpdm)-dataset(walking)-mode(ELBO)-parts(1)-dyn(25)-lvm(28)_final(8).mov,resources/videos_natural\training(25).mov,False,True,left,0,216,216,216,2018-12-11 17:32:13.695819,2018-12-11 17:32:17.600043,0:00:03.904224,5,left,1,0.28397050939747714,19,f,1,26,2018_Dec_11_1709,MP_PerceptionTuring2,59.966697007370335,
218,resources/videos_generated\model(dmp)-dataset(walking)-npsi(100)_final(0).mov,resources/videos_natural\training(40).mov,False,True,left,0,217,217,217,2018-12-11 17:32:19.001123,2018-12-11 17:32:22.904346,0:00:03.903223,5,left,1,0.2505761388783867,19,f,1,26,2018_Dec_11_1709,MP_PerceptionTuring2,59.966697007370335,
219,resources/videos_generated\model(vcgpdm)-dataset(walking)-mode(ELBO)-parts(1)-dyn(23)-lvm(24)_final(1).mov,resources/videos_natural\training(4).mov,True,True,left,0,218,218,218,2018-12-11 17:32:24.272424,2018-12-11 17:32:28.192649,0:00:03.920225,5,left,1,0.20041260337893618,19,f,1,26,2018_Dec_11_1709,MP_PerceptionTuring2,59.966697007370335,
220,resources/videos_generated\model(dmp)-dataset(walking)-npsi(60)_final(6).mov,resources/videos_natural\training(3).mov,True,False,right,0,219,219,219,2018-12-11 17:32:29.509724,2018-12-11 17:32:33.413947,0:00:03.904223,5,left,0,0.334008456862648,19,f,1,26,2018_Dec_11_1709,MP_PerceptionTuring2,59.966697007370335,
221,resources/videos_generated\model(vcgpdm)-dataset(walking)-mode(ELBO)-parts(1)-dyn(25)-lvm(25)_final(2).mov,resources/videos_natural\training(14).mov,False,True,left,0,220,220,220,2018-12-11 17:32:34.865030,2018-12-11 17:32:38.784254,0:00:03.919224,5,left,1,0.28395665556308813,19,f,1,26,2018_Dec_11_1709,MP_PerceptionTuring2,59.966697007370335,
222,resources/videos_generated\model(vcgpdm)-dataset(walking)-mode(ELBO)-parts(1)-dyn(24)-lvm(23)_final(8).mov,resources/videos_natural\training(44).mov,False,True,left,0,221,221,221,2018-12-11 17:32:40.186335,2018-12-11 17:32:44.089558,0:00:03.903223,5,right,0,0.3338241406127054,19,f,1,26,2018_Dec_11_1709,MP_PerceptionTuring2,59.966697007370335,
223,resources/videos_generated\model(vcgpdm)-dataset(walking)-mode(ELBO)-parts(1)-dyn(27)-lvm(26)_final(9).mov,resources/videos_natural\training(18).mov,False,True,left,0,222,222,222,2018-12-11 17:32:45.540641,2018-12-11 17:32:49.410862,0:00:03.870221,5,left,1,0.2671902011206839,19,f,1,26,2018_Dec_11_1709,MP_PerceptionTuring2,59.966697007370335,
224,resources/videos_generated\model(dmp)-dataset(walking)-npsi(80)_final(8).mov,resources/videos_natural\training(28).mov,False,True,left,0,223,223,223,2018-12-11 17:32:50.794941,2018-12-11 17:32:54.699165,0:00:03.904224,5,right,0,0.3337633041992376,19,f,1,26,2018_Dec_11_1709,MP_PerceptionTuring2,59.966697007370335,
225,resources/videos_generated\model(vcgpdm)-dataset(walking)-mode(ELBO)-parts(1)-dyn(28)-lvm(23)_final(5).mov,resources/videos_natural\training(18).mov,True,False,right,0,224,224,224,2018-12-11 17:32:56.149248,2018-12-11 17:33:00.053471,0:00:03.904223,5,right,1,0.36714111035325914,19,f,1,26,2018_Dec_11_1709,MP_PerceptionTuring2,59.966697007370335,
226,resources/videos_generated\model(vcgpdm)-dataset(walking)-mode(ELBO)-parts(2)-dyn(22)-lvm(21)_final(3).mov,resources/videos_natural\training(1).mov,True,False,right,0,225,225,225,2018-12-11 17:33:33.081360,2018-12-11 17:33:37.001584,0:00:03.920224,6,right,1,0.23386479860710097,19,f,1,26,2018_Dec_11_1709,MP_PerceptionTuring2,59.966697007370335,
227,resources/videos_generated\model(vcgpdm)-dataset(walking)-mode(ELBO)-parts(1)-dyn(26)-lvm(23)_final(5).mov,resources/videos_natural\training(47).mov,False,False,right,0,226,226,226,2018-12-11 17:33:38.352662,2018-12-11 17:33:42.255885,0:00:03.903223,6,right,1,0.3004903053260932,19,f,1,26,2018_Dec_11_1709,MP_PerceptionTuring2,59.966697007370335,
228,resources/videos_generated\model(vcgpdm)-dataset(walking)-mode(ELBO)-parts(2)-dyn(22)-lvm(21)_final(1).mov,resources/videos_natural\training(33).mov,True,True,left,0,227,227,227,2018-12-11 17:33:43.673966,2018-12-11 17:33:47.611191,0:00:03.937225,6,left,1,0.3338783512735972,19,f,1,26,2018_Dec_11_1709,MP_PerceptionTuring2,59.966697007370335,
229,resources/videos_generated\model(vcgpdm)-dataset(walking)-mode(ELBO)-parts(1)-dyn(25)-lvm(23)_final(7).mov,resources/videos_natural\training(22).mov,False,False,right,0,228,228,228,2018-12-11 17:33:49.062274,2018-12-11 17:33:52.982498,0:00:03.920224,6,right,1,0.23392985140526434,19,f,1,26,2018_Dec_11_1709,MP_PerceptionTuring2,59.966697007370335,
230,resources/videos_generated\model(vcgpdm)-dataset(walking)-mode(ELBO)-parts(2)-dyn(23)-lvm(22)_final(7).mov,resources/videos_natural\training(16).mov,True,True,left,0,229,229,229,2018-12-11 17:33:54.333576,2018-12-11 17:33:58.236799,0:00:03.903223,6,left,1,0.2837916142161703,19,f,1,26,2018_Dec_11_1709,MP_PerceptionTuring2,59.966697007370335,
231,resources/videos_generated\model(dmp)-dataset(walking)-npsi(50)_final(6).mov,resources/videos_natural\training(36).mov,True,True,left,0,230,230,230,2018-12-11 17:33:59.637879,2018-12-11 17:34:03.575104,0:00:03.937225,6,left,1,0.2170218468963867,19,f,1,26,2018_Dec_11_1709,MP_PerceptionTuring2,59.966697007370335,
232,resources/videos_generated\model(vcgpdm)-dataset(walking)-mode(ELBO)-parts(2)-dyn(28)-lvm(19)_final(9).mov,resources/videos_natural\training(45).mov,False,True,left,0,231,231,231,2018-12-11 17:34:04.909180,2018-12-11 17:34:08.812404,0:00:03.903224,6,left,1,0.21715677121392218,19,f,1,26,2018_Dec_11_1709,MP_PerceptionTuring2,59.966697007370335,
233,resources/videos_generated\model(vcgpdm)-dataset(walking)-mode(ELBO)-parts(1)-dyn(25)-lvm(24)_final(7).mov,resources/videos_natural\training(4).mov,True,True,left,0,232,232,232,2018-12-11 17:34:10.147480,2018-12-11 17:34:14.050703,0:00:03.903223,6,left,1,0.2505213258700678,19,f,1,26,2018_Dec_11_1709,MP_PerceptionTuring2,59.966697007370335,
234,resources/videos_generated\model(tmp)-dataset(walking)-numprim(13)_final(8).mov,resources/videos_natural\training(46).mov,False,True,left,0,233,233,233,2018-12-11 17:34:15.417782,2018-12-11 17:34:19.322005,0:00:03.904223,6,left,1,0.26704503701330395,19,f,1,26,2018_Dec_11_1709,MP_PerceptionTuring2,59.966697007370335,
235,resources/videos_generated\model(vcgpdm)-dataset(walking)-mode(ELBO)-parts(2)-dyn(26)-lvm(17)_final(1).mov,resources/videos_natural\training(35).mov,True,True,left,0,234,234,234,2018-12-11 17:34:20.706084,2018-12-11 17:34:24.643309,0:00:03.937225,6,left,1,0.21717273323884,19,f,1,26,2018_Dec_11_1709,MP_PerceptionTuring2,59.966697007370335,
236,resources/videos_generated\model(vcgpdm)-dataset(walking)-mode(ELBO)-parts(1)-dyn(25)-lvm(26)_final(2).mov,resources/videos_natural\training(24).mov,True,False,right,0,235,235,235,2018-12-11 17:34:25.977386,2018-12-11 17:34:29.863608,0:00:03.886222,6,left,0,0.2671390021641855,19,f,1,26,2018_Dec_11_1709,MP_PerceptionTuring2,59.966697007370335,
237,resources/videos_generated\model(tmp)-dataset(walking)-numprim(12)_final(4).mov,resources/videos_natural\training(1).mov,False,True,left,0,236,236,236,2018-12-11 17:34:31.248687,2018-12-11 17:34:35.184912,0:00:03.936225,6,right,0,0.3005580686512985,19,f,1,26,2018_Dec_11_1709,MP_PerceptionTuring2,59.966697007370335,
238,resources/videos_generated\model(vcgpdm)-dataset(walking)-mode(ELBO)-parts(2)-dyn(27)-lvm(18)_final(1).mov,resources/videos_natural\training(26).mov,True,False,right,0,237,237,237,2018-12-11 17:34:36.602993,2018-12-11 17:34:40.540218,0:00:03.937225,6,right,1,0.2172938037183485,19,f,1,26,2018_Dec_11_1709,MP_PerceptionTuring2,59.966697007370335,
239,resources/videos_generated\model(dmp)-dataset(walking)-npsi(50)_final(2).mov,resources/videos_natural\training(25).mov,True,False,right,0,238,238,238,2018-12-11 17:34:41.874295,2018-12-11 17:34:45.794519,0:00:03.920224,6,left,0,0.2671540606788767,19,f,1,26,2018_Dec_11_1709,MP_PerceptionTuring2,59.966697007370335,
240,resources/videos_generated\model(tmp)-dataset(walking)-numprim(15)_final(6).mov,resources/videos_natural\training(32).mov,True,True,left,0,239,239,239,2018-12-11 17:34:47.178598,2018-12-11 17:34:51.065821,0:00:03.887223,6,left,1,0.26715797589349677,19,f,1,26,2018_Dec_11_1709,MP_PerceptionTuring2,59.966697007370335,
241,resources/videos_generated\model(vcgpdm)-dataset(walking)-mode(ELBO)-parts(2)-dyn(22)-lvm(19)_final(5).mov,resources/videos_natural\training(20).mov,True,True,left,0,240,240,240,2018-12-11 17:34:52.449900,2018-12-11 17:34:56.370124,0:00:03.920224,6,left,1,0.23379823996219784,19,f,1,26,2018_Dec_11_1709,MP_PerceptionTuring2,59.966697007370335,
242,resources/videos_generated\model(vcgpdm)-dataset(walking)-mode(ELBO)-parts(1)-dyn(24)-lvm(23)_final(2).mov,resources/videos_natural\training(42).mov,False,False,right,0,241,241,241,2018-12-11 17:34:57.721201,2018-12-11 17:35:01.641425,0:00:03.920224,6,right,1,0.15058667983976193,19,f,1,26,2018_Dec_11_1709,MP_PerceptionTuring2,59.966697007370335,
243,resources/videos_generated\model(vcgpdm)-dataset(walking)-mode(ELBO)-parts(1)-dyn(22)-lvm(22)_final(0).mov,resources/videos_natural\training(20).mov,False,False,right,0,242,242,242,2018-12-11 17:35:02.909498,2018-12-11 17:35:06.829722,0:00:03.920224,6,right,1,0.3840997114784841,19,f,1,26,2018_Dec_11_1709,MP_PerceptionTuring2,59.966697007370335,
244,resources/videos_generated\model(vcgpdm)-dataset(walking)-mode(ELBO)-parts(2)-dyn(26)-lvm(17)_final(3).mov,resources/videos_natural\training(35).mov,True,False,right,0,243,243,243,2018-12-11 17:35:08.330808,2018-12-11 17:35:12.234031,0:00:03.903223,6,right,1,0.45059149856388103,19,f,1,26,2018_Dec_11_1709,MP_PerceptionTuring2,59.966697007370335,
245,resources/videos_generated\model(vcgpdm)-dataset(walking)-mode(ELBO)-parts(1)-dyn(25)-lvm(28)_final(6).mov,resources/videos_natural\training(29).mov,False,True,left,0,244,244,244,2018-12-11 17:35:13.803121,2018-12-11 17:35:17.722345,0:00:03.919224,6,left,1,0.28385365530630224,19,f,1,26,2018_Dec_11_1709,MP_PerceptionTuring2,59.966697007370335,
246,resources/videos_generated\model(vcgpdm)-dataset(walking)-mode(ELBO)-parts(1)-dyn(26)-lvm(23)_final(7).mov,resources/videos_natural\training(17).mov,True,False,right,0,245,245,245,2018-12-11 17:35:19.123425,2018-12-11 17:35:23.026649,0:00:03.903224,6,left,0,0.4340656792301161,19,f,1,26,2018_Dec_11_1709,MP_PerceptionTuring2,59.966697007370335,
247,resources/videos_generated\model(vcgpdm)-dataset(walking)-mode(ELBO)-parts(2)-dyn(25)-lvm(22)_final(1).mov,resources/videos_natural\training(22).mov,False,False,right,0,246,246,246,2018-12-11 17:35:24.577737,2018-12-11 17:35:28.497962,0:00:03.920225,6,right,1,0.5175010089224088,19,f,1,26,2018_Dec_11_1709,MP_PerceptionTuring2,59.966697007370335,
248,resources/videos_generated\model(vcgpdm)-dataset(walking)-mode(ELBO)-parts(2)-dyn(24)-lvm(19)_final(1).mov,resources/videos_natural\training(45).mov,False,False,right,0,247,247,247,2018-12-11 17:35:30.133055,2018-12-11 17:35:34.053279,0:00:03.920224,6,right,1,0.43392081629281165,19,f,1,26,2018_Dec_11_1709,MP_PerceptionTuring2,59.966697007370335,
249,resources/videos_generated\model(vcgpdm)-dataset(walking)-mode(ELBO)-parts(2)-dyn(22)-lvm(17)_final(3).mov,resources/videos_natural\training(47).mov,False,False,right,0,248,248,248,2018-12-11 17:35:35.604368,2018-12-11 17:35:39.524592,0:00:03.920224,6,left,0,0.7843391419046384,19,f,1,26,2018_Dec_11_1709,MP_PerceptionTuring2,59.966697007370335,
250,resources/videos_generated\model(vcgpdm)-dataset(walking)-mode(ELBO)-parts(2)-dyn(23)-lvm(18)_final(9).mov,resources/videos_natural\training(16).mov,False,True,left,0,249,249,249,2018-12-11 17:35:41.425701,2018-12-11 17:35:45.362926,0:00:03.937225,6,left,1,1.3514570621409803,19,f,1,26,2018_Dec_11_1709,MP_PerceptionTuring2,59.966697007370335,
251,resources/videos_generated\model(vcgpdm)-dataset(walking)-mode(ELBO)-parts(1)-dyn(22)-lvm(22)_final(4).mov,resources/videos_natural\training(19).mov,False,False,right,0,250,250,250,2018-12-11 17:35:47.831067,2018-12-11 17:35:51.718290,0:00:03.887223,6,right,1,0.3005809576025058,19,f,1,26,2018_Dec_11_1709,MP_PerceptionTuring2,59.966697007370335,
252,resources/videos_generated\model(vcgpdm)-dataset(walking)-mode(ELBO)-parts(1)-dyn(25)-lvm(28)_final(0).mov,resources/videos_natural\training(0).mov,True,False,right,0,251,251,251,2018-12-11 17:35:53.136371,2018-12-11 17:35:57.056595,0:00:03.920224,6,right,1,0.4841765099154145,19,f,1,26,2018_Dec_11_1709,MP_PerceptionTuring2,59.966697007370335,
253,resources/videos_generated\model(vcgpdm)-dataset(walking)-mode(ELBO)-parts(2)-dyn(28)-lvm(23)_final(3).mov,resources/videos_natural\training(28).mov,True,False,right,0,252,252,252,2018-12-11 17:35:58.657687,2018-12-11 17:36:02.543909,0:00:03.886222,6,left,0,0.48403706804674584,19,f,1,26,2018_Dec_11_1709,MP_PerceptionTuring2,59.966697007370335,
254,resources/videos_generated\model(vcgpdm)-dataset(walking)-mode(ELBO)-parts(2)-dyn(24)-lvm(17)_final(5).mov,resources/videos_natural\training(13).mov,True,False,right,0,253,253,253,2018-12-11 17:36:04.146000,2018-12-11 17:36:08.065225,0:00:03.919225,6,left,0,0.45060264186759014,19,f,1,26,2018_Dec_11_1709,MP_PerceptionTuring2,59.966697007370335,
255,resources/videos_generated\model(vcgpdm)-dataset(walking)-mode(ELBO)-parts(2)-dyn(25)-lvm(22)_final(3).mov,resources/videos_natural\training(24).mov,False,False,right,0,254,254,254,2018-12-11 17:36:09.633314,2018-12-11 17:36:13.537538,0:00:03.904224,6,right,1,0.40066859817306977,19,f,1,26,2018_Dec_11_1709,MP_PerceptionTuring2,59.966697007370335,
256,resources/videos_generated\model(vcgpdm)-dataset(walking)-mode(ELBO)-parts(1)-dyn(27)-lvm(24)_final(1).mov,resources/videos_natural\training(25).mov,False,True,left,0,255,255,255,2018-12-11 17:36:15.054624,2018-12-11 17:36:18.958848,0:00:03.904224,6,left,1,0.41734349682883476,19,f,1,26,2018_Dec_11_1709,MP_PerceptionTuring2,59.966697007370335,
257,resources/videos_generated\model(dmp)-dataset(walking)-npsi(100)_final(6).mov,resources/videos_natural\training(30).mov,False,True,left,0,256,256,256,2018-12-11 17:36:20.492935,2018-12-11 17:36:24.380158,0:00:03.887223,6,right,0,0.40059300441862433,19,f,1,26,2018_Dec_11_1709,MP_PerceptionTuring2,59.966697007370335,
258,resources/videos_generated\model(vcgpdm)-dataset(walking)-mode(ELBO)-parts(2)-dyn(23)-lvm(18)_final(7).mov,resources/videos_natural\training(31).mov,True,False,right,0,257,257,257,2018-12-11 17:36:25.897245,2018-12-11 17:36:29.818469,0:00:03.921224,6,right,1,0.2504547672251647,19,f,1,26,2018_Dec_11_1709,MP_PerceptionTuring2,59.966697007370335,
259,resources/videos_generated\model(vcgpdm)-dataset(walking)-mode(ELBO)-parts(1)-dyn(25)-lvm(24)_final(1).mov,resources/videos_natural\training(29).mov,True,True,left,0,258,258,258,2018-12-11 17:36:31.185547,2018-12-11 17:36:35.105771,0:00:03.920224,6,left,1,0.2506568525277544,19,f,1,26,2018_Dec_11_1709,MP_PerceptionTuring2,59.966697007370335,
260,resources/videos_generated\model(vcgpdm)-dataset(walking)-mode(ELBO)-parts(1)-dyn(28)-lvm(27)_final(1).mov,resources/videos_natural\training(39).mov,True,True,left,0,259,259,259,2018-12-11 17:36:36.473850,2018-12-11 17:36:40.377073,0:00:03.903223,6,right,0,0.5172465199757426,19,f,1,26,2018_Dec_11_1709,MP_PerceptionTuring2,59.966697007370335,
261,resources/videos_generated\model(vcgpdm)-dataset(walking)-mode(ELBO)-parts(1)-dyn(24)-lvm(25)_final(6).mov,resources/videos_natural\training(42).mov,False,False,right,0,260,260,260,2018-12-11 17:36:42.011166,2018-12-11 17:36:45.915390,0:00:03.904224,6,right,1,0.36712816002909676,19,f,1,26,2018_Dec_11_1709,MP_PerceptionTuring2,59.966697007370335,
262,resources/videos_generated\model(vcgpdm)-dataset(walking)-mode(ELBO)-parts(1)-dyn(23)-lvm(26)_final(9).mov,resources/videos_natural\training(32).mov,True,False,right,0,261,261,261,2018-12-11 17:36:47.399474,2018-12-11 17:36:51.336700,0:00:03.937226,6,right,1,0.38385636583552696,19,f,1,26,2018_Dec_11_1709,MP_PerceptionTuring2,59.966697007370335,
263,resources/videos_generated\model(vcgpdm)-dataset(walking)-mode(ELBO)-parts(1)-dyn(26)-lvm(27)_final(5).mov,resources/videos_natural\training(45).mov,False,False,right,0,262,262,262,2018-12-11 17:36:52.837785,2018-12-11 17:36:56.724008,0:00:03.886223,6,right,1,0.2837280672683846,19,f,1,26,2018_Dec_11_1709,MP_PerceptionTuring2,59.966697007370335,
264,resources/videos_generated\model(vcgpdm)-dataset(walking)-mode(ELBO)-parts(1)-dyn(23)-lvm(26)_final(5)_hip-corrected.mov,resources/videos_natural\training(34).mov,False,True,left,0,263,263,263,2018-12-11 17:36:58.126088,2018-12-11 17:37:02.029311,0:00:03.903223,6,left,1,0.41726037381158676,19,f,1,26,2018_Dec_11_1709,MP_PerceptionTuring2,59.966697007370335,
265,resources/videos_generated\model(vcgpdm)-dataset(walking)-mode(ELBO)-parts(1)-dyn(22)-lvm(25)_final(8).mov,resources/videos_natural\training(25).mov,True,True,left,0,264,264,264,2018-12-11 17:37:03.563399,2018-12-11 17:37:07.516625,0:00:03.953226,6,left,1,0.2671715285614482,19,f,1,26,2018_Dec_11_1709,MP_PerceptionTuring2,59.966697007370335,
266,resources/videos_generated\model(vcgpdm)-dataset(walking)-mode(ELBO)-parts(1)-dyn(24)-lvm(23)_final(4)_fail.mov,resources/videos_natural\training(28).mov,True,False,right,0,265,265,265,2018-12-11 17:37:08.901704,2018-12-11 17:37:12.771926,0:00:03.870222,6,right,1,0.333869918504206,19,f,1,26,2018_Dec_11_1709,MP_PerceptionTuring2,59.966697007370335,
267,resources/videos_generated\model(vcgpdm)-dataset(walking)-mode(ELBO)-parts(1)-dyn(28)-lvm(25)_final(1).mov,resources/videos_natural\training(11).mov,False,False,right,0,266,266,266,2018-12-11 17:37:14.223009,2018-12-11 17:37:18.126232,0:00:03.903223,6,left,0,0.2504439250951691,19,f,1,26,2018_Dec_11_1709,MP_PerceptionTuring2,59.966697007370335,
268,resources/videos_generated\model(dmp)-dataset(walking)-npsi(70)_final(2).mov,resources/videos_natural\training(30).mov,False,True,left,0,267,267,267,2018-12-11 17:37:19.494310,2018-12-11 17:37:23.430535,0:00:03.936225,6,right,0,0.033567543476237915,19,f,1,26,2018_Dec_11_1709,MP_PerceptionTuring2,59.966697007370335,
269,resources/videos_generated\model(vcgpdm)-dataset(walking)-mode(ELBO)-parts(2)-dyn(28)-lvm(21)_final(7).mov,resources/videos_natural\training(47).mov,False,True,left,0,268,268,268,2018-12-11 17:37:24.581601,2018-12-11 17:37:28.484824,0:00:03.903223,6,left,1,0.15029544811113738,19,f,1,26,2018_Dec_11_1709,MP_PerceptionTuring2,59.966697007370335,
270,resources/videos_generated\model(vcgpdm)-dataset(walking)-mode(ELBO)-parts(2)-dyn(28)-lvm(19)_final(5).mov,resources/videos_natural\training(2).mov,True,True,left,0,269,269,269,2018-12-11 17:37:29.752897,2018-12-11 17:37:33.673121,0:00:03.920224,6,left,1,0.317239894229715,19,f,1,26,2018_Dec_11_1709,MP_PerceptionTuring2,59.966697007370335,
271,resources/videos_generated\model(vcgpdm)-dataset(walking)-mode(ELBO)-parts(2)-dyn(24)-lvm(21)_final(7).mov,resources/videos_natural\training(15).mov,True,True,left,0,270,270,270,2018-12-11 17:38:06.535001,2018-12-11 17:38:10.455225,0:00:03.920224,7,left,1,0.367129967053188,19,f,1,26,2018_Dec_11_1709,MP_PerceptionTuring2,59.966697007370335,
272,resources/videos_generated\model(vcgpdm)-dataset(walking)-mode(ELBO)-parts(2)-dyn(26)-lvm(19)_final(7).mov,resources/videos_natural\training(17).mov,True,True,left,0,271,271,271,2018-12-11 17:38:11.939310,2018-12-11 17:38:15.876535,0:00:03.937225,7,left,1,0.4839855679165339,19,f,1,26,2018_Dec_11_1709,MP_PerceptionTuring2,59.966697007370335,
273,resources/videos_generated\model(vcgpdm)-dataset(walking)-mode(ELBO)-parts(2)-dyn(24)-lvm(23)_final(7).mov,resources/videos_natural\training(31).mov,False,True,left,0,272,272,272,2018-12-11 17:38:17.477627,2018-12-11 17:38:21.380850,0:00:03.903223,7,left,1,0.2838482342376665,19,f,1,26,2018_Dec_11_1709,MP_PerceptionTuring2,59.966697007370335,
274,resources/videos_generated\model(vcgpdm)-dataset(walking)-mode(ELBO)-parts(1)-dyn(26)-lvm(25)_final(1).mov,resources/videos_natural\training(3).mov,True,True,left,0,273,273,273,2018-12-11 17:38:22.781930,2018-12-11 17:38:26.685153,0:00:03.903223,7,left,1,0.4340840506229142,19,f,1,26,2018_Dec_11_1709,MP_PerceptionTuring2,59.966697007370335,
275,resources/videos_generated\model(dmp)-dataset(walking)-npsi(90)_final(2).mov,resources/videos_natural\training(14).mov,False,False,right,0,274,274,274,2018-12-11 17:38:28.237242,2018-12-11 17:38:32.157466,0:00:03.920224,7,left,0,0.18396207662954112,19,f,1,26,2018_Dec_11_1709,MP_PerceptionTuring2,59.966697007370335,
276,resources/videos_generated\model(vcgpdm)-dataset(walking)-mode(ELBO)-parts(1)-dyn(25)-lvm(22)_final(4).mov,resources/videos_natural\training(46).mov,False,True,left,0,275,275,275,2018-12-11 17:38:33.457541,2018-12-11 17:38:37.394766,0:00:03.937225,7,left,1,0.30055626163448323,19,f,1,26,2018_Dec_11_1709,MP_PerceptionTuring2,59.966697007370335,
277,resources/videos_generated\model(tmp)-dataset(walking)-numprim(14)_final(8).mov,resources/videos_natural\training(46).mov,False,False,right,0,276,276,276,2018-12-11 17:38:38.812847,2018-12-11 17:38:42.749072,0:00:03.936225,7,left,0,0.3338578716866323,19,f,1,26,2018_Dec_11_1709,MP_PerceptionTuring2,59.966697007370335,
278,resources/videos_generated\model(vcgpdm)-dataset(walking)-mode(ELBO)-parts(2)-dyn(24)-lvm(17)_final(3).mov,resources/videos_natural\training(15).mov,True,True,left,0,277,277,277,2018-12-11 17:38:44.201155,2018-12-11 17:38:48.137380,0:00:03.936225,7,right,0,0.21714201386566856,19,f,1,26,2018_Dec_11_1709,MP_PerceptionTuring2,59.966697007370335,
279,resources/videos_generated\model(vcgpdm)-dataset(walking)-mode(ELBO)-parts(1)-dyn(23)-lvm(28)_final(4)_hip-corrected.mov,resources/videos_natural\training(38).mov,False,False,right,0,278,278,278,2018-12-11 17:38:49.472457,2018-12-11 17:38:53.375680,0:00:03.903223,7,left,0,0.2839060589467408,19,f,1,26,2018_Dec_11_1709,MP_PerceptionTuring2,59.966697007370335,
280,resources/videos_generated\model(vcgpdm)-dataset(walking)-mode(ELBO)-parts(2)-dyn(26)-lvm(21)_final(9).mov,resources/videos_natural\training(43).mov,True,True,left,0,279,279,279,2018-12-11 17:38:54.776760,2018-12-11 17:38:58.696984,0:00:03.920224,7,left,1,0.26711099332169397,19,f,1,26,2018_Dec_11_1709,MP_PerceptionTuring2,59.966697007370335,
281,resources/videos_generated\model(vcgpdm)-dataset(walking)-mode(ELBO)-parts(1)-dyn(26)-lvm(25)_final(5).mov,resources/videos_natural\training(27).mov,False,True,left,0,280,280,280,2018-12-11 17:39:00.081063,2018-12-11 17:39:03.984287,0:00:03.903224,7,left,1,0.3007782241802488,19,f,1,26,2018_Dec_11_1709,MP_PerceptionTuring2,59.966697007370335,
282,resources/videos_generated\model(vcgpdm)-dataset(walking)-mode(ELBO)-parts(1)-dyn(25)-lvm(28)_final(4).mov,resources/videos_natural\training(24).mov,True,True,left,0,281,281,281,2018-12-11 17:39:05.402368,2018-12-11 17:39:09.322592,0:00:03.920224,7,left,1,0.3005933055865171,19,f,1,26,2018_Dec_11_1709,MP_PerceptionTuring2,59.966697007370335,
283,resources/videos_generated\model(vcgpdm)-dataset(walking)-mode(ELBO)-parts(1)-dyn(25)-lvm(24)_final(5).mov,resources/videos_natural\training(12).mov,True,True,left,0,282,282,282,2018-12-11 17:39:10.740673,2018-12-11 17:39:14.643896,0:00:03.903223,7,left,1,0.26716821568334126,19,f,1,26,2018_Dec_11_1709,MP_PerceptionTuring2,59.966697007370335,
284,resources/videos_generated\model(vcgpdm)-dataset(walking)-mode(ELBO)-parts(1)-dyn(24)-lvm(25)_final(4).mov,resources/videos_natural\training(22).mov,False,False,right,0,283,283,283,2018-12-11 17:39:16.027975,2018-12-11 17:39:19.931199,0:00:03.903224,7,right,1,0.21702847264168668,19,f,1,26,2018_Dec_11_1709,MP_PerceptionTuring2,59.966697007370335,
285,resources/videos_generated\model(vcgpdm)-dataset(walking)-mode(ELBO)-parts(1)-dyn(24)-lvm(25)_final(2).mov,resources/videos_natural\training(5).mov,False,False,right,0,284,284,284,2018-12-11 17:39:21.266275,2018-12-11 17:39:25.169498,0:00:03.903223,7,right,1,0.28377535101390094,19,f,1,26,2018_Dec_11_1709,MP_PerceptionTuring2,59.966697007370335,
286,resources/videos_generated\model(vcgpdm)-dataset(walking)-mode(ELBO)-parts(1)-dyn(22)-lvm(22)_final(2).mov,resources/videos_natural\training(27).mov,True,True,left,0,285,285,285,2018-12-11 17:39:26.570578,2018-12-11 17:39:30.490803,0:00:03.920225,7,left,1,0.21711761906772153,19,f,1,26,2018_Dec_11_1709,MP_PerceptionTuring2,59.966697007370335,
287,resources/videos_generated\model(vcgpdm)-dataset(walking)-mode(ELBO)-parts(2)-dyn(23)-lvm(22)_final(1).mov,resources/videos_natural\training(46).mov,False,False,right,0,286,286,286,2018-12-11 17:39:31.824879,2018-12-11 17:39:35.778105,0:00:03.953226,7,right,1,0.23369795023609186,19,f,1,26,2018_Dec_11_1709,MP_PerceptionTuring2,59.966697007370335,
288,resources/videos_generated\model(vcgpdm)-dataset(walking)-mode(ELBO)-parts(1)-dyn(23)-lvm(28)_final(6)_hip-corrected.mov,resources/videos_natural\training(9).mov,True,True,left,0,287,287,287,2018-12-11 17:39:37.130182,2018-12-11 17:39:41.033406,0:00:03.903224,7,right,0,0.2004845830888371,19,f,1,26,2018_Dec_11_1709,MP_PerceptionTuring2,59.966697007370335,
289,resources/videos_generated\model(vcgpdm)-dataset(walking)-mode(ELBO)-parts(1)-dyn(27)-lvm(26)_final(7).mov,resources/videos_natural\training(28).mov,True,True,left,0,288,288,288,2018-12-11 17:39:42.350481,2018-12-11 17:39:46.254704,0:00:03.904223,7,left,1,0.31730253765999805,19,f,1,26,2018_Dec_11_1709,MP_PerceptionTuring2,59.966697007370335,
290,resources/videos_generated\model(vcgpdm)-dataset(walking)-mode(ELBO)-parts(2)-dyn(22)-lvm(21)_final(5).mov,resources/videos_natural\training(31).mov,True,False,right,0,289,289,289,2018-12-11 17:39:47.688786,2018-12-11 17:39:51.609011,0:00:03.920225,7,left,0,0.30055475578046753,19,f,1,26,2018_Dec_11_1709,MP_PerceptionTuring2,59.966697007370335,
