n_trial,mov_file_generated,mov_file_natural,mirrored,switch_stim_pos,correct_answer,trials.thisRepN,trials.thisTrialN,trials.thisN,trials.thisIndex,stimulus_onset,stimulus_off,stimulus_length,block,response.keys,response.corr,response.rt,age,gender,condition,participant,date,expName,frameRate,
1,resources/videos_generated\model(vcgpdm)-dataset(walking)-mode(ELBO)-parts(1)-dyn(27)-lvm(24)_final(2).mov,resources/videos_natural\training(44).mov,True,False,right,0,0,0,0,2018-12-13 12:06:49.649692,2018-12-13 12:06:54.286957,0:00:04.637265,1,right,1,2.2689220775818058,22,m,2,27,2018_Dec_13_1205,MP_PerceptionTuring2,59.93395306860249,
2,resources/videos_generated\model(tmp)-dataset(walking)-numprim(14)_final(5).mov,resources/videos_natural\training(35).mov,False,True,left,0,1,1,1,2018-12-13 12:06:57.673151,2018-12-13 12:07:01.593375,0:00:03.920224,1,right,0,0.9011550319680737,22,m,2,27,2018_Dec_13_1205,MP_PerceptionTuring2,59.93395306860249,
3,resources/videos_generated\model(vcgpdm)-dataset(walking)-mode(ELBO)-parts(2)-dyn(22)-lvm(19)_final(6).mov,resources/videos_natural\training(4).mov,True,False,right,0,2,2,2,2018-12-13 12:07:03.611490,2018-12-13 12:07:07.531715,0:00:03.920225,1,right,1,0.11713766748664511,22,m,2,27,2018_Dec_13_1205,MP_PerceptionTuring2,59.93395306860249,
4,resources/videos_generated\model(vcgpdm)-dataset(walking)-mode(ELBO)-parts(2)-dyn(26)-lvm(21)_final(0).mov,resources/videos_natural\training(26).mov,False,True,left,0,3,3,3,2018-12-13 12:07:08.765785,2018-12-13 12:07:12.670009,0:00:03.904224,1,left,1,1.1345994281912226,22,m,2,27,2018_Dec_13_1205,MP_PerceptionTuring2,59.93395306860249,
5,resources/videos_generated\model(dmp)-dataset(walking)-npsi(100)_final(5).mov,resources/videos_natural\training(10).mov,False,True,left,0,4,4,4,2018-12-13 12:07:14.921137,2018-12-13 12:07:18.808360,0:00:03.887223,1,left,1,1.101197437251244,22,m,2,27,2018_Dec_13_1205,MP_PerceptionTuring2,59.93395306860249,
6,resources/videos_generated\model(vcgpdm)-dataset(walking)-mode(ELBO)-parts(2)-dyn(28)-lvm(19)_final(4).mov,resources/videos_natural\training(19).mov,True,True,left,0,5,5,5,2018-12-13 12:07:21.026487,2018-12-13 12:07:24.913709,0:00:03.887222,1,left,1,0.5174372150330555,22,m,2,27,2018_Dec_13_1205,MP_PerceptionTuring2,59.93395306860249,
7,resources/videos_generated\model(vcgpdm)-dataset(walking)-mode(ELBO)-parts(2)-dyn(24)-lvm(17)_final(0).mov,resources/videos_natural\training(12).mov,False,False,right,0,6,6,6,2018-12-13 12:07:26.547802,2018-12-13 12:07:30.452026,0:00:03.904224,1,left,0,0.4503736212636795,22,m,2,27,2018_Dec_13_1205,MP_PerceptionTuring2,59.93395306860249,
8,resources/videos_generated\model(vcgpdm)-dataset(walking)-mode(ELBO)-parts(1)-dyn(26)-lvm(23)_final(4)_fail.mov,resources/videos_natural\training(47).mov,False,False,right,0,7,7,7,2018-12-13 12:07:32.019115,2018-12-13 12:07:35.923339,0:00:03.904224,1,right,1,0.7509078133842877,22,m,2,27,2018_Dec_13_1205,MP_PerceptionTuring2,59.93395306860249,
9,resources/videos_generated\model(vcgpdm)-dataset(walking)-mode(ELBO)-parts(1)-dyn(22)-lvm(23)_final(9).mov,resources/videos_natural\training(44).mov,True,True,left,0,8,8,8,2018-12-13 12:07:37.791445,2018-12-13 12:07:41.694669,0:00:03.903224,1,left,1,0.4839819163152015,22,m,2,27,2018_Dec_13_1205,MP_PerceptionTuring2,59.93395306860249,
10,resources/videos_generated\model(dmp)-dataset(walking)-npsi(70)_final(9).mov,resources/videos_natural\training(37).mov,False,True,left,0,9,9,9,2018-12-13 12:07:43.295760,2018-12-13 12:07:47.199984,0:00:03.904224,1,left,1,2.719256546240217,22,m,2,27,2018_Dec_13_1205,MP_PerceptionTuring2,59.93395306860249,
11,resources/videos_generated\model(tmp)-dataset(walking)-numprim(11)_final(7).mov,resources/videos_natural\training(42).mov,False,True,left,0,10,10,10,2018-12-13 12:07:51.036203,2018-12-13 12:07:54.939426,0:00:03.903223,1,right,0,0.8010321831402507,22,m,2,27,2018_Dec_13_1205,MP_PerceptionTuring2,59.93395306860249,
12,resources/videos_generated\model(vcgpdm)-dataset(walking)-mode(ELBO)-parts(1)-dyn(27)-lvm(24)_final(0).mov,resources/videos_natural\training(20).mov,False,True,left,0,11,11,11,2018-12-13 12:07:56.857536,2018-12-13 12:08:00.760759,0:00:03.903223,1,left,1,1.768285847748757,22,m,2,27,2018_Dec_13_1205,MP_PerceptionTuring2,59.93395306860249,
13,resources/videos_generated\model(tmp)-dataset(walking)-numprim(14)_final(3).mov,resources/videos_natural\training(43).mov,False,True,left,0,12,12,12,2018-12-13 12:08:03.646924,2018-12-13 12:08:07.550148,0:00:03.903224,1,right,0,0.4840075160955166,22,m,2,27,2018_Dec_13_1205,MP_PerceptionTuring2,59.93395306860249,
14,resources/videos_generated\model(vcgpdm)-dataset(walking)-mode(ELBO)-parts(1)-dyn(25)-lvm(24)_final(0).mov,resources/videos_natural\training(23).mov,False,False,right,0,13,13,13,2018-12-13 12:08:09.151239,2018-12-13 12:08:13.089464,0:00:03.938225,1,left,0,0.3674887609435018,22,m,2,27,2018_Dec_13_1205,MP_PerceptionTuring2,59.93395306860249,
15,resources/videos_generated\model(vcgpdm)-dataset(walking)-mode(ELBO)-parts(2)-dyn(25)-lvm(22)_final(2).mov,resources/videos_natural\training(30).mov,False,False,right,0,14,14,14,2018-12-13 12:08:14.572549,2018-12-13 12:08:18.476772,0:00:03.904223,1,right,1,1.1679604594829698,22,m,2,27,2018_Dec_13_1205,MP_PerceptionTuring2,59.93395306860249,
16,resources/videos_generated\model(vcgpdm)-dataset(walking)-mode(ELBO)-parts(2)-dyn(26)-lvm(19)_final(6).mov,resources/videos_natural\training(46).mov,False,True,left,0,15,15,15,2018-12-13 12:08:20.761903,2018-12-13 12:08:24.682127,0:00:03.920224,1,right,0,0.5674555715813767,22,m,2,27,2018_Dec_13_1205,MP_PerceptionTuring2,59.93395306860249,
17,resources/videos_generated\model(vcgpdm)-dataset(walking)-mode(ELBO)-parts(1)-dyn(22)-lvm(27)_final(9)_hip-corrected.mov,resources/videos_natural\training(12).mov,False,True,left,0,16,16,16,2018-12-13 12:08:26.366224,2018-12-13 12:08:30.269447,0:00:03.903223,1,right,0,0.08368056172537308,22,m,2,27,2018_Dec_13_1205,MP_PerceptionTuring2,59.93395306860249,
18,resources/videos_generated\model(vcgpdm)-dataset(walking)-mode(ELBO)-parts(2)-dyn(26)-lvm(23)_final(0).mov,resources/videos_natural\training(32).mov,True,False,right,0,17,17,17,2018-12-13 12:08:31.470516,2018-12-13 12:08:35.390740,0:00:03.920224,1,right,1,1.4682717829283547,22,m,2,27,2018_Dec_13_1205,MP_PerceptionTuring2,59.93395306860249,
19,resources/videos_generated\model(vcgpdm)-dataset(walking)-mode(ELBO)-parts(2)-dyn(22)-lvm(23)_final(0).mov,resources/videos_natural\training(14).mov,False,True,left,0,18,18,18,2018-12-13 12:08:37.976888,2018-12-13 12:08:41.863110,0:00:03.886222,1,left,1,0.45065341180327323,22,m,2,27,2018_Dec_13_1205,MP_PerceptionTuring2,59.93395306860249,
20,resources/videos_generated\model(vcgpdm)-dataset(walking)-mode(ELBO)-parts(2)-dyn(25)-lvm(18)_final(8).mov,resources/videos_natural\training(2).mov,True,True,left,0,19,19,19,2018-12-13 12:08:43.431200,2018-12-13 12:08:47.318422,0:00:03.887222,1,right,0,0.5507030753769868,22,m,2,27,2018_Dec_13_1205,MP_PerceptionTuring2,59.93395306860249,
21,resources/videos_generated\model(vcgpdm)-dataset(walking)-mode(ELBO)-parts(1)-dyn(23)-lvm(26)_final(2).mov,resources/videos_natural\training(6).mov,True,False,right,0,20,20,20,2018-12-13 12:08:48.986518,2018-12-13 12:08:52.872740,0:00:03.886222,1,left,0,0.5508163167577322,22,m,2,27,2018_Dec_13_1205,MP_PerceptionTuring2,59.93395306860249,
22,resources/videos_generated\model(dmp)-dataset(walking)-npsi(100)_final(7).mov,resources/videos_natural\training(46).mov,True,False,right,0,21,21,21,2018-12-13 12:08:54.540835,2018-12-13 12:08:58.628069,0:00:04.087234,1,right,1,1.267952297670604,22,m,2,27,2018_Dec_13_1205,MP_PerceptionTuring2,59.93395306860249,
23,resources/videos_generated\model(tmp)-dataset(walking)-numprim(13)_final(9).mov,resources/videos_natural\training(31).mov,True,True,left,0,22,22,22,2018-12-13 12:09:01.013205,2018-12-13 12:09:05.066437,0:00:04.053232,1,left,1,0.36728275800589927,22,m,2,27,2018_Dec_13_1205,MP_PerceptionTuring2,59.93395306860249,
24,resources/videos_generated\model(vcgpdm)-dataset(walking)-mode(ELBO)-parts(1)-dyn(25)-lvm(25)_final(7).mov,resources/videos_natural\training(24).mov,False,False,right,0,23,23,23,2018-12-13 12:09:06.551522,2018-12-13 12:09:10.521749,0:00:03.970227,1,left,0,1.2846560037055497,22,m,2,27,2018_Dec_13_1205,MP_PerceptionTuring2,59.93395306860249,
25,resources/videos_generated\model(vcgpdm)-dataset(walking)-mode(ELBO)-parts(2)-dyn(28)-lvm(21)_final(0).mov,resources/videos_natural\training(4).mov,False,False,right,0,24,24,24,2018-12-13 12:09:12.923887,2018-12-13 12:09:16.844111,0:00:03.920224,1,right,1,0.3672478218351216,22,m,2,27,2018_Dec_13_1205,MP_PerceptionTuring2,59.93395306860249,
26,resources/videos_generated\model(vcgpdm)-dataset(walking)-mode(ELBO)-parts(2)-dyn(23)-lvm(18)_final(4).mov,resources/videos_natural\training(0).mov,True,True,left,0,25,25,25,2018-12-13 12:09:18.328196,2018-12-13 12:09:22.231419,0:00:03.903223,1,left,1,0.31728668832499807,22,m,2,27,2018_Dec_13_1205,MP_PerceptionTuring2,59.93395306860249,
27,resources/videos_generated\model(vcgpdm)-dataset(walking)-mode(ELBO)-parts(1)-dyn(25)-lvm(28)_final(3).mov,resources/videos_natural\training(20).mov,True,False,right,0,26,26,26,2018-12-13 12:09:23.666501,2018-12-13 12:09:27.585725,0:00:03.919224,1,left,0,0.3673222117848809,22,m,2,27,2018_Dec_13_1205,MP_PerceptionTuring2,59.93395306860249,
28,resources/videos_generated\model(vcgpdm)-dataset(walking)-mode(ELBO)-parts(1)-dyn(26)-lvm(25)_final(4).mov,resources/videos_natural\training(6).mov,True,False,right,0,27,27,27,2018-12-13 12:09:29.070810,2018-12-13 12:09:33.541066,0:00:04.470256,1,right,1,0.36716891427715836,22,m,2,27,2018_Dec_13_1205,MP_PerceptionTuring2,59.93395306860249,
29,resources/videos_generated\model(vcgpdm)-dataset(walking)-mode(ELBO)-parts(2)-dyn(27)-lvm(20)_final(8).mov,resources/videos_natural\training(4).mov,False,True,left,0,28,28,28,2018-12-13 12:09:35.026151,2018-12-13 12:09:38.912373,0:00:03.886222,1,left,1,0.6510611410093361,22,m,2,27,2018_Dec_13_1205,MP_PerceptionTuring2,59.93395306860249,
30,resources/videos_generated\model(vcgpdm)-dataset(walking)-mode(ELBO)-parts(1)-dyn(27)-lvm(28)_final(8).mov,resources/videos_natural\training(11).mov,False,False,right,0,29,29,29,2018-12-13 12:09:40.680474,2018-12-13 12:09:44.584698,0:00:03.904224,1,left,0,0.4673047135820525,22,m,2,27,2018_Dec_13_1205,MP_PerceptionTuring2,59.93395306860249,
31,resources/videos_generated\model(vcgpdm)-dataset(walking)-mode(ELBO)-parts(2)-dyn(28)-lvm(23)_final(6).mov,resources/videos_natural\training(32).mov,True,False,right,0,30,30,30,2018-12-13 12:09:46.168788,2018-12-13 12:09:50.239021,0:00:04.070233,1,right,1,0.38401899082055024,22,m,2,27,2018_Dec_13_1205,MP_PerceptionTuring2,59.93395306860249,
32,resources/videos_generated\model(vcgpdm)-dataset(walking)-mode(ELBO)-parts(1)-dyn(24)-lvm(25)_final(3).mov,resources/videos_natural\training(29).mov,True,True,left,0,31,31,31,2018-12-13 12:09:51.740107,2018-12-13 12:09:55.644330,0:00:03.904223,1,left,1,1.0841820162446538,22,m,2,27,2018_Dec_13_1205,MP_PerceptionTuring2,59.93395306860249,
33,resources/videos_generated\model(vcgpdm)-dataset(walking)-mode(ELBO)-parts(2)-dyn(22)-lvm(21)_final(8).mov,resources/videos_natural\training(38).mov,False,False,right,0,32,32,32,2018-12-13 12:09:57.845456,2018-12-13 12:10:01.965692,0:00:04.120236,1,right,1,0.4840039020087943,22,m,2,27,2018_Dec_13_1205,MP_PerceptionTuring2,59.93395306860249,
34,resources/videos_generated\model(vcgpdm)-dataset(walking)-mode(ELBO)-parts(1)-dyn(24)-lvm(23)_final(5).mov,resources/videos_natural\training(43).mov,False,False,right,0,33,33,33,2018-12-13 12:10:03.567783,2018-12-13 12:10:07.504008,0:00:03.936225,1,right,1,0.3672246314459926,22,m,2,27,2018_Dec_13_1205,MP_PerceptionTuring2,59.93395306860249,
35,resources/videos_generated\model(vcgpdm)-dataset(walking)-mode(ELBO)-parts(1)-dyn(23)-lvm(27)_final(7).mov,resources/videos_natural\training(13).mov,True,False,right,0,34,34,34,2018-12-13 12:10:08.989093,2018-12-13 12:10:12.958320,0:00:03.969227,1,left,0,0.43386507590639667,22,m,2,27,2018_Dec_13_1205,MP_PerceptionTuring2,59.93395306860249,
36,resources/videos_generated\model(dmp)-dataset(walking)-npsi(50)_final(5).mov,resources/videos_natural\training(16).mov,False,False,right,0,35,35,35,2018-12-13 12:10:14.510409,2018-12-13 12:10:18.430633,0:00:03.920224,1,right,1,0.4172965969459028,22,m,2,27,2018_Dec_13_1205,MP_PerceptionTuring2,59.93395306860249,
37,resources/videos_generated\model(vcgpdm)-dataset(walking)-mode(ELBO)-parts(1)-dyn(26)-lvm(27)_final(6).mov,resources/videos_natural\training(20).mov,True,True,left,0,36,36,36,2018-12-13 12:10:19.964721,2018-12-13 12:10:23.884945,0:00:03.920224,1,left,1,0.4173330389860439,22,m,2,27,2018_Dec_13_1205,MP_PerceptionTuring2,59.93395306860249,
38,resources/videos_generated\model(dmp)-dataset(walking)-npsi(100)_final(3).mov,resources/videos_natural\training(4).mov,True,True,left,0,37,37,37,2018-12-13 12:10:25.420033,2018-12-13 12:10:29.356258,0:00:03.936225,1,right,0,0.3838819567026803,22,m,2,27,2018_Dec_13_1205,MP_PerceptionTuring2,59.93395306860249,
39,resources/videos_generated\model(vcgpdm)-dataset(walking)-mode(ELBO)-parts(2)-dyn(27)-lvm(22)_final(8).mov,resources/videos_natural\training(33).mov,False,False,right,0,38,38,38,2018-12-13 12:10:30.857344,2018-12-13 12:10:34.777568,0:00:03.920224,1,right,1,0.4171812473477985,22,m,2,27,2018_Dec_13_1205,MP_PerceptionTuring2,59.93395306860249,
40,resources/videos_generated\model(vcgpdm)-dataset(walking)-mode(ELBO)-parts(1)-dyn(25)-lvm(24)_final(6).mov,resources/videos_natural\training(14).mov,True,True,left,0,39,39,39,2018-12-13 12:10:36.312656,2018-12-13 12:10:40.332886,0:00:04.020230,1,left,1,0.46734115562230727,22,m,2,27,2018_Dec_13_1205,MP_PerceptionTuring2,59.93395306860249,
41,resources/videos_generated\model(vcgpdm)-dataset(walking)-mode(ELBO)-parts(2)-dyn(26)-lvm(17)_final(2).mov,resources/videos_natural\training(39).mov,False,True,left,0,40,40,40,2018-12-13 12:10:41.916977,2018-12-13 12:10:46.021212,0:00:04.104235,1,left,1,0.38395213021794916,22,m,2,27,2018_Dec_13_1205,MP_PerceptionTuring2,59.93395306860249,
42,resources/videos_generated\model(vcgpdm)-dataset(walking)-mode(ELBO)-parts(2)-dyn(24)-lvm(19)_final(2).mov,resources/videos_natural\training(34).mov,False,True,left,0,41,41,41,2018-12-13 12:10:47.522297,2018-12-13 12:10:51.608531,0:00:04.086234,1,left,1,0.33378318672691876,22,m,2,27,2018_Dec_13_1205,MP_PerceptionTuring2,59.93395306860249,
43,resources/videos_generated\model(vcgpdm)-dataset(walking)-mode(ELBO)-parts(2)-dyn(24)-lvm(19)_final(8).mov,resources/videos_natural\training(3).mov,True,True,left,0,42,42,42,2018-12-13 12:10:53.059614,2018-12-13 12:10:57.130847,0:00:04.071233,1,left,1,0.33391118562815336,22,m,2,27,2018_Dec_13_1205,MP_PerceptionTuring2,59.93395306860249,
44,resources/videos_generated\model(vcgpdm)-dataset(walking)-mode(ELBO)-parts(1)-dyn(27)-lvm(22)_final(2).mov,resources/videos_natural\training(36).mov,True,True,left,0,43,43,43,2018-12-13 12:10:58.581930,2018-12-13 12:11:02.685165,0:00:04.103235,1,right,0,0.41729238051152606,22,m,2,27,2018_Dec_13_1205,MP_PerceptionTuring2,59.93395306860249,
45,resources/videos_generated\model(vcgpdm)-dataset(walking)-mode(ELBO)-parts(1)-dyn(28)-lvm(24)_final(5).mov,resources/videos_natural\training(1).mov,True,True,left,0,44,44,44,2018-12-13 12:11:04.219252,2018-12-13 12:11:08.356489,0:00:04.137237,1,left,1,0.5339346169565715,22,m,2,27,2018_Dec_13_1205,MP_PerceptionTuring2,59.93395306860249,
46,resources/videos_generated\model(tmp)-dataset(walking)-numprim(12)_final(9).mov,resources/videos_natural\training(6).mov,False,True,left,0,45,45,45,2018-12-13 12:11:49.608849,2018-12-13 12:11:53.696082,0:00:04.087233,2,left,1,0.28413437053609414,22,m,2,27,2018_Dec_13_1205,MP_PerceptionTuring2,59.93395306860249,
47,resources/videos_generated\model(tmp)-dataset(walking)-numprim(13)_final(7).mov,resources/videos_natural\training(12).mov,False,True,left,0,46,46,46,2018-12-13 12:11:55.097162,2018-12-13 12:11:59.167395,0:00:04.070233,2,right,0,0.4006489092535048,22,m,2,27,2018_Dec_13_1205,MP_PerceptionTuring2,59.93395306860249,
48,resources/videos_generated\model(vcgpdm)-dataset(walking)-mode(ELBO)-parts(1)-dyn(22)-lvm(23)_final(5).mov,resources/videos_natural\training(0).mov,False,True,left,0,47,47,47,2018-12-13 12:12:00.685482,2018-12-13 12:12:04.605706,0:00:03.920224,2,left,1,0.3172381993294948,22,m,2,27,2018_Dec_13_1205,MP_PerceptionTuring2,59.93395306860249,
49,resources/videos_generated\model(vcgpdm)-dataset(walking)-mode(ELBO)-parts(2)-dyn(23)-lvm(18)_final(0).mov,resources/videos_natural\training(8).mov,True,True,left,0,48,48,48,2018-12-13 12:12:06.039788,2018-12-13 12:12:09.977014,0:00:03.937226,2,right,0,0.4172438915159091,22,m,2,27,2018_Dec_13_1205,MP_PerceptionTuring2,59.93395306860249,
50,resources/videos_generated\model(vcgpdm)-dataset(walking)-mode(ELBO)-parts(1)-dyn(28)-lvm(27)_final(0).mov,resources/videos_natural\training(29).mov,True,True,left,0,49,49,49,2018-12-13 12:12:11.511101,2018-12-13 12:12:15.414325,0:00:03.903224,2,left,1,0.40052211504780644,22,m,2,27,2018_Dec_13_1205,MP_PerceptionTuring2,59.93395306860249,
51,resources/videos_generated\model(vcgpdm)-dataset(walking)-mode(ELBO)-parts(1)-dyn(24)-lvm(25)_final(5).mov,resources/videos_natural\training(41).mov,False,False,right,0,50,50,50,2018-12-13 12:12:16.932411,2018-12-13 12:12:20.986643,0:00:04.054232,2,right,1,0.41728997112045363,22,m,2,27,2018_Dec_13_1205,MP_PerceptionTuring2,59.93395306860249,
52,resources/videos_generated\model(vcgpdm)-dataset(walking)-mode(ELBO)-parts(1)-dyn(26)-lvm(25)_final(8).mov,resources/videos_natural\training(7).mov,False,True,left,0,51,51,51,2018-12-13 12:12:22.520731,2018-12-13 12:12:26.607965,0:00:04.087234,2,left,1,0.467553784385359,22,m,2,27,2018_Dec_13_1205,MP_PerceptionTuring2,59.93395306860249,
53,resources/videos_generated\model(vcgpdm)-dataset(walking)-mode(ELBO)-parts(2)-dyn(26)-lvm(23)_final(2).mov,resources/videos_natural\training(41).mov,False,True,left,0,52,52,52,2018-12-13 12:12:28.192055,2018-12-13 12:12:32.296290,0:00:04.104235,2,left,1,0.4338768216879316,22,m,2,27,2018_Dec_13_1205,MP_PerceptionTuring2,59.93395306860249,
54,resources/videos_generated\model(vcgpdm)-dataset(walking)-mode(ELBO)-parts(1)-dyn(28)-lvm(23)_final(0).mov,resources/videos_natural\training(18).mov,True,False,right,0,53,53,53,2018-12-13 12:12:33.847379,2018-12-13 12:12:37.950614,0:00:04.103235,2,right,1,0.4005489195236578,22,m,2,27,2018_Dec_13_1205,MP_PerceptionTuring2,59.93395306860249,
55,resources/videos_generated\model(vcgpdm)-dataset(walking)-mode(ELBO)-parts(2)-dyn(22)-lvm(21)_final(4).mov,resources/videos_natural\training(24).mov,False,False,right,0,54,54,54,2018-12-13 12:12:39.468700,2018-12-13 12:12:43.455928,0:00:03.987228,2,right,1,0.417249613819763,22,m,2,27,2018_Dec_13_1205,MP_PerceptionTuring2,59.93395306860249,
56,resources/videos_generated\model(vcgpdm)-dataset(walking)-mode(ELBO)-parts(2)-dyn(28)-lvm(17)_final(8).mov,resources/videos_natural\training(26).mov,True,True,left,0,55,55,55,2018-12-13 12:12:44.990016,2018-12-13 12:12:49.060249,0:00:04.070233,2,left,1,0.36726649461604666,22,m,2,27,2018_Dec_13_1205,MP_PerceptionTuring2,59.93395306860249,
57,resources/videos_generated\model(vcgpdm)-dataset(walking)-mode(ELBO)-parts(2)-dyn(24)-lvm(21)_final(2).mov,resources/videos_natural\training(0).mov,False,True,left,0,56,56,56,2018-12-13 12:12:50.545334,2018-12-13 12:12:54.465558,0:00:03.920224,2,left,1,0.45063082376168495,22,m,2,27,2018_Dec_13_1205,MP_PerceptionTuring2,59.93395306860249,
58,resources/videos_generated\model(vcgpdm)-dataset(walking)-mode(ELBO)-parts(2)-dyn(27)-lvm(22)_final(6).mov,resources/videos_natural\training(0).mov,False,False,right,0,57,57,57,2018-12-13 12:12:56.033648,2018-12-13 12:13:00.053878,0:00:04.020230,2,right,1,0.41720865417130426,22,m,2,27,2018_Dec_13_1205,MP_PerceptionTuring2,59.93395306860249,
59,resources/videos_generated\model(vcgpdm)-dataset(walking)-mode(ELBO)-parts(1)-dyn(25)-lvm(26)_final(3)_fail.mov,resources/videos_natural\training(3).mov,False,True,left,0,58,58,58,2018-12-13 12:13:01.587966,2018-12-13 12:13:05.508190,0:00:03.920224,2,left,1,0.43387260525355487,22,m,2,27,2018_Dec_13_1205,MP_PerceptionTuring2,59.93395306860249,
60,resources/videos_generated\model(vcgpdm)-dataset(walking)-mode(ELBO)-parts(1)-dyn(25)-lvm(24)_final(8).mov,resources/videos_natural\training(1).mov,False,True,left,0,59,59,59,2018-12-13 12:13:07.059278,2018-12-13 12:13:10.946501,0:00:03.887223,2,right,0,0.367202043404518,22,m,2,27,2018_Dec_13_1205,MP_PerceptionTuring2,59.93395306860249,
61,resources/videos_generated\model(tmp)-dataset(walking)-numprim(15)_final(1).mov,resources/videos_natural\training(33).mov,False,True,left,0,60,60,60,2018-12-13 12:13:12.430586,2018-12-13 12:13:16.333809,0:00:03.903223,2,left,1,0.6841496099345932,22,m,2,27,2018_Dec_13_1205,MP_PerceptionTuring2,59.93395306860249,
62,resources/videos_generated\model(vcgpdm)-dataset(walking)-mode(ELBO)-parts(2)-dyn(23)-lvm(22)_final(4).mov,resources/videos_natural\training(42).mov,False,True,left,0,61,61,61,2018-12-13 12:13:18.135912,2018-12-13 12:13:22.056136,0:00:03.920224,2,left,1,0.36719933283961836,22,m,2,27,2018_Dec_13_1205,MP_PerceptionTuring2,59.93395306860249,
63,resources/videos_generated\model(vcgpdm)-dataset(walking)-mode(ELBO)-parts(2)-dyn(28)-lvm(23)_final(0).mov,resources/videos_natural\training(6).mov,True,True,left,0,62,62,62,2018-12-13 12:13:23.540221,2018-12-13 12:13:27.527449,0:00:03.987228,2,left,1,0.4673056171038752,22,m,2,27,2018_Dec_13_1205,MP_PerceptionTuring2,59.93395306860249,
64,resources/videos_generated\model(vcgpdm)-dataset(walking)-mode(ELBO)-parts(1)-dyn(28)-lvm(25)_final(4).mov,resources/videos_natural\training(4).mov,True,False,right,0,63,63,63,2018-12-13 12:13:29.111540,2018-12-13 12:13:33.098768,0:00:03.987228,2,left,0,0.31745865861364564,22,m,2,27,2018_Dec_13_1205,MP_PerceptionTuring2,59.93395306860249,
65,resources/videos_generated\model(vcgpdm)-dataset(walking)-mode(ELBO)-parts(2)-dyn(27)-lvm(18)_final(0).mov,resources/videos_natural\training(27).mov,False,False,right,0,64,64,64,2018-12-13 12:13:34.532850,2018-12-13 12:13:38.620084,0:00:04.087234,2,right,1,0.417203233041505,22,m,2,27,2018_Dec_13_1205,MP_PerceptionTuring2,59.93395306860249,
66,resources/videos_generated\model(vcgpdm)-dataset(walking)-mode(ELBO)-parts(2)-dyn(25)-lvm(22)_final(0).mov,resources/videos_natural\training(37).mov,True,True,left,0,65,65,65,2018-12-13 12:13:40.155171,2018-12-13 12:13:44.141399,0:00:03.986228,2,left,1,0.41723816921216894,22,m,2,27,2018_Dec_13_1205,MP_PerceptionTuring2,59.93395306860249,
67,resources/videos_generated\model(vcgpdm)-dataset(walking)-mode(ELBO)-parts(1)-dyn(23)-lvm(24)_final(4).mov,resources/videos_natural\training(41).mov,True,True,left,0,66,66,66,2018-12-13 12:13:45.676487,2018-12-13 12:13:49.612712,0:00:03.936225,2,left,1,0.35060314588179153,22,m,2,27,2018_Dec_13_1205,MP_PerceptionTuring2,59.93395306860249,
68,resources/videos_generated\model(vcgpdm)-dataset(walking)-mode(ELBO)-parts(1)-dyn(25)-lvm(22)_final(5).mov,resources/videos_natural\training(18).mov,False,True,left,0,67,67,67,2018-12-13 12:13:51.080796,2018-12-13 12:13:55.001021,0:00:03.920225,2,left,1,0.3506013388384872,22,m,2,27,2018_Dec_13_1205,MP_PerceptionTuring2,59.93395306860249,
69,resources/videos_generated\model(vcgpdm)-dataset(walking)-mode(ELBO)-parts(1)-dyn(28)-lvm(25)_final(8).mov,resources/videos_natural\training(5).mov,False,True,left,0,68,68,68,2018-12-13 12:13:56.469105,2018-12-13 12:14:00.389329,0:00:03.920224,2,right,0,1.8852931069429815,22,m,2,27,2018_Dec_13_1205,MP_PerceptionTuring2,59.93395306860249,
70,resources/videos_generated\model(vcgpdm)-dataset(walking)-mode(ELBO)-parts(1)-dyn(24)-lvm(25)_final(1).mov,resources/videos_natural\training(21).mov,True,False,right,0,69,69,69,2018-12-13 12:14:03.391500,2018-12-13 12:14:07.511736,0:00:04.120236,2,left,0,0.5172902421768413,22,m,2,27,2018_Dec_13_1205,MP_PerceptionTuring2,59.93395306860249,
71,resources/videos_generated\model(vcgpdm)-dataset(walking)-mode(ELBO)-parts(1)-dyn(24)-lvm(27)_final(3).mov,resources/videos_natural\training(6).mov,True,True,left,0,70,70,70,2018-12-13 12:14:09.146830,2018-12-13 12:14:13.133058,0:00:03.986228,2,left,1,0.41737911859036103,22,m,2,27,2018_Dec_13_1205,MP_PerceptionTuring2,59.93395306860249,
72,resources/videos_generated\model(vcgpdm)-dataset(walking)-mode(ELBO)-parts(1)-dyn(27)-lvm(24)_final(4).mov,resources/videos_natural\training(29).mov,True,False,right,0,71,71,71,2018-12-13 12:14:14.668145,2018-12-13 12:14:18.621372,0:00:03.953227,2,right,1,1.001168554675587,22,m,2,27,2018_Dec_13_1205,MP_PerceptionTuring2,59.93395306860249,
73,resources/videos_generated\model(vcgpdm)-dataset(walking)-mode(ELBO)-parts(2)-dyn(24)-lvm(23)_final(6).mov,resources/videos_natural\training(3).mov,False,True,left,0,72,72,72,2018-12-13 12:14:20.739493,2018-12-13 12:14:24.809726,0:00:04.070233,2,left,1,0.3841286181148007,22,m,2,27,2018_Dec_13_1205,MP_PerceptionTuring2,59.93395306860249,
74,resources/videos_generated\model(vcgpdm)-dataset(walking)-mode(ELBO)-parts(1)-dyn(26)-lvm(22)_final(2).mov,resources/videos_natural\training(1).mov,True,True,left,0,73,73,73,2018-12-13 12:14:26.310811,2018-12-13 12:14:30.248037,0:00:03.937226,2,left,1,0.31722012889645157,22,m,2,27,2018_Dec_13_1205,MP_PerceptionTuring2,59.93395306860249,
75,resources/videos_generated\model(vcgpdm)-dataset(walking)-mode(ELBO)-parts(2)-dyn(26)-lvm(19)_final(8).mov,resources/videos_natural\training(43).mov,True,True,left,0,74,74,74,2018-12-13 12:14:31.682119,2018-12-13 12:14:35.719350,0:00:04.037231,2,left,1,0.30055557546666023,22,m,2,27,2018_Dec_13_1205,MP_PerceptionTuring2,59.93395306860249,
76,resources/videos_generated\model(vcgpdm)-dataset(walking)-mode(ELBO)-parts(2)-dyn(24)-lvm(23)_final(4).mov,resources/videos_natural\training(39).mov,False,False,right,0,75,75,75,2018-12-13 12:14:37.137431,2018-12-13 12:14:41.240665,0:00:04.103234,2,right,1,0.36745382477283783,22,m,2,27,2018_Dec_13_1205,MP_PerceptionTuring2,59.93395306860249,
77,resources/videos_generated\model(vcgpdm)-dataset(walking)-mode(ELBO)-parts(1)-dyn(25)-lvm(26)_final(1).mov,resources/videos_natural\training(34).mov,False,False,right,0,76,76,76,2018-12-13 12:14:42.725750,2018-12-13 12:14:46.661975,0:00:03.936225,2,right,1,0.35086576950970993,22,m,2,27,2018_Dec_13_1205,MP_PerceptionTuring2,59.93395306860249,
78,resources/videos_generated\model(vcgpdm)-dataset(walking)-mode(ELBO)-parts(1)-dyn(27)-lvm(26)_final(4).mov,resources/videos_natural\training(23).mov,False,False,right,0,77,77,77,2018-12-13 12:14:48.130059,2018-12-13 12:14:52.050284,0:00:03.920225,2,right,1,0.3173258409301525,22,m,2,27,2018_Dec_13_1205,MP_PerceptionTuring2,59.93395306860249,
79,resources/videos_generated\model(tmp)-dataset(walking)-numprim(14)_final(9).mov,resources/videos_natural\training(43).mov,True,False,right,0,78,78,78,2018-12-13 12:14:53.484366,2018-12-13 12:14:57.421591,0:00:03.937225,2,left,0,0.3505546568860609,22,m,2,27,2018_Dec_13_1205,MP_PerceptionTuring2,59.93395306860249,
80,resources/videos_generated\model(vcgpdm)-dataset(walking)-mode(ELBO)-parts(2)-dyn(25)-lvm(18)_final(0).mov,resources/videos_natural\training(3).mov,True,False,right,0,79,79,79,2018-12-13 12:14:58.889675,2018-12-13 12:15:02.809899,0:00:03.920224,2,right,1,0.4005660864352194,22,m,2,27,2018_Dec_13_1205,MP_PerceptionTuring2,59.93395306860249,
81,resources/videos_generated\model(tmp)-dataset(walking)-numprim(12)_final(7).mov,resources/videos_natural\training(45).mov,True,False,right,0,80,80,80,2018-12-13 12:15:04.327986,2018-12-13 12:15:08.281212,0:00:03.953226,2,left,0,0.40050795987508536,22,m,2,27,2018_Dec_13_1205,MP_PerceptionTuring2,59.93395306860249,
82,resources/videos_generated\model(vcgpdm)-dataset(walking)-mode(ELBO)-parts(2)-dyn(28)-lvm(23)_final(8).mov,resources/videos_natural\training(0).mov,True,False,right,0,81,81,81,2018-12-13 12:15:09.799299,2018-12-13 12:15:13.702522,0:00:03.903223,2,right,1,0.39969991034058694,22,m,2,27,2018_Dec_13_1205,MP_PerceptionTuring2,59.93395306860249,
83,resources/videos_generated\model(vcgpdm)-dataset(walking)-mode(ELBO)-parts(1)-dyn(27)-lvm(28)_final(0).mov,resources/videos_natural\training(30).mov,True,True,left,0,82,82,82,2018-12-13 12:15:15.220609,2018-12-13 12:15:19.140833,0:00:03.920224,2,right,0,0.4840825083929303,22,m,2,27,2018_Dec_13_1205,MP_PerceptionTuring2,59.93395306860249,
84,resources/videos_generated\model(vcgpdm)-dataset(walking)-mode(ELBO)-parts(1)-dyn(22)-lvm(23)_final(1).mov,resources/videos_natural\training(9).mov,True,True,left,0,83,83,83,2018-12-13 12:15:20.741925,2018-12-13 12:15:24.678150,0:00:03.936225,2,left,1,0.3837964233193816,22,m,2,27,2018_Dec_13_1205,MP_PerceptionTuring2,59.93395306860249,
85,resources/videos_generated\model(vcgpdm)-dataset(walking)-mode(ELBO)-parts(2)-dyn(26)-lvm(23)_final(8).mov,resources/videos_natural\training(7).mov,True,False,right,0,84,84,84,2018-12-13 12:15:26.180236,2018-12-13 12:15:30.099460,0:00:03.919224,2,left,0,0.38395243139189006,22,m,2,27,2018_Dec_13_1205,MP_PerceptionTuring2,59.93395306860249,
86,resources/videos_generated\model(vcgpdm)-dataset(walking)-mode(ELBO)-parts(1)-dyn(22)-lvm(25)_final(7).mov,resources/videos_natural\training(3).mov,True,False,right,0,85,85,85,2018-12-13 12:15:31.601546,2018-12-13 12:15:35.687780,0:00:04.086234,2,right,1,0.4506952749732136,22,m,2,27,2018_Dec_13_1205,MP_PerceptionTuring2,59.93395306860249,
87,resources/videos_generated\model(vcgpdm)-dataset(walking)-mode(ELBO)-parts(2)-dyn(24)-lvm(19)_final(0).mov,resources/videos_natural\training(31).mov,True,True,left,0,86,86,86,2018-12-13 12:15:37.255869,2018-12-13 12:15:41.243097,0:00:03.987228,2,left,1,0.28384584595369233,22,m,2,27,2018_Dec_13_1205,MP_PerceptionTuring2,59.93395306860249,
88,resources/videos_generated\model(vcgpdm)-dataset(walking)-mode(ELBO)-parts(2)-dyn(24)-lvm(17)_final(2).mov,resources/videos_natural\training(16).mov,True,False,right,0,87,87,87,2018-12-13 12:15:42.644177,2018-12-13 12:15:46.730411,0:00:04.086234,2,right,1,0.8510005448235916,22,m,2,27,2018_Dec_13_1205,MP_PerceptionTuring2,59.93395306860249,
89,resources/videos_generated\model(vcgpdm)-dataset(walking)-mode(ELBO)-parts(1)-dyn(27)-lvm(24)_final(6).mov,resources/videos_natural\training(37).mov,True,False,right,0,88,88,88,2018-12-13 12:15:48.699524,2018-12-13 12:15:52.752756,0:00:04.053232,2,right,1,0.25078689206929994,22,m,2,27,2018_Dec_13_1205,MP_PerceptionTuring2,59.93395306860249,
90,resources/videos_generated\model(vcgpdm)-dataset(walking)-mode(ELBO)-parts(1)-dyn(27)-lvm(22)_final(8).mov,resources/videos_natural\training(46).mov,False,False,right,0,89,89,89,2018-12-13 12:15:54.120834,2018-12-13 12:15:58.091061,0:00:03.970227,2,left,0,0.40068053251138736,22,m,2,27,2018_Dec_13_1205,MP_PerceptionTuring2,59.93395306860249,
91,resources/videos_generated\model(vcgpdm)-dataset(walking)-mode(ELBO)-parts(2)-dyn(27)-lvm(22)_final(2).mov,resources/videos_natural\training(20).mov,True,True,left,0,90,90,90,2018-12-13 12:16:43.780674,2018-12-13 12:16:47.749901,0:00:03.969227,3,left,1,0.4172643713402522,22,m,2,27,2018_Dec_13_1205,MP_PerceptionTuring2,59.93395306860249,
92,resources/videos_generated\model(vcgpdm)-dataset(walking)-mode(ELBO)-parts(2)-dyn(22)-lvm(17)_final(0).mov,resources/videos_natural\training(7).mov,False,False,right,0,91,91,91,2018-12-13 12:16:49.284989,2018-12-13 12:16:53.205213,0:00:03.920224,3,right,1,0.2504802970538549,22,m,2,27,2018_Dec_13_1205,MP_PerceptionTuring2,59.93395306860249,
93,resources/videos_generated\model(dmp)-dataset(walking)-npsi(80)_final(3).mov,resources/videos_natural\training(48).mov,False,False,right,0,92,92,92,2018-12-13 12:16:54.573292,2018-12-13 12:16:58.593521,0:00:04.020229,3,right,1,0.36728275800601295,22,m,2,27,2018_Dec_13_1205,MP_PerceptionTuring2,59.93395306860249,
94,resources/videos_generated\model(vcgpdm)-dataset(walking)-mode(ELBO)-parts(1)-dyn(24)-lvm(27)_final(7).mov,resources/videos_natural\training(42).mov,True,True,left,0,93,93,93,2018-12-13 12:17:00.077606,2018-12-13 12:17:03.980830,0:00:03.903224,3,left,1,0.5675121922718063,22,m,2,27,2018_Dec_13_1205,MP_PerceptionTuring2,59.93395306860249,
95,resources/videos_generated\model(tmp)-dataset(walking)-numprim(15)_final(5).mov,resources/videos_natural\training(19).mov,False,True,left,0,94,94,94,2018-12-13 12:17:05.666926,2018-12-13 12:17:09.602151,0:00:03.935225,3,right,0,0.30040739791502347,22,m,2,27,2018_Dec_13_1205,MP_PerceptionTuring2,59.93395306860249,
96,resources/videos_generated\model(vcgpdm)-dataset(walking)-mode(ELBO)-parts(2)-dyn(28)-lvm(19)_final(0).mov,resources/videos_natural\training(13).mov,False,False,right,0,95,95,95,2018-12-13 12:17:11.020232,2018-12-13 12:17:14.923455,0:00:03.903223,3,right,1,0.3339235337575701,22,m,2,27,2018_Dec_13_1205,MP_PerceptionTuring2,59.93395306860249,
97,resources/videos_generated\model(vcgpdm)-dataset(walking)-mode(ELBO)-parts(2)-dyn(26)-lvm(17)_final(8).mov,resources/videos_natural\training(28).mov,False,False,right,0,96,96,96,2018-12-13 12:17:16.375539,2018-12-13 12:17:20.445771,0:00:04.070232,3,right,1,0.2837919358282761,22,m,2,27,2018_Dec_13_1205,MP_PerceptionTuring2,59.93395306860249,
98,resources/videos_generated\model(vcgpdm)-dataset(walking)-mode(ELBO)-parts(1)-dyn(23)-lvm(28)_final(7).mov,resources/videos_natural\training(34).mov,True,False,right,0,97,97,97,2018-12-13 12:17:21.846851,2018-12-13 12:17:25.783077,0:00:03.936226,3,left,0,0.6842495996647813,22,m,2,27,2018_Dec_13_1205,MP_PerceptionTuring2,59.93395306860249,
99,resources/videos_generated\model(vcgpdm)-dataset(walking)-mode(ELBO)-parts(1)-dyn(22)-lvm(25)_final(9).mov,resources/videos_natural\training(22).mov,True,False,right,0,98,98,98,2018-12-13 12:17:27.585180,2018-12-13 12:17:31.688414,0:00:04.103234,3,right,1,0.3505932071434472,22,m,2,27,2018_Dec_13_1205,MP_PerceptionTuring2,59.93395306860249,
100,resources/videos_generated\model(vcgpdm)-dataset(walking)-mode(ELBO)-parts(1)-dyn(24)-lvm(23)_final(7).mov,resources/videos_natural\training(42).mov,False,True,left,0,99,99,99,2018-12-13 12:17:33.156498,2018-12-13 12:17:37.092723,0:00:03.936225,3,right,0,0.43387742403547236,22,m,2,27,2018_Dec_13_1205,MP_PerceptionTuring2,59.93395306860249,
101,resources/videos_generated\model(vcgpdm)-dataset(walking)-mode(ELBO)-parts(2)-dyn(26)-lvm(19)_final(0).mov,resources/videos_natural\training(6).mov,True,False,right,0,100,100,100,2018-12-13 12:17:38.644812,2018-12-13 12:17:42.531035,0:00:03.886223,3,right,1,0.36725776057346593,22,m,2,27,2018_Dec_13_1205,MP_PerceptionTuring2,59.93395306860249,
102,resources/videos_generated\model(vcgpdm)-dataset(walking)-mode(ELBO)-parts(2)-dyn(22)-lvm(23)_final(8).mov,resources/videos_natural\training(47).mov,True,False,right,0,101,101,101,2018-12-13 12:17:44.016119,2018-12-13 12:17:47.919343,0:00:03.903224,3,right,1,0.38390635178734556,22,m,2,27,2018_Dec_13_1205,MP_PerceptionTuring2,59.93395306860249,
103,resources/videos_generated\model(vcgpdm)-dataset(walking)-mode(ELBO)-parts(1)-dyn(24)-lvm(27)_final(9).mov,resources/videos_natural\training(6).mov,False,True,left,0,102,102,102,2018-12-13 12:17:49.420429,2018-12-13 12:17:53.306651,0:00:03.886222,3,left,1,0.38402772486324466,22,m,2,27,2018_Dec_13_1205,MP_PerceptionTuring2,59.93395306860249,
104,resources/videos_generated\model(vcgpdm)-dataset(walking)-mode(ELBO)-parts(2)-dyn(26)-lvm(23)_final(6).mov,resources/videos_natural\training(9).mov,False,True,left,0,103,103,103,2018-12-13 12:17:54.808737,2018-12-13 12:17:58.761963,0:00:03.953226,3,right,0,0.3839864640410724,22,m,2,27,2018_Dec_13_1205,MP_PerceptionTuring2,59.93395306860249,
105,resources/videos_generated\model(dmp)-dataset(walking)-npsi(60)_final(3).mov,resources/videos_natural\training(15).mov,True,False,right,0,104,104,104,2018-12-13 12:18:00.263049,2018-12-13 12:18:04.200274,0:00:03.937225,3,left,0,0.4840430546139487,22,m,2,27,2018_Dec_13_1205,MP_PerceptionTuring2,59.93395306860249,
106,resources/videos_generated\model(vcgpdm)-dataset(walking)-mode(ELBO)-parts(1)-dyn(28)-lvm(27)_final(2).mov,resources/videos_natural\training(11).mov,False,False,right,0,105,105,105,2018-12-13 12:18:05.801366,2018-12-13 12:18:09.704589,0:00:03.903223,3,right,1,0.36732432000189874,22,m,2,27,2018_Dec_13_1205,MP_PerceptionTuring2,59.93395306860249,
107,resources/videos_generated\model(vcgpdm)-dataset(walking)-mode(ELBO)-parts(2)-dyn(22)-lvm(19)_final(8).mov,resources/videos_natural\training(11).mov,False,False,right,0,106,106,106,2018-12-13 12:18:11.188674,2018-12-13 12:18:15.075896,0:00:03.887222,3,right,1,0.4506055251554244,22,m,2,27,2018_Dec_13_1205,MP_PerceptionTuring2,59.93395306860249,
108,resources/videos_generated\model(tmp)-dataset(walking)-numprim(11)_final(5).mov,resources/videos_natural\training(39).mov,True,False,right,0,107,107,107,2018-12-13 12:18:16.643986,2018-12-13 12:18:20.747220,0:00:04.103234,3,left,0,0.40054440191534013,22,m,2,27,2018_Dec_13_1205,MP_PerceptionTuring2,59.93395306860249,
109,resources/videos_generated\model(vcgpdm)-dataset(walking)-mode(ELBO)-parts(2)-dyn(26)-lvm(21)_final(2).mov,resources/videos_natural\training(25).mov,True,True,left,0,108,108,108,2018-12-13 12:18:22.265307,2018-12-13 12:18:26.385543,0:00:04.120236,3,left,1,0.5172203698355133,22,m,2,27,2018_Dec_13_1205,MP_PerceptionTuring2,59.93395306860249,
110,resources/videos_generated\model(vcgpdm)-dataset(walking)-mode(ELBO)-parts(1)-dyn(25)-lvm(28)_final(5).mov,resources/videos_natural\training(14).mov,True,False,right,0,109,109,109,2018-12-13 12:18:28.020636,2018-12-13 12:18:31.973862,0:00:03.953226,3,left,0,0.3841069335951488,22,m,2,27,2018_Dec_13_1205,MP_PerceptionTuring2,59.93395306860249,
111,resources/videos_generated\model(vcgpdm)-dataset(walking)-mode(ELBO)-parts(1)-dyn(28)-lvm(27)_final(8).mov,resources/videos_natural\training(43).mov,True,False,right,0,110,110,110,2018-12-13 12:18:33.474948,2018-12-13 12:18:37.512179,0:00:04.037231,3,right,1,0.15051255277694509,22,m,2,27,2018_Dec_13_1205,MP_PerceptionTuring2,59.93395306860249,
112,resources/videos_generated\model(vcgpdm)-dataset(walking)-mode(ELBO)-parts(1)-dyn(25)-lvm(22)_final(1).mov,resources/videos_natural\training(5).mov,True,False,right,0,111,111,111,2018-12-13 12:18:38.779252,2018-12-13 12:18:42.749479,0:00:03.970227,3,right,1,0.40072510624645474,22,m,2,27,2018_Dec_13_1205,MP_PerceptionTuring2,59.93395306860249,
113,resources/videos_generated\model(vcgpdm)-dataset(walking)-mode(ELBO)-parts(2)-dyn(26)-lvm(19)_final(2).mov,resources/videos_natural\training(38).mov,False,False,right,0,112,112,112,2018-12-13 12:18:44.267566,2018-12-13 12:18:48.220792,0:00:03.953226,3,right,1,0.28380247691438854,22,m,2,27,2018_Dec_13_1205,MP_PerceptionTuring2,59.93395306860249,
114,resources/videos_generated\model(vcgpdm)-dataset(walking)-mode(ELBO)-parts(1)-dyn(23)-lvm(28)_final(1).mov,resources/videos_natural\training(18).mov,False,False,right,0,113,113,113,2018-12-13 12:18:49.621872,2018-12-13 12:18:53.526095,0:00:03.904223,3,right,1,0.40062903177727094,22,m,2,27,2018_Dec_13_1205,MP_PerceptionTuring2,59.93395306860249,
115,resources/videos_generated\model(vcgpdm)-dataset(walking)-mode(ELBO)-parts(2)-dyn(28)-lvm(21)_final(8).mov,resources/videos_natural\training(39).mov,False,True,left,0,114,114,114,2018-12-13 12:18:55.044182,2018-12-13 12:18:59.114415,0:00:04.070233,3,right,0,0.3672689040070054,22,m,2,27,2018_Dec_13_1205,MP_PerceptionTuring2,59.93395306860249,
116,resources/videos_generated\model(dmp)-dataset(walking)-npsi(50)_final(9).mov,resources/videos_natural\training(27).mov,True,True,left,0,115,115,115,2018-12-13 12:19:00.598500,2018-12-13 12:19:04.618730,0:00:04.020230,3,left,1,0.36716620371203135,22,m,2,27,2018_Dec_13_1205,MP_PerceptionTuring2,59.93395306860249,
117,resources/videos_generated\model(vcgpdm)-dataset(walking)-mode(ELBO)-parts(1)-dyn(26)-lvm(25)_final(0).mov,resources/videos_natural\training(46).mov,True,False,right,0,116,116,116,2018-12-13 12:19:06.103815,2018-12-13 12:19:10.023039,0:00:03.919224,3,right,1,1.0011601218066062,22,m,2,27,2018_Dec_13_1205,MP_PerceptionTuring2,59.93395306860249,
118,resources/videos_generated\model(vcgpdm)-dataset(walking)-mode(ELBO)-parts(2)-dyn(25)-lvm(22)_final(8).mov,resources/videos_natural\training(20).mov,False,False,right,0,117,117,117,2018-12-13 12:19:12.142160,2018-12-13 12:19:16.045383,0:00:03.903223,3,right,1,0.38389761774465114,22,m,2,27,2018_Dec_13_1205,MP_PerceptionTuring2,59.93395306860249,
119,resources/videos_generated\model(vcgpdm)-dataset(walking)-mode(ELBO)-parts(2)-dyn(27)-lvm(20)_final(0).mov,resources/videos_natural\training(9).mov,True,False,right,0,118,118,118,2018-12-13 12:19:17.546469,2018-12-13 12:19:21.466693,0:00:03.920224,3,right,1,0.3004682350397161,22,m,2,27,2018_Dec_13_1205,MP_PerceptionTuring2,59.93395306860249,
120,resources/videos_generated\model(vcgpdm)-dataset(walking)-mode(ELBO)-parts(2)-dyn(23)-lvm(22)_final(2).mov,resources/videos_natural\training(48).mov,True,True,left,0,119,119,119,2018-12-13 12:19:22.884774,2018-12-13 12:19:26.804999,0:00:03.920225,3,left,1,0.25053842361376155,22,m,2,27,2018_Dec_13_1205,MP_PerceptionTuring2,59.93395306860249,
121,resources/videos_generated\model(vcgpdm)-dataset(walking)-mode(ELBO)-parts(2)-dyn(24)-lvm(17)_final(6).mov,resources/videos_natural\training(44).mov,True,False,right,0,120,120,120,2018-12-13 12:19:28.172077,2018-12-13 12:19:32.092301,0:00:03.920224,3,right,1,0.3173336714512516,22,m,2,27,2018_Dec_13_1205,MP_PerceptionTuring2,59.93395306860249,
122,resources/videos_generated\model(vcgpdm)-dataset(walking)-mode(ELBO)-parts(1)-dyn(27)-lvm(28)_final(4).mov,resources/videos_natural\training(14).mov,False,True,left,0,121,121,121,2018-12-13 12:19:33.527383,2018-12-13 12:19:37.446607,0:00:03.919224,3,right,0,0.9510628577004354,22,m,2,27,2018_Dec_13_1205,MP_PerceptionTuring2,59.93395306860249,
123,resources/videos_generated\model(vcgpdm)-dataset(walking)-mode(ELBO)-parts(2)-dyn(25)-lvm(20)_final(0).mov,resources/videos_natural\training(24).mov,True,False,right,0,122,122,122,2018-12-13 12:19:39.515726,2018-12-13 12:19:43.602959,0:00:04.087233,3,left,0,0.40068053251161473,22,m,2,27,2018_Dec_13_1205,MP_PerceptionTuring2,59.93395306860249,
124,resources/videos_generated\model(vcgpdm)-dataset(walking)-mode(ELBO)-parts(2)-dyn(23)-lvm(22)_final(8).mov,resources/videos_natural\training(13).mov,True,False,right,0,123,123,123,2018-12-13 12:19:45.120046,2018-12-13 12:19:49.207280,0:00:04.087234,3,right,1,0.40061427425666807,22,m,2,27,2018_Dec_13_1205,MP_PerceptionTuring2,59.93395306860249,
125,resources/videos_generated\model(vcgpdm)-dataset(walking)-mode(ELBO)-parts(1)-dyn(28)-lvm(23)_final(4)_fail.mov,resources/videos_natural\training(22).mov,False,False,right,0,124,124,124,2018-12-13 12:19:50.725367,2018-12-13 12:19:54.812601,0:00:04.087234,3,right,1,0.48403733230998114,22,m,2,27,2018_Dec_13_1205,MP_PerceptionTuring2,59.93395306860249,
126,resources/videos_generated\model(dmp)-dataset(walking)-npsi(80)_final(7).mov,resources/videos_natural\training(30).mov,True,False,right,0,125,125,125,2018-12-13 12:19:56.413692,2018-12-13 12:20:00.533928,0:00:04.120236,3,right,1,0.40058897565018015,22,m,2,27,2018_Dec_13_1205,MP_PerceptionTuring2,59.93395306860249,
127,resources/videos_generated\model(vcgpdm)-dataset(walking)-mode(ELBO)-parts(2)-dyn(24)-lvm(21)_final(0).mov,resources/videos_natural\training(8).mov,False,True,left,0,126,126,126,2018-12-13 12:20:02.052015,2018-12-13 12:20:05.955238,0:00:03.903223,3,right,0,0.4506741928014435,22,m,2,27,2018_Dec_13_1205,MP_PerceptionTuring2,59.93395306860249,
128,resources/videos_generated\model(vcgpdm)-dataset(walking)-mode(ELBO)-parts(1)-dyn(23)-lvm(24)_final(6).mov,resources/videos_natural\training(21).mov,False,True,left,0,127,127,127,2018-12-13 12:20:07.523328,2018-12-13 12:20:11.459553,0:00:03.936225,3,left,1,0.3337392153396195,22,m,2,27,2018_Dec_13_1205,MP_PerceptionTuring2,59.93395306860249,
129,resources/videos_generated\model(vcgpdm)-dataset(walking)-mode(ELBO)-parts(1)-dyn(24)-lvm(23)_final(9).mov,resources/videos_natural\training(37).mov,False,True,left,0,128,128,128,2018-12-13 12:20:12.910636,2018-12-13 12:20:16.830860,0:00:03.920224,3,right,0,0.4005865662593351,22,m,2,27,2018_Dec_13_1205,MP_PerceptionTuring2,59.93395306860249,
130,resources/videos_generated\model(vcgpdm)-dataset(walking)-mode(ELBO)-parts(2)-dyn(22)-lvm(17)_final(6).mov,resources/videos_natural\training(15).mov,False,True,left,0,129,129,129,2018-12-13 12:20:18.348947,2018-12-13 12:20:22.286172,0:00:03.937225,3,right,0,0.333968408666351,22,m,2,27,2018_Dec_13_1205,MP_PerceptionTuring2,59.93395306860249,
131,resources/videos_generated\model(vcgpdm)-dataset(walking)-mode(ELBO)-parts(1)-dyn(22)-lvm(25)_final(3).mov,resources/videos_natural\training(41).mov,False,True,left,0,130,130,130,2018-12-13 12:20:23.737255,2018-12-13 12:20:27.673480,0:00:03.936225,3,left,1,0.4007778116765621,22,m,2,27,2018_Dec_13_1205,MP_PerceptionTuring2,59.93395306860249,
132,resources/videos_generated\model(vcgpdm)-dataset(walking)-mode(ELBO)-parts(1)-dyn(23)-lvm(28)_final(5).mov,resources/videos_natural\training(33).mov,True,True,left,0,131,131,131,2018-12-13 12:20:29.191567,2018-12-13 12:20:33.078789,0:00:03.887222,3,left,1,0.4005025387452861,22,m,2,27,2018_Dec_13_1205,MP_PerceptionTuring2,59.93395306860249,
133,resources/videos_generated\model(vcgpdm)-dataset(walking)-mode(ELBO)-parts(1)-dyn(22)-lvm(27)_final(3)_fail.mov,resources/videos_natural\training(25).mov,False,True,left,0,132,132,132,2018-12-13 12:20:34.596876,2018-12-13 12:20:38.517100,0:00:03.920224,3,left,1,0.36734239043516936,22,m,2,27,2018_Dec_13_1205,MP_PerceptionTuring2,59.93395306860249,
134,resources/videos_generated\model(vcgpdm)-dataset(walking)-mode(ELBO)-parts(2)-dyn(23)-lvm(20)_final(2).mov,resources/videos_natural\training(39).mov,True,False,right,0,133,133,133,2018-12-13 12:20:40.001185,2018-12-13 12:20:43.938410,0:00:03.937225,3,left,0,0.383938276219169,22,m,2,27,2018_Dec_13_1205,MP_PerceptionTuring2,59.93395306860249,
135,resources/videos_generated\model(vcgpdm)-dataset(walking)-mode(ELBO)-parts(2)-dyn(27)-lvm(20)_final(4).mov,resources/videos_natural\training(9).mov,False,False,right,0,134,134,134,2018-12-13 12:20:45.439496,2018-12-13 12:20:49.375721,0:00:03.936225,3,right,1,0.31719483028996365,22,m,2,27,2018_Dec_13_1205,MP_PerceptionTuring2,59.93395306860249,
136,resources/videos_generated\model(vcgpdm)-dataset(walking)-mode(ELBO)-parts(2)-dyn(22)-lvm(17)_final(2).mov,resources/videos_natural\training(4).mov,True,False,right,0,135,135,135,2018-12-13 12:21:22.270603,2018-12-13 12:21:26.190827,0:00:03.920224,4,left,0,0.5675667047451043,22,m,2,27,2018_Dec_13_1205,MP_PerceptionTuring2,59.93395306860249,
137,resources/videos_generated\model(vcgpdm)-dataset(walking)-mode(ELBO)-parts(1)-dyn(25)-lvm(28)_final(1).mov,resources/videos_natural\training(44).mov,True,True,left,0,136,136,136,2018-12-13 12:21:27.875924,2018-12-13 12:21:31.863152,0:00:03.987228,4,left,1,0.2170587298112423,22,m,2,27,2018_Dec_13_1205,MP_PerceptionTuring2,59.93395306860249,
138,resources/videos_generated\model(vcgpdm)-dataset(walking)-mode(ELBO)-parts(1)-dyn(23)-lvm(22)_final(4)_fail.mov,resources/videos_natural\training(15).mov,False,True,left,0,137,137,137,2018-12-13 12:21:33.197228,2018-12-13 12:21:37.117452,0:00:03.920224,4,left,1,0.2004700722002326,22,m,2,27,2018_Dec_13_1205,MP_PerceptionTuring2,59.93395306860249,
139,resources/videos_generated\model(vcgpdm)-dataset(walking)-mode(ELBO)-parts(2)-dyn(24)-lvm(23)_final(2).mov,resources/videos_natural\training(13).mov,False,True,left,0,138,138,138,2018-12-13 12:21:38.434527,2018-12-13 12:21:42.321750,0:00:03.887223,4,right,0,0.3838970153969967,22,m,2,27,2018_Dec_13_1205,MP_PerceptionTuring2,59.93395306860249,
140,resources/videos_generated\model(vcgpdm)-dataset(walking)-mode(ELBO)-parts(1)-dyn(25)-lvm(28)_final(7).mov,resources/videos_natural\training(2).mov,False,True,left,0,139,139,139,2018-12-13 12:21:43.822836,2018-12-13 12:21:47.760061,0:00:03.937225,4,right,0,0.28376603487413377,22,m,2,27,2018_Dec_13_1205,MP_PerceptionTuring2,59.93395306860249,
141,resources/videos_generated\model(vcgpdm)-dataset(walking)-mode(ELBO)-parts(1)-dyn(22)-lvm(22)_final(5).mov,resources/videos_natural\training(34).mov,True,True,left,0,140,140,140,2018-12-13 12:21:49.161141,2018-12-13 12:21:53.081365,0:00:03.920224,4,left,1,0.317197540854977,22,m,2,27,2018_Dec_13_1205,MP_PerceptionTuring2,59.93395306860249,
142,resources/videos_generated\model(vcgpdm)-dataset(walking)-mode(ELBO)-parts(1)-dyn(24)-lvm(25)_final(7).mov,resources/videos_natural\training(24).mov,False,False,right,0,141,141,141,2018-12-13 12:21:54.515447,2018-12-13 12:21:58.602681,0:00:04.087234,4,left,0,0.3173740287518285,22,m,2,27,2018_Dec_13_1205,MP_PerceptionTuring2,59.93395306860249,
143,resources/videos_generated\model(vcgpdm)-dataset(walking)-mode(ELBO)-parts(2)-dyn(27)-lvm(20)_final(2).mov,resources/videos_natural\training(32).mov,True,False,right,0,142,142,142,2018-12-13 12:22:00.036763,2018-12-13 12:22:03.973988,0:00:03.937225,4,left,0,0.3338940187168191,22,m,2,27,2018_Dec_13_1205,MP_PerceptionTuring2,59.93395306860249,
144,resources/videos_generated\model(vcgpdm)-dataset(walking)-mode(ELBO)-parts(1)-dyn(27)-lvm(26)_final(6).mov,resources/videos_natural\training(32).mov,True,False,right,0,143,143,143,2018-12-13 12:22:05.425071,2018-12-13 12:22:09.361296,0:00:03.936225,4,right,1,0.3170472550859813,22,m,2,27,2018_Dec_13_1205,MP_PerceptionTuring2,59.93395306860249,
145,resources/videos_generated\model(vcgpdm)-dataset(walking)-mode(ELBO)-parts(2)-dyn(27)-lvm(20)_final(6).mov,resources/videos_natural\training(36).mov,True,False,right,0,144,144,144,2018-12-13 12:22:10.796378,2018-12-13 12:22:14.716603,0:00:03.920225,4,left,0,0.384068082164049,22,m,2,27,2018_Dec_13_1205,MP_PerceptionTuring2,59.93395306860249,
146,resources/videos_generated\model(vcgpdm)-dataset(walking)-mode(ELBO)-parts(1)-dyn(24)-lvm(27)_final(1).mov,resources/videos_natural\training(13).mov,False,True,left,0,145,145,145,2018-12-13 12:22:16.217689,2018-12-13 12:22:20.154914,0:00:03.937225,4,left,1,0.31715266594619607,22,m,2,27,2018_Dec_13_1205,MP_PerceptionTuring2,59.93395306860249,
147,resources/videos_generated\model(vcgpdm)-dataset(walking)-mode(ELBO)-parts(1)-dyn(23)-lvm(28)_final(3)_hip-corrected.mov,resources/videos_natural\training(16).mov,True,True,left,0,146,146,146,2018-12-13 12:22:21.588996,2018-12-13 12:22:25.509220,0:00:03.920224,4,left,1,0.333871129501631,22,m,2,27,2018_Dec_13_1205,MP_PerceptionTuring2,59.93395306860249,
148,resources/videos_generated\model(vcgpdm)-dataset(walking)-mode(ELBO)-parts(2)-dyn(25)-lvm(18)_final(6).mov,resources/videos_natural\training(35).mov,False,False,right,0,147,147,147,2018-12-13 12:22:26.960303,2018-12-13 12:22:30.863526,0:00:03.903223,4,right,1,0.28383861778047503,22,m,2,27,2018_Dec_13_1205,MP_PerceptionTuring2,59.93395306860249,
149,resources/videos_generated\model(vcgpdm)-dataset(walking)-mode(ELBO)-parts(2)-dyn(25)-lvm(20)_final(4).mov,resources/videos_natural\training(28).mov,False,False,right,0,148,148,148,2018-12-13 12:22:32.264606,2018-12-13 12:22:36.184831,0:00:03.920225,4,left,0,0.28378139474239106,22,m,2,27,2018_Dec_13_1205,MP_PerceptionTuring2,59.93395306860249,
150,resources/videos_generated\model(vcgpdm)-dataset(walking)-mode(ELBO)-parts(1)-dyn(26)-lvm(25)_final(6).mov,resources/videos_natural\training(31).mov,False,False,right,0,149,149,149,2018-12-13 12:22:37.585911,2018-12-13 12:22:41.506135,0:00:03.920224,4,right,1,0.3005832834639932,22,m,2,27,2018_Dec_13_1205,MP_PerceptionTuring2,59.93395306860249,
151,resources/videos_generated\model(vcgpdm)-dataset(walking)-mode(ELBO)-parts(1)-dyn(23)-lvm(26)_final(4)_hip-corrected.mov,resources/videos_natural\training(20).mov,True,False,right,0,150,150,150,2018-12-13 12:22:42.924216,2018-12-13 12:22:46.827439,0:00:03.903223,4,left,0,0.46706046156100456,22,m,2,27,2018_Dec_13_1205,MP_PerceptionTuring2,59.93395306860249,
152,resources/videos_generated\model(vcgpdm)-dataset(walking)-mode(ELBO)-parts(1)-dyn(25)-lvm(23)_final(2).mov,resources/videos_natural\training(11).mov,True,False,right,0,151,151,151,2018-12-13 12:22:48.412530,2018-12-13 12:22:52.332754,0:00:03.920224,4,right,1,0.3004402258684422,22,m,2,27,2018_Dec_13_1205,MP_PerceptionTuring2,59.93395306860249,
153,resources/videos_generated\model(vcgpdm)-dataset(walking)-mode(ELBO)-parts(2)-dyn(26)-lvm(21)_final(4).mov,resources/videos_natural\training(23).mov,False,True,left,0,152,152,152,2018-12-13 12:22:53.749835,2018-12-13 12:22:57.670059,0:00:03.920224,4,left,1,0.28395517207422927,22,m,2,27,2018_Dec_13_1205,MP_PerceptionTuring2,59.93395306860249,
154,resources/videos_generated\model(vcgpdm)-dataset(walking)-mode(ELBO)-parts(1)-dyn(23)-lvm(22)_final(0).mov,resources/videos_natural\training(17).mov,False,False,right,0,153,153,153,2018-12-13 12:22:59.071140,2018-12-13 12:23:03.008365,0:00:03.937225,4,right,1,0.3506531407467719,22,m,2,27,2018_Dec_13_1205,MP_PerceptionTuring2,59.93395306860249,
155,resources/videos_generated\model(vcgpdm)-dataset(walking)-mode(ELBO)-parts(2)-dyn(27)-lvm(18)_final(6).mov,resources/videos_natural\training(2).mov,False,False,right,0,154,154,154,2018-12-13 12:23:04.476449,2018-12-13 12:23:08.412674,0:00:03.936225,4,right,1,0.2839268617287871,22,m,2,27,2018_Dec_13_1205,MP_PerceptionTuring2,59.93395306860249,
156,resources/videos_generated\model(vcgpdm)-dataset(walking)-mode(ELBO)-parts(1)-dyn(28)-lvm(23)_final(8).mov,resources/videos_natural\training(31).mov,True,True,left,0,155,155,155,2018-12-13 12:23:09.813754,2018-12-13 12:23:13.833984,0:00:04.020230,4,left,1,0.30070556006148763,22,m,2,27,2018_Dec_13_1205,MP_PerceptionTuring2,59.93395306860249,
157,resources/videos_generated\model(vcgpdm)-dataset(walking)-mode(ELBO)-parts(2)-dyn(25)-lvm(22)_final(6).mov,resources/videos_natural\training(24).mov,True,True,left,0,156,156,156,2018-12-13 12:23:15.252065,2018-12-13 12:23:19.155288,0:00:03.903223,4,left,1,0.31714995538118274,22,m,2,27,2018_Dec_13_1205,MP_PerceptionTuring2,59.93395306860249,
158,resources/videos_generated\model(vcgpdm)-dataset(walking)-mode(ELBO)-parts(1)-dyn(28)-lvm(25)_final(6).mov,resources/videos_natural\training(5).mov,True,True,left,0,157,157,157,2018-12-13 12:23:20.590370,2018-12-13 12:23:24.626601,0:00:04.036231,4,left,1,0.3004598021709626,22,m,2,27,2018_Dec_13_1205,MP_PerceptionTuring2,59.93395306860249,
159,resources/videos_generated\model(vcgpdm)-dataset(walking)-mode(ELBO)-parts(1)-dyn(27)-lvm(22)_final(6).mov,resources/videos_natural\training(22).mov,False,False,right,0,158,158,158,2018-12-13 12:23:26.044682,2018-12-13 12:23:29.947906,0:00:03.903224,4,right,1,0.2505064991819381,22,m,2,27,2018_Dec_13_1205,MP_PerceptionTuring2,59.93395306860249,
160,resources/videos_generated\model(tmp)-dataset(walking)-numprim(11)_final(1).mov,resources/videos_natural\training(17).mov,True,False,right,0,159,159,159,2018-12-13 12:23:31.315984,2018-12-13 12:23:35.436220,0:00:04.120236,4,left,0,0.2837298940078199,22,m,2,27,2018_Dec_13_1205,MP_PerceptionTuring2,59.93395306860249,
161,resources/videos_generated\model(vcgpdm)-dataset(walking)-mode(ELBO)-parts(2)-dyn(24)-lvm(21)_final(6).mov,resources/videos_natural\training(35).mov,False,True,left,0,160,160,160,2018-12-13 12:23:36.837300,2018-12-13 12:23:40.774525,0:00:03.937225,4,right,0,0.5507515643723764,22,m,2,27,2018_Dec_13_1205,MP_PerceptionTuring2,59.93395306860249,
162,resources/videos_generated\model(vcgpdm)-dataset(walking)-mode(ELBO)-parts(1)-dyn(28)-lvm(25)_final(2).mov,resources/videos_natural\training(15).mov,False,True,left,0,161,161,161,2018-12-13 12:23:42.442620,2018-12-13 12:23:46.378845,0:00:03.936225,4,left,1,0.41718335556493,22,m,2,27,2018_Dec_13_1205,MP_PerceptionTuring2,59.93395306860249,
163,resources/videos_generated\model(tmp)-dataset(walking)-numprim(15)_final(7).mov,resources/videos_natural\training(40).mov,False,False,right,0,162,162,162,2018-12-13 12:23:47.913933,2018-12-13 12:23:52.034169,0:00:04.120236,4,right,1,0.2504953557479439,22,m,2,27,2018_Dec_13_1205,MP_PerceptionTuring2,59.93395306860249,
164,resources/videos_generated\model(vcgpdm)-dataset(walking)-mode(ELBO)-parts(1)-dyn(27)-lvm(28)_final(6).mov,resources/videos_natural\training(38).mov,True,False,right,0,163,163,163,2018-12-13 12:23:53.401247,2018-12-13 12:23:57.321471,0:00:03.920224,4,right,1,0.2839864941583983,22,m,2,27,2018_Dec_13_1205,MP_PerceptionTuring2,59.93395306860249,
165,resources/videos_generated\model(dmp)-dataset(walking)-npsi(90)_final(9).mov,resources/videos_natural\training(9).mov,False,False,right,0,164,164,164,2018-12-13 12:23:58.722551,2018-12-13 12:24:02.809785,0:00:04.087234,4,left,0,0.350598327099533,22,m,2,27,2018_Dec_13_1205,MP_PerceptionTuring2,59.93395306860249,
166,resources/videos_generated\model(tmp)-dataset(walking)-numprim(14)_final(7).mov,resources/videos_natural\training(18).mov,False,False,right,0,165,165,165,2018-12-13 12:24:04.277869,2018-12-13 12:24:08.248096,0:00:03.970227,4,right,1,0.30075254318762745,22,m,2,27,2018_Dec_13_1205,MP_PerceptionTuring2,59.93395306860249,
167,resources/videos_generated\model(dmp)-dataset(walking)-npsi(80)_final(5).mov,resources/videos_natural\training(48).mov,True,True,left,0,166,166,166,2018-12-13 12:24:09.666177,2018-12-13 12:24:13.619404,0:00:03.953227,4,left,1,0.3670978372401805,22,m,2,27,2018_Dec_13_1205,MP_PerceptionTuring2,59.93395306860249,
168,resources/videos_generated\model(vcgpdm)-dataset(walking)-mode(ELBO)-parts(2)-dyn(27)-lvm(22)_final(4).mov,resources/videos_natural\training(43).mov,True,False,right,0,167,167,167,2018-12-13 12:24:15.103488,2018-12-13 12:24:19.023713,0:00:03.920225,4,left,0,0.23387356900980194,22,m,2,27,2018_Dec_13_1205,MP_PerceptionTuring2,59.93395306860249,
169,resources/videos_generated\model(vcgpdm)-dataset(walking)-mode(ELBO)-parts(1)-dyn(23)-lvm(26)_final(6)_hip-corrected.mov,resources/videos_natural\training(45).mov,True,False,right,0,168,168,168,2018-12-13 12:24:20.374790,2018-12-13 12:24:24.412021,0:00:04.037231,4,right,1,0.3672920943963618,22,m,2,27,2018_Dec_13_1205,MP_PerceptionTuring2,59.93395306860249,
170,resources/videos_generated\model(vcgpdm)-dataset(walking)-mode(ELBO)-parts(1)-dyn(26)-lvm(23)_final(2).mov,resources/videos_natural\training(23).mov,False,True,left,0,169,169,169,2018-12-13 12:24:25.896106,2018-12-13 12:24:30.016341,0:00:04.120235,4,right,0,0.3506245292276162,22,m,2,27,2018_Dec_13_1205,MP_PerceptionTuring2,59.93395306860249,
171,resources/videos_generated\model(vcgpdm)-dataset(walking)-mode(ELBO)-parts(2)-dyn(27)-lvm(18)_final(2).mov,resources/videos_natural\training(26).mov,True,False,right,0,170,170,170,2018-12-13 12:24:31.484425,2018-12-13 12:24:35.404650,0:00:03.920225,4,right,1,0.28384042482389304,22,m,2,27,2018_Dec_13_1205,MP_PerceptionTuring2,59.93395306860249,
172,resources/videos_generated\model(vcgpdm)-dataset(walking)-mode(ELBO)-parts(2)-dyn(22)-lvm(19)_final(4).mov,resources/videos_natural\training(45).mov,False,False,right,0,171,171,171,2018-12-13 12:24:36.805730,2018-12-13 12:24:40.758956,0:00:03.953226,4,right,1,0.33381270176778344,22,m,2,27,2018_Dec_13_1205,MP_PerceptionTuring2,59.93395306860249,
173,resources/videos_generated\model(vcgpdm)-dataset(walking)-mode(ELBO)-parts(1)-dyn(27)-lvm(26)_final(2).mov,resources/videos_natural\training(0).mov,True,False,right,0,172,172,172,2018-12-13 12:24:42.211039,2018-12-13 12:24:46.131263,0:00:03.920224,4,right,1,0.2838277755206491,22,m,2,27,2018_Dec_13_1205,MP_PerceptionTuring2,59.93395306860249,
174,resources/videos_generated\model(dmp)-dataset(walking)-npsi(90)_final(5).mov,resources/videos_natural\training(14).mov,False,True,left,0,173,173,173,2018-12-13 12:24:47.532343,2018-12-13 12:24:51.435566,0:00:03.903223,4,right,0,0.3340108741842869,22,m,2,27,2018_Dec_13_1205,MP_PerceptionTuring2,59.93395306860249,
175,resources/videos_generated\model(tmp)-dataset(walking)-numprim(13)_final(5).mov,resources/videos_natural\training(14).mov,True,True,left,0,174,174,174,2018-12-13 12:24:52.886649,2018-12-13 12:24:56.789873,0:00:03.903224,4,left,1,0.25049053696579904,22,m,2,27,2018_Dec_13_1205,MP_PerceptionTuring2,59.93395306860249,
176,resources/videos_generated\model(vcgpdm)-dataset(walking)-mode(ELBO)-parts(1)-dyn(26)-lvm(27)_final(2).mov,resources/videos_natural\training(33).mov,True,True,left,0,175,175,175,2018-12-13 12:24:58.157951,2018-12-13 12:25:02.261186,0:00:04.103235,4,right,0,0.23378321684413095,22,m,2,27,2018_Dec_13_1205,MP_PerceptionTuring2,59.93395306860249,
177,resources/videos_generated\model(dmp)-dataset(walking)-npsi(60)_final(1).mov,resources/videos_natural\training(19).mov,False,True,left,0,176,176,176,2018-12-13 12:25:03.612263,2018-12-13 12:25:07.549488,0:00:03.937225,4,left,1,0.300582078768457,22,m,2,27,2018_Dec_13_1205,MP_PerceptionTuring2,59.93395306860249,
178,resources/videos_generated\model(vcgpdm)-dataset(walking)-mode(ELBO)-parts(2)-dyn(23)-lvm(20)_final(4).mov,resources/videos_natural\training(9).mov,False,False,right,0,177,177,177,2018-12-13 12:25:08.966569,2018-12-13 12:25:13.036802,0:00:04.070233,4,right,1,0.23387537605321995,22,m,2,27,2018_Dec_13_1205,MP_PerceptionTuring2,59.93395306860249,
179,resources/videos_generated\model(dmp)-dataset(walking)-npsi(90)_final(7).mov,resources/videos_natural\training(27).mov,True,False,right,0,178,178,178,2018-12-13 12:25:14.388879,2018-12-13 12:25:18.375107,0:00:03.986228,4,left,0,0.2506643142978646,22,m,2,27,2018_Dec_13_1205,MP_PerceptionTuring2,59.93395306860249,
180,resources/videos_generated\model(vcgpdm)-dataset(walking)-mode(ELBO)-parts(1)-dyn(25)-lvm(26)_final(5).mov,resources/videos_natural\training(11).mov,True,False,right,0,179,179,179,2018-12-13 12:25:19.743186,2018-12-13 12:25:23.830419,0:00:04.087233,4,right,1,0.23377839806221345,22,m,2,27,2018_Dec_13_1205,MP_PerceptionTuring2,59.93395306860249,
181,resources/videos_generated\model(vcgpdm)-dataset(walking)-mode(ELBO)-parts(1)-dyn(28)-lvm(24)_final(0).mov,resources/videos_natural\training(5).mov,False,False,right,0,180,180,180,2018-12-13 12:25:59.193442,2018-12-13 12:26:03.130667,0:00:03.937225,5,right,1,0.23376153232447905,22,m,2,27,2018_Dec_13_1205,MP_PerceptionTuring2,59.93395306860249,
182,resources/videos_generated\model(vcgpdm)-dataset(walking)-mode(ELBO)-parts(2)-dyn(28)-lvm(17)_final(2).mov,resources/videos_natural\training(41).mov,True,True,left,0,181,181,181,2018-12-13 12:26:04.481744,2018-12-13 12:26:08.551977,0:00:04.070233,5,left,1,0.30064622880604475,22,m,2,27,2018_Dec_13_1205,MP_PerceptionTuring2,59.93395306860249,
183,resources/videos_generated\model(vcgpdm)-dataset(walking)-mode(ELBO)-parts(1)-dyn(25)-lvm(24)_final(2).mov,resources/videos_natural\training(21).mov,True,True,left,0,182,182,182,2018-12-13 12:26:09.970058,2018-12-13 12:26:14.056292,0:00:04.086234,5,left,1,0.3170635184760613,22,m,2,27,2018_Dec_13_1205,MP_PerceptionTuring2,59.93395306860249,
184,resources/videos_generated\model(vcgpdm)-dataset(walking)-mode(ELBO)-parts(1)-dyn(22)-lvm(23)_final(7).mov,resources/videos_natural\training(16).mov,False,False,right,0,183,183,183,2018-12-13 12:26:15.491374,2018-12-13 12:26:19.527605,0:00:04.036231,5,right,1,0.23380670840742823,22,m,2,27,2018_Dec_13_1205,MP_PerceptionTuring2,59.93395306860249,
185,resources/videos_generated\model(vcgpdm)-dataset(walking)-mode(ELBO)-parts(2)-dyn(27)-lvm(22)_final(0).mov,resources/videos_natural\training(45).mov,False,True,left,0,184,184,184,2018-12-13 12:26:20.879682,2018-12-13 12:26:24.815908,0:00:03.936226,5,right,0,0.2837533855711172,22,m,2,27,2018_Dec_13_1205,MP_PerceptionTuring2,59.93395306860249,
186,resources/videos_generated\model(vcgpdm)-dataset(walking)-mode(ELBO)-parts(2)-dyn(23)-lvm(18)_final(8).mov,resources/videos_natural\training(1).mov,True,True,left,0,185,185,185,2018-12-13 12:26:26.216988,2018-12-13 12:26:30.137212,0:00:03.920224,5,left,1,0.21714697375955438,22,m,2,27,2018_Dec_13_1205,MP_PerceptionTuring2,59.93395306860249,
187,resources/videos_generated\model(vcgpdm)-dataset(walking)-mode(ELBO)-parts(2)-dyn(28)-lvm(23)_final(2).mov,resources/videos_natural\training(25).mov,False,True,left,0,186,186,186,2018-12-13 12:26:31.471288,2018-12-13 12:26:35.558522,0:00:04.087234,5,left,1,0.28382506495563575,22,m,2,27,2018_Dec_13_1205,MP_PerceptionTuring2,59.93395306860249,
188,resources/videos_generated\model(dmp)-dataset(walking)-npsi(70)_final(3).mov,resources/videos_natural\training(46).mov,False,False,right,0,187,187,187,2018-12-13 12:26:36.959602,2018-12-13 12:26:40.879826,0:00:03.920224,5,right,1,0.48404576517896203,22,m,2,27,2018_Dec_13_1205,MP_PerceptionTuring2,59.93395306860249,
189,resources/videos_generated\model(tmp)-dataset(walking)-numprim(15)_final(9).mov,resources/videos_natural\training(26).mov,True,False,right,0,188,188,188,2018-12-13 12:26:42.480918,2018-12-13 12:26:46.569152,0:00:04.088234,5,left,0,0.25059293608705957,22,m,2,27,2018_Dec_13_1205,MP_PerceptionTuring2,59.93395306860249,
190,resources/videos_generated\model(dmp)-dataset(walking)-npsi(100)_final(1).mov,resources/videos_natural\training(41).mov,False,False,right,0,189,189,189,2018-12-13 12:26:47.936230,2018-12-13 12:26:51.839453,0:00:03.903223,5,right,1,0.20038182825192052,22,m,2,27,2018_Dec_13_1205,MP_PerceptionTuring2,59.93395306860249,
191,resources/videos_generated\model(vcgpdm)-dataset(walking)-mode(ELBO)-parts(2)-dyn(24)-lvm(17)_final(4).mov,resources/videos_natural\training(46).mov,True,True,left,0,190,190,190,2018-12-13 12:26:53.163529,2018-12-13 12:26:57.093754,0:00:03.930225,5,left,1,0.20043784659469566,22,m,2,27,2018_Dec_13_1205,MP_PerceptionTuring2,59.93395306860249,
192,resources/videos_generated\model(vcgpdm)-dataset(walking)-mode(ELBO)-parts(2)-dyn(25)-lvm(20)_final(6).mov,resources/videos_natural\training(21).mov,False,False,right,0,191,191,191,2018-12-13 12:26:58.411829,2018-12-13 12:27:02.332053,0:00:03.920224,5,right,1,0.25048722405335866,22,m,2,27,2018_Dec_13_1205,MP_PerceptionTuring2,59.93395306860249,
193,resources/videos_generated\model(vcgpdm)-dataset(walking)-mode(ELBO)-parts(2)-dyn(23)-lvm(20)_final(0).mov,resources/videos_natural\training(22).mov,True,True,left,0,192,192,192,2018-12-13 12:27:03.699132,2018-12-13 12:27:07.619356,0:00:03.920224,5,left,1,0.3005742482475853,22,m,2,27,2018_Dec_13_1205,MP_PerceptionTuring2,59.93395306860249,
194,resources/videos_generated\model(vcgpdm)-dataset(walking)-mode(ELBO)-parts(2)-dyn(23)-lvm(18)_final(6).mov,resources/videos_natural\training(32).mov,True,False,right,0,193,193,193,2018-12-13 12:27:09.037437,2018-12-13 12:27:12.957661,0:00:03.920224,5,left,0,0.4840442593094849,22,m,2,27,2018_Dec_13_1205,MP_PerceptionTuring2,59.93395306860249,
195,resources/videos_generated\model(tmp)-dataset(walking)-numprim(12)_final(3).mov,resources/videos_natural\training(40).mov,False,True,left,0,194,194,194,2018-12-13 12:27:14.558753,2018-12-13 12:27:18.495978,0:00:03.937225,5,right,0,0.3171077910369604,22,m,2,27,2018_Dec_13_1205,MP_PerceptionTuring2,59.93395306860249,
196,resources/videos_generated\model(vcgpdm)-dataset(walking)-mode(ELBO)-parts(2)-dyn(28)-lvm(23)_final(4)_fail.mov,resources/videos_natural\training(3).mov,True,False,right,0,195,195,195,2018-12-13 12:27:19.930060,2018-12-13 12:27:23.867285,0:00:03.937225,5,right,1,0.2838741562989071,22,m,2,27,2018_Dec_13_1205,MP_PerceptionTuring2,59.93395306860249,
197,resources/videos_generated\model(vcgpdm)-dataset(walking)-mode(ELBO)-parts(1)-dyn(28)-lvm(27)_final(6).mov,resources/videos_natural\training(19).mov,False,True,left,0,196,196,196,2018-12-13 12:27:25.268365,2018-12-13 12:27:29.188589,0:00:03.920224,5,left,1,0.4174261017167282,22,m,2,27,2018_Dec_13_1205,MP_PerceptionTuring2,59.93395306860249,
198,resources/videos_generated\model(vcgpdm)-dataset(walking)-mode(ELBO)-parts(1)-dyn(25)-lvm(24)_final(4).mov,resources/videos_natural\training(36).mov,False,True,left,0,197,197,197,2018-12-13 12:27:30.722677,2018-12-13 12:27:34.659902,0:00:03.937225,5,left,1,0.26732766303211974,22,m,2,27,2018_Dec_13_1205,MP_PerceptionTuring2,59.93395306860249,
199,resources/videos_generated\model(vcgpdm)-dataset(walking)-mode(ELBO)-parts(2)-dyn(23)-lvm(22)_final(0).mov,resources/videos_natural\training(28).mov,False,False,right,0,198,198,198,2018-12-13 12:27:36.043982,2018-12-13 12:27:39.997208,0:00:03.953226,5,right,1,0.21695392129890934,22,m,2,27,2018_Dec_13_1205,MP_PerceptionTuring2,59.93395306860249,
200,resources/videos_generated\model(vcgpdm)-dataset(walking)-mode(ELBO)-parts(1)-dyn(26)-lvm(23)_final(8).mov,resources/videos_natural\training(18).mov,True,False,right,0,199,199,199,2018-12-13 12:27:41.332284,2018-12-13 12:27:45.252508,0:00:03.920224,5,right,1,0.20045983228828845,22,m,2,27,2018_Dec_13_1205,MP_PerceptionTuring2,59.93395306860249,
201,resources/videos_generated\model(vcgpdm)-dataset(walking)-mode(ELBO)-parts(2)-dyn(26)-lvm(19)_final(4).mov,resources/videos_natural\training(8).mov,True,True,left,0,200,200,200,2018-12-13 12:27:46.569584,2018-12-13 12:27:50.489808,0:00:03.920224,5,left,1,0.40066095620909437,22,m,2,27,2018_Dec_13_1205,MP_PerceptionTuring2,59.93395306860249,
202,resources/videos_generated\model(vcgpdm)-dataset(walking)-mode(ELBO)-parts(2)-dyn(28)-lvm(17)_final(6).mov,resources/videos_natural\training(8).mov,True,False,right,0,201,201,201,2018-12-13 12:27:52.007895,2018-12-13 12:27:55.928119,0:00:03.920224,5,right,1,0.2840542582825947,22,m,2,27,2018_Dec_13_1205,MP_PerceptionTuring2,59.93395306860249,
203,resources/videos_generated\model(vcgpdm)-dataset(walking)-mode(ELBO)-parts(2)-dyn(28)-lvm(19)_final(2).mov,resources/videos_natural\training(40).mov,True,False,right,0,202,202,202,2018-12-13 12:27:57.329199,2018-12-13 12:28:01.266424,0:00:03.937225,5,right,1,0.2505215578762545,22,m,2,27,2018_Dec_13_1205,MP_PerceptionTuring2,59.93395306860249,
204,resources/videos_generated\model(tmp)-dataset(walking)-numprim(13)_final(1).mov,resources/videos_natural\training(7).mov,True,False,right,0,203,203,203,2018-12-13 12:28:02.633502,2018-12-13 12:28:06.570728,0:00:03.937226,5,right,1,0.2336916599831511,22,m,2,27,2018_Dec_13_1205,MP_PerceptionTuring2,59.93395306860249,
205,resources/videos_generated\model(vcgpdm)-dataset(walking)-mode(ELBO)-parts(1)-dyn(25)-lvm(22)_final(7).mov,resources/videos_natural\training(10).mov,False,True,left,0,204,204,204,2018-12-13 12:28:07.921805,2018-12-13 12:28:11.959036,0:00:04.037231,5,left,1,0.250540833004834,22,m,2,27,2018_Dec_13_1205,MP_PerceptionTuring2,59.93395306860249,
206,resources/videos_generated\model(dmp)-dataset(walking)-npsi(50)_final(3).mov,resources/videos_natural\training(41).mov,True,True,left,0,205,205,205,2018-12-13 12:28:13.326114,2018-12-13 12:28:17.296341,0:00:03.970227,5,left,1,0.283903972513599,22,m,2,27,2018_Dec_13_1205,MP_PerceptionTuring2,59.93395306860249,
207,resources/videos_generated\model(dmp)-dataset(walking)-npsi(70)_final(1).mov,resources/videos_natural\training(17).mov,True,True,left,0,206,206,206,2018-12-13 12:28:18.698421,2018-12-13 12:28:22.717651,0:00:04.019230,5,right,0,0.38396749008620645,22,m,2,27,2018_Dec_13_1205,MP_PerceptionTuring2,59.93395306860249,
208,resources/videos_generated\model(vcgpdm)-dataset(walking)-mode(ELBO)-parts(2)-dyn(25)-lvm(20)_final(2).mov,resources/videos_natural\training(30).mov,True,False,right,0,207,207,207,2018-12-13 12:28:24.218737,2018-12-13 12:28:28.205965,0:00:03.987228,5,left,0,0.21708402841750285,22,m,2,27,2018_Dec_13_1205,MP_PerceptionTuring2,59.93395306860249,
209,resources/videos_generated\model(vcgpdm)-dataset(walking)-mode(ELBO)-parts(1)-dyn(26)-lvm(25)_final(2).mov,resources/videos_natural\training(28).mov,False,True,left,0,208,208,208,2018-12-13 12:28:29.541041,2018-12-13 12:28:33.477267,0:00:03.936226,5,left,1,0.36703669894131963,22,m,2,27,2018_Dec_13_1205,MP_PerceptionTuring2,59.93395306860249,
210,resources/videos_generated\model(vcgpdm)-dataset(walking)-mode(ELBO)-parts(2)-dyn(22)-lvm(21)_final(6).mov,resources/videos_natural\training(28).mov,False,False,right,0,209,209,209,2018-12-13 12:28:34.962351,2018-12-13 12:28:38.898577,0:00:03.936226,5,right,1,0.3338181228975827,22,m,2,27,2018_Dec_13_1205,MP_PerceptionTuring2,59.93395306860249,
211,resources/videos_generated\model(vcgpdm)-dataset(walking)-mode(ELBO)-parts(2)-dyn(22)-lvm(21)_final(0).mov,resources/videos_natural\training(23).mov,False,True,left,0,210,210,210,2018-12-13 12:28:40.349660,2018-12-13 12:28:44.402891,0:00:04.053231,5,left,1,0.3840012215612205,22,m,2,27,2018_Dec_13_1205,MP_PerceptionTuring2,59.93395306860249,
212,resources/videos_generated\model(tmp)-dataset(walking)-numprim(12)_final(1).mov,resources/videos_natural\training(4).mov,True,True,left,0,211,211,211,2018-12-13 12:28:45.904977,2018-12-13 12:28:49.858203,0:00:03.953226,5,left,1,0.2841075660603565,22,m,2,27,2018_Dec_13_1205,MP_PerceptionTuring2,59.93395306860249,
213,resources/videos_generated\model(vcgpdm)-dataset(walking)-mode(ELBO)-parts(1)-dyn(28)-lvm(25)_final(0).mov,resources/videos_natural\training(32).mov,True,False,right,0,212,212,212,2018-12-13 12:28:51.259284,2018-12-13 12:28:55.362518,0:00:04.103234,5,right,1,0.2671445493099327,22,m,2,27,2018_Dec_13_1205,MP_PerceptionTuring2,59.93395306860249,
214,resources/videos_generated\model(vcgpdm)-dataset(walking)-mode(ELBO)-parts(2)-dyn(26)-lvm(17)_final(6).mov,resources/videos_natural\training(48).mov,False,False,right,0,213,213,213,2018-12-13 12:28:56.747598,2018-12-13 12:29:00.650821,0:00:03.903223,5,right,1,0.2838976478622044,22,m,2,27,2018_Dec_13_1205,MP_PerceptionTuring2,59.93395306860249,
215,resources/videos_generated\model(vcgpdm)-dataset(walking)-mode(ELBO)-parts(1)-dyn(22)-lvm(22)_final(7).mov,resources/videos_natural\training(24).mov,True,False,right,0,214,214,214,2018-12-13 12:29:02.051901,2018-12-13 12:29:05.955124,0:00:03.903223,5,right,1,0.33393889362560003,22,m,2,27,2018_Dec_13_1205,MP_PerceptionTuring2,59.93395306860249,
216,resources/videos_generated\model(vcgpdm)-dataset(walking)-mode(ELBO)-parts(1)-dyn(22)-lvm(27)_final(7)_hip-corrected.mov,resources/videos_natural\training(16).mov,True,True,left,0,215,215,215,2018-12-13 12:29:07.406207,2018-12-13 12:29:11.410436,0:00:04.004229,5,left,1,0.2838515682576599,22,m,2,27,2018_Dec_13_1205,MP_PerceptionTuring2,59.93395306860249,
217,resources/videos_generated\model(vcgpdm)-dataset(walking)-mode(ELBO)-parts(2)-dyn(25)-lvm(18)_final(2).mov,resources/videos_natural\training(25).mov,True,True,left,0,216,216,216,2018-12-13 12:29:12.811516,2018-12-13 12:29:16.714740,0:00:03.903224,5,left,1,0.3005874998982563,22,m,2,27,2018_Dec_13_1205,MP_PerceptionTuring2,59.93395306860249,
218,resources/videos_generated\model(vcgpdm)-dataset(walking)-mode(ELBO)-parts(2)-dyn(27)-lvm(18)_final(8).mov,resources/videos_natural\training(15).mov,False,True,left,0,217,217,217,2018-12-13 12:29:18.132821,2018-12-13 12:29:22.086047,0:00:03.953226,5,right,0,0.3004781737779467,22,m,2,27,2018_Dec_13_1205,MP_PerceptionTuring2,59.93395306860249,
219,resources/videos_generated\model(vcgpdm)-dataset(walking)-mode(ELBO)-parts(1)-dyn(25)-lvm(22)_final(3).mov,resources/videos_natural\training(37).mov,True,False,right,0,218,218,218,2018-12-13 12:29:23.504128,2018-12-13 12:29:27.574361,0:00:04.070233,5,right,1,0.3505176124981517,22,m,2,27,2018_Dec_13_1205,MP_PerceptionTuring2,59.93395306860249,
220,resources/videos_generated\model(dmp)-dataset(walking)-npsi(80)_final(1).mov,resources/videos_natural\training(32).mov,True,True,left,0,219,219,219,2018-12-13 12:29:29.041445,2018-12-13 12:29:33.028673,0:00:03.987228,5,left,1,0.2336829259404567,22,m,2,27,2018_Dec_13_1205,MP_PerceptionTuring2,59.93395306860249,
221,resources/videos_generated\model(tmp)-dataset(walking)-numprim(13)_final(3).mov,resources/videos_natural\training(48).mov,True,True,left,0,220,220,220,2018-12-13 12:29:34.379750,2018-12-13 12:29:38.299974,0:00:03.920224,5,left,1,0.28375699965749845,22,m,2,27,2018_Dec_13_1205,MP_PerceptionTuring2,59.93395306860249,
222,resources/videos_generated\model(vcgpdm)-dataset(walking)-mode(ELBO)-parts(2)-dyn(26)-lvm(21)_final(8).mov,resources/videos_natural\training(2).mov,False,True,left,0,221,221,221,2018-12-13 12:29:39.701054,2018-12-13 12:29:43.821290,0:00:04.120236,5,left,1,0.26712256361611253,22,m,2,27,2018_Dec_13_1205,MP_PerceptionTuring2,59.93395306860249,
223,resources/videos_generated\model(vcgpdm)-dataset(walking)-mode(ELBO)-parts(1)-dyn(25)-lvm(26)_final(7).mov,resources/videos_natural\training(38).mov,True,False,right,0,222,222,222,2018-12-13 12:29:45.205369,2018-12-13 12:29:49.142594,0:00:03.937225,5,left,0,1.151213083234552,22,m,2,27,2018_Dec_13_1205,MP_PerceptionTuring2,59.93395306860249,
224,resources/videos_generated\model(vcgpdm)-dataset(walking)-mode(ELBO)-parts(1)-dyn(26)-lvm(27)_final(0).mov,resources/videos_natural\training(1).mov,True,False,right,0,223,223,223,2018-12-13 12:29:51.410724,2018-12-13 12:29:55.297946,0:00:03.887222,5,left,0,0.30052545807802744,22,m,2,27,2018_Dec_13_1205,MP_PerceptionTuring2,59.93395306860249,
225,resources/videos_generated\model(vcgpdm)-dataset(walking)-mode(ELBO)-parts(1)-dyn(22)-lvm(25)_final(5).mov,resources/videos_natural\training(17).mov,False,False,right,0,224,224,224,2018-12-13 12:29:56.716028,2018-12-13 12:30:00.619251,0:00:03.903223,5,right,1,0.28370399305367755,22,m,2,27,2018_Dec_13_1205,MP_PerceptionTuring2,59.93395306860249,
226,resources/videos_generated\model(vcgpdm)-dataset(walking)-mode(ELBO)-parts(2)-dyn(28)-lvm(17)_final(4).mov,resources/videos_natural\training(33).mov,True,False,right,0,225,225,225,2018-12-13 12:30:32.647083,2018-12-13 12:30:36.583308,0:00:03.936225,6,right,1,0.4006856524677005,22,m,2,27,2018_Dec_13_1205,MP_PerceptionTuring2,59.93395306860249,
227,resources/videos_generated\model(dmp)-dataset(walking)-npsi(60)_final(9).mov,resources/videos_natural\training(2).mov,False,True,left,0,226,226,226,2018-12-13 12:30:38.101395,2018-12-13 12:30:42.038620,0:00:03.937225,6,right,0,0.26713912817990604,22,m,2,27,2018_Dec_13_1205,MP_PerceptionTuring2,59.93395306860249,
228,resources/videos_generated\model(vcgpdm)-dataset(walking)-mode(ELBO)-parts(2)-dyn(22)-lvm(23)_final(4).mov,resources/videos_natural\training(29).mov,True,False,right,0,227,227,227,2018-12-13 12:30:43.422699,2018-12-13 12:30:47.526934,0:00:04.104235,6,right,1,0.28377145600393305,22,m,2,27,2018_Dec_13_1205,MP_PerceptionTuring2,59.93395306860249,
229,resources/videos_generated\model(vcgpdm)-dataset(walking)-mode(ELBO)-parts(1)-dyn(23)-lvm(22)_final(6)_fail.mov,resources/videos_natural\training(21).mov,False,False,right,0,228,228,228,2018-12-13 12:30:48.928014,2018-12-13 12:30:52.848238,0:00:03.920224,6,right,1,0.25061522295459326,22,m,2,27,2018_Dec_13_1205,MP_PerceptionTuring2,59.93395306860249,
230,resources/videos_generated\model(vcgpdm)-dataset(walking)-mode(ELBO)-parts(2)-dyn(22)-lvm(17)_final(8).mov,resources/videos_natural\training(0).mov,True,False,right,0,229,229,229,2018-12-13 12:30:54.215316,2018-12-13 12:30:58.135541,0:00:03.920225,6,left,0,0.2504751770977691,22,m,2,27,2018_Dec_13_1205,MP_PerceptionTuring2,59.93395306860249,
231,resources/videos_generated\model(vcgpdm)-dataset(walking)-mode(ELBO)-parts(1)-dyn(24)-lvm(25)_final(9).mov,resources/videos_natural\training(48).mov,True,True,left,0,230,230,230,2018-12-13 12:30:59.503619,2018-12-13 12:31:03.573852,0:00:04.070233,6,left,1,0.2504899346181446,22,m,2,27,2018_Dec_13_1205,MP_PerceptionTuring2,59.93395306860249,
232,resources/videos_generated\model(dmp)-dataset(walking)-npsi(70)_final(5).mov,resources/videos_natural\training(40).mov,True,False,right,0,231,231,231,2018-12-13 12:31:04.940930,2018-12-13 12:31:08.861154,0:00:03.920224,6,right,1,0.23369647876552335,22,m,2,27,2018_Dec_13_1205,MP_PerceptionTuring2,59.93395306860249,
233,resources/videos_generated\model(vcgpdm)-dataset(walking)-mode(ELBO)-parts(2)-dyn(23)-lvm(22)_final(6).mov,resources/videos_natural\training(17).mov,True,True,left,0,232,232,232,2018-12-13 12:31:10.212231,2018-12-13 12:31:14.333467,0:00:04.121236,6,left,1,0.21709366598179258,22,m,2,27,2018_Dec_13_1205,MP_PerceptionTuring2,59.93395306860249,
234,resources/videos_generated\model(vcgpdm)-dataset(walking)-mode(ELBO)-parts(2)-dyn(23)-lvm(20)_final(6).mov,resources/videos_natural\training(5).mov,False,True,left,0,233,233,233,2018-12-13 12:31:15.667543,2018-12-13 12:31:19.604768,0:00:03.937225,6,left,1,0.21710872467610898,22,m,2,27,2018_Dec_13_1205,MP_PerceptionTuring2,59.93395306860249,
235,resources/videos_generated\model(vcgpdm)-dataset(walking)-mode(ELBO)-parts(2)-dyn(24)-lvm(21)_final(8).mov,resources/videos_natural\training(47).mov,True,False,right,0,234,234,234,2018-12-13 12:31:20.938845,2018-12-13 12:31:24.875070,0:00:03.936225,6,left,0,0.2339003734855396,22,m,2,27,2018_Dec_13_1205,MP_PerceptionTuring2,59.93395306860249,
236,resources/videos_generated\model(vcgpdm)-dataset(walking)-mode(ELBO)-parts(2)-dyn(28)-lvm(21)_final(4).mov,resources/videos_natural\training(36).mov,False,False,right,0,235,235,235,2018-12-13 12:31:26.226147,2018-12-13 12:31:30.330382,0:00:04.104235,6,right,1,0.3672734216152094,22,m,2,27,2018_Dec_13_1205,MP_PerceptionTuring2,59.93395306860249,
237,resources/videos_generated\model(vcgpdm)-dataset(walking)-mode(ELBO)-parts(2)-dyn(28)-lvm(17)_final(0).mov,resources/videos_natural\training(7).mov,False,True,left,0,236,236,236,2018-12-13 12:31:31.814467,2018-12-13 12:31:35.717690,0:00:03.903223,6,left,1,0.2003764071223486,22,m,2,27,2018_Dec_13_1205,MP_PerceptionTuring2,59.93395306860249,
238,resources/videos_generated\model(vcgpdm)-dataset(walking)-mode(ELBO)-parts(1)-dyn(27)-lvm(26)_final(8).mov,resources/videos_natural\training(10).mov,False,False,right,0,237,237,237,2018-12-13 12:31:37.035765,2018-12-13 12:31:40.955990,0:00:03.920225,6,right,1,0.2839127065562934,22,m,2,27,2018_Dec_13_1205,MP_PerceptionTuring2,59.93395306860249,
239,resources/videos_generated\model(vcgpdm)-dataset(walking)-mode(ELBO)-parts(1)-dyn(25)-lvm(26)_final(9).mov,resources/videos_natural\training(34).mov,False,False,right,0,238,238,238,2018-12-13 12:31:42.357070,2018-12-13 12:31:46.394301,0:00:04.037231,6,right,1,0.3340572549627723,22,m,2,27,2018_Dec_13_1205,MP_PerceptionTuring2,59.93395306860249,
240,resources/videos_generated\model(dmp)-dataset(walking)-npsi(80)_final(9).mov,resources/videos_natural\training(27).mov,False,True,left,0,239,239,239,2018-12-13 12:31:47.845384,2018-12-13 12:31:51.965619,0:00:04.120235,6,right,0,0.2838208485213727,22,m,2,27,2018_Dec_13_1205,MP_PerceptionTuring2,59.93395306860249,
241,resources/videos_generated\model(vcgpdm)-dataset(walking)-mode(ELBO)-parts(2)-dyn(25)-lvm(22)_final(4).mov,resources/videos_natural\training(22).mov,False,False,right,0,240,240,240,2018-12-13 12:31:53.366700,2018-12-13 12:31:57.303925,0:00:03.937225,6,right,1,0.4840930494788154,22,m,2,27,2018_Dec_13_1205,MP_PerceptionTuring2,59.93395306860249,
242,resources/videos_generated\model(vcgpdm)-dataset(walking)-mode(ELBO)-parts(1)-dyn(22)-lvm(28)_final(2).mov,resources/videos_natural\training(40).mov,True,False,right,0,241,241,241,2018-12-13 12:31:58.905016,2018-12-13 12:32:02.825241,0:00:03.920225,6,left,0,0.3670147132479542,22,m,2,27,2018_Dec_13_1205,MP_PerceptionTuring2,59.93395306860249,
243,resources/videos_generated\model(vcgpdm)-dataset(walking)-mode(ELBO)-parts(1)-dyn(27)-lvm(26)_final(0).mov,resources/videos_natural\training(10).mov,False,False,right,0,242,242,242,2018-12-13 12:32:04.309325,2018-12-13 12:32:08.212549,0:00:03.903224,6,right,1,0.40074197198418915,22,m,2,27,2018_Dec_13_1205,MP_PerceptionTuring2,59.93395306860249,
244,resources/videos_generated\model(vcgpdm)-dataset(walking)-mode(ELBO)-parts(1)-dyn(25)-lvm(25)_final(0).mov,resources/videos_natural\training(13).mov,False,False,right,0,243,243,243,2018-12-13 12:32:09.730636,2018-12-13 12:32:13.700863,0:00:03.970227,6,right,1,0.2504559019689623,22,m,2,27,2018_Dec_13_1205,MP_PerceptionTuring2,59.93395306860249,
245,resources/videos_generated\model(vcgpdm)-dataset(walking)-mode(ELBO)-parts(2)-dyn(24)-lvm(23)_final(0).mov,resources/videos_natural\training(41).mov,True,True,left,0,244,244,244,2018-12-13 12:32:15.068941,2018-12-13 12:32:19.172176,0:00:04.103235,6,left,1,0.2004321242907281,22,m,2,27,2018_Dec_13_1205,MP_PerceptionTuring2,59.93395306860249,
246,resources/videos_generated\model(vcgpdm)-dataset(walking)-mode(ELBO)-parts(2)-dyn(22)-lvm(23)_final(2).mov,resources/videos_natural\training(44).mov,False,True,left,0,245,245,245,2018-12-13 12:32:20.490251,2018-12-13 12:32:24.393474,0:00:03.903223,6,left,1,0.36718939410138773,22,m,2,27,2018_Dec_13_1205,MP_PerceptionTuring2,59.93395306860249,
247,resources/videos_generated\model(vcgpdm)-dataset(walking)-mode(ELBO)-parts(2)-dyn(24)-lvm(17)_final(8).mov,resources/videos_natural\training(26).mov,True,True,left,0,246,246,246,2018-12-13 12:32:25.878559,2018-12-13 12:32:29.864787,0:00:03.986228,6,left,1,0.300671226238137,22,m,2,27,2018_Dec_13_1205,MP_PerceptionTuring2,59.93395306860249,
248,resources/videos_generated\model(vcgpdm)-dataset(walking)-mode(ELBO)-parts(2)-dyn(26)-lvm(17)_final(4).mov,resources/videos_natural\training(10).mov,False,True,left,0,247,247,247,2018-12-13 12:32:31.282868,2018-12-13 12:32:35.336100,0:00:04.053232,6,left,1,0.20046736163567402,22,m,2,27,2018_Dec_13_1205,MP_PerceptionTuring2,59.93395306860249,
249,resources/videos_generated\model(tmp)-dataset(walking)-numprim(11)_final(3).mov,resources/videos_natural\training(23).mov,False,False,right,0,248,248,248,2018-12-13 12:32:36.654175,2018-12-13 12:32:40.757410,0:00:04.103235,6,right,1,0.21712438571785242,22,m,2,27,2018_Dec_13_1205,MP_PerceptionTuring2,59.93395306860249,
250,resources/videos_generated\model(vcgpdm)-dataset(walking)-mode(ELBO)-parts(2)-dyn(23)-lvm(20)_final(8).mov,resources/videos_natural\training(47).mov,False,False,right,0,249,249,249,2018-12-13 12:32:42.092486,2018-12-13 12:32:46.012711,0:00:03.920225,6,right,1,0.4507166583189246,22,m,2,27,2018_Dec_13_1205,MP_PerceptionTuring2,59.93395306860249,
251,resources/videos_generated\model(vcgpdm)-dataset(walking)-mode(ELBO)-parts(2)-dyn(24)-lvm(21)_final(4).mov,resources/videos_natural\training(7).mov,False,True,left,0,250,250,250,2018-12-13 12:32:47.579800,2018-12-13 12:32:51.684035,0:00:04.104235,6,right,0,0.43406716358367703,22,m,2,27,2018_Dec_13_1205,MP_PerceptionTuring2,59.93395306860249,
252,resources/videos_generated\model(vcgpdm)-dataset(walking)-mode(ELBO)-parts(1)-dyn(22)-lvm(22)_final(9).mov,resources/videos_natural\training(30).mov,True,False,right,0,251,251,251,2018-12-13 12:32:53.235124,2018-12-13 12:32:57.155348,0:00:03.920224,6,left,0,0.2839491485965482,22,m,2,27,2018_Dec_13_1205,MP_PerceptionTuring2,59.93395306860249,
253,resources/videos_generated\model(vcgpdm)-dataset(walking)-mode(ELBO)-parts(1)-dyn(26)-lvm(23)_final(6)_fail.mov,resources/videos_natural\training(7).mov,True,False,right,0,252,252,252,2018-12-13 12:32:58.556428,2018-12-13 12:33:02.626661,0:00:04.070233,6,right,1,0.3170701443013968,22,m,2,27,2018_Dec_13_1205,MP_PerceptionTuring2,59.93395306860249,
254,resources/videos_generated\model(vcgpdm)-dataset(walking)-mode(ELBO)-parts(2)-dyn(26)-lvm(17)_final(0).mov,resources/videos_natural\training(27).mov,False,False,right,0,253,253,253,2018-12-13 12:33:04.060743,2018-12-13 12:33:08.130976,0:00:04.070233,6,right,1,0.26715448804816333,22,m,2,27,2018_Dec_13_1205,MP_PerceptionTuring2,59.93395306860249,
255,resources/videos_generated\model(vcgpdm)-dataset(walking)-mode(ELBO)-parts(2)-dyn(26)-lvm(21)_final(6).mov,resources/videos_natural\training(47).mov,True,False,right,0,254,254,254,2018-12-13 12:33:09.516055,2018-12-13 12:33:13.436279,0:00:03.920224,6,right,1,0.2837404350939323,22,m,2,27,2018_Dec_13_1205,MP_PerceptionTuring2,59.93395306860249,
256,resources/videos_generated\model(vcgpdm)-dataset(walking)-mode(ELBO)-parts(1)-dyn(23)-lvm(26)_final(0).mov,resources/videos_natural\training(33).mov,False,True,left,0,255,255,255,2018-12-13 12:33:14.837359,2018-12-13 12:33:18.924593,0:00:04.087234,6,left,1,0.03364232770081799,22,m,2,27,2018_Dec_13_1205,MP_PerceptionTuring2,59.93395306860249,
257,resources/videos_generated\model(vcgpdm)-dataset(walking)-mode(ELBO)-parts(1)-dyn(22)-lvm(27)_final(5)_fail.mov,resources/videos_natural\training(18).mov,True,True,left,0,256,256,256,2018-12-13 12:33:20.074659,2018-12-13 12:33:24.111890,0:00:04.037231,6,left,1,0.2504513843609857,22,m,2,27,2018_Dec_13_1205,MP_PerceptionTuring2,59.93395306860249,
258,resources/videos_generated\model(vcgpdm)-dataset(walking)-mode(ELBO)-parts(1)-dyn(28)-lvm(27)_final(4).mov,resources/videos_natural\training(22).mov,False,True,left,0,257,257,257,2018-12-13 12:33:25.479968,2018-12-13 12:33:29.450195,0:00:03.970227,6,left,1,0.31722615237413265,22,m,2,27,2018_Dec_13_1205,MP_PerceptionTuring2,59.93395306860249,
259,resources/videos_generated\model(vcgpdm)-dataset(walking)-mode(ELBO)-parts(2)-dyn(28)-lvm(21)_final(6).mov,resources/videos_natural\training(42).mov,True,True,left,0,258,258,258,2018-12-13 12:33:30.884277,2018-12-13 12:33:35.004513,0:00:04.120236,6,left,1,0.2504025941912005,22,m,2,27,2018_Dec_13_1205,MP_PerceptionTuring2,59.93395306860249,
260,resources/videos_generated\model(vcgpdm)-dataset(walking)-mode(ELBO)-parts(1)-dyn(22)-lvm(22)_final(3).mov,resources/videos_natural\training(36).mov,True,False,right,0,259,259,259,2018-12-13 12:33:36.372591,2018-12-13 12:33:40.308816,0:00:03.936225,6,right,1,0.3003884239601575,22,m,2,27,2018_Dec_13_1205,MP_PerceptionTuring2,59.93395306860249,
261,resources/videos_generated\model(vcgpdm)-dataset(walking)-mode(ELBO)-parts(1)-dyn(22)-lvm(22)_final(1).mov,resources/videos_natural\training(38).mov,True,False,right,0,260,260,260,2018-12-13 12:33:41.726897,2018-12-13 12:33:45.630121,0:00:03.903224,6,right,1,0.2838859020803284,22,m,2,27,2018_Dec_13_1205,MP_PerceptionTuring2,59.93395306860249,
262,resources/videos_generated\model(vcgpdm)-dataset(walking)-mode(ELBO)-parts(2)-dyn(22)-lvm(19)_final(2).mov,resources/videos_natural\training(27).mov,False,True,left,0,261,261,261,2018-12-13 12:33:47.031201,2018-12-13 12:33:50.951425,0:00:03.920224,6,left,1,0.33394160419084074,22,m,2,27,2018_Dec_13_1205,MP_PerceptionTuring2,59.93395306860249,
263,resources/videos_generated\model(vcgpdm)-dataset(walking)-mode(ELBO)-parts(1)-dyn(24)-lvm(27)_final(5).mov,resources/videos_natural\training(48).mov,True,True,left,0,262,262,262,2018-12-13 12:33:52.402508,2018-12-13 12:33:56.306731,0:00:03.904223,6,left,1,0.2670807004465132,22,m,2,27,2018_Dec_13_1205,MP_PerceptionTuring2,59.93395306860249,
264,resources/videos_generated\model(vcgpdm)-dataset(walking)-mode(ELBO)-parts(2)-dyn(24)-lvm(19)_final(6).mov,resources/videos_natural\training(35).mov,False,False,right,0,263,263,263,2018-12-13 12:33:57.690810,2018-12-13 12:34:01.728041,0:00:04.037231,6,right,1,0.2670927474018754,22,m,2,27,2018_Dec_13_1205,MP_PerceptionTuring2,59.93395306860249,
265,resources/videos_generated\model(vcgpdm)-dataset(walking)-mode(ELBO)-parts(1)-dyn(27)-lvm(24)_final(8).mov,resources/videos_natural\training(29).mov,False,False,right,0,264,264,264,2018-12-13 12:34:03.112121,2018-12-13 12:34:07.082348,0:00:03.970227,6,right,1,0.33380517242039787,22,m,2,27,2018_Dec_13_1205,MP_PerceptionTuring2,59.93395306860249,
266,resources/videos_generated\model(vcgpdm)-dataset(walking)-mode(ELBO)-parts(1)-dyn(22)-lvm(25)_final(1).mov,resources/videos_natural\training(21).mov,True,True,left,0,265,265,265,2018-12-13 12:34:08.533431,2018-12-13 12:34:12.620664,0:00:04.087233,6,left,1,0.5507097012023223,22,m,2,27,2018_Dec_13_1205,MP_PerceptionTuring2,59.93395306860249,
267,resources/videos_generated\model(vcgpdm)-dataset(walking)-mode(ELBO)-parts(1)-dyn(25)-lvm(28)_final(9).mov,resources/videos_natural\training(25).mov,False,False,right,0,266,266,266,2018-12-13 12:34:14.288760,2018-12-13 12:34:18.258987,0:00:03.970227,6,right,1,0.40060463669215096,22,m,2,27,2018_Dec_13_1205,MP_PerceptionTuring2,59.93395306860249,
268,resources/videos_generated\model(vcgpdm)-dataset(walking)-mode(ELBO)-parts(1)-dyn(23)-lvm(22)_final(8)_fail.mov,resources/videos_natural\training(2).mov,True,False,right,0,267,267,267,2018-12-13 12:34:19.776074,2018-12-13 12:34:23.696298,0:00:03.920224,6,right,1,0.43470745926379095,22,m,2,27,2018_Dec_13_1205,MP_PerceptionTuring2,59.93395306860249,
269,resources/videos_generated\model(vcgpdm)-dataset(walking)-mode(ELBO)-parts(2)-dyn(28)-lvm(19)_final(8).mov,resources/videos_natural\training(39).mov,True,True,left,0,268,268,268,2018-12-13 12:34:25.248387,2018-12-13 12:34:29.151610,0:00:03.903223,6,left,1,0.4171704050881999,22,m,2,27,2018_Dec_13_1205,MP_PerceptionTuring2,59.93395306860249,
270,resources/videos_generated\model(vcgpdm)-dataset(walking)-mode(ELBO)-parts(2)-dyn(24)-lvm(23)_final(8).mov,resources/videos_natural\training(45).mov,False,True,left,0,269,269,269,2018-12-13 12:34:30.685698,2018-12-13 12:34:34.807933,0:00:04.122235,6,right,0,0.23379195088682536,22,m,2,27,2018_Dec_13_1205,MP_PerceptionTuring2,59.93395306860249,
271,resources/videos_generated\model(dmp)-dataset(walking)-npsi(70)_final(7).mov,resources/videos_natural\training(31).mov,True,False,right,0,270,270,270,2018-12-13 12:35:09.352909,2018-12-13 12:35:13.273134,0:00:03.920225,7,left,0,0.23372418676262896,22,m,2,27,2018_Dec_13_1205,MP_PerceptionTuring2,59.93395306860249,
272,resources/videos_generated\model(vcgpdm)-dataset(walking)-mode(ELBO)-parts(1)-dyn(26)-lvm(23)_final(0).mov,resources/videos_natural\training(10).mov,True,True,left,0,271,271,271,2018-12-13 12:35:14.624211,2018-12-13 12:35:18.627440,0:00:04.003229,7,right,0,0.2505887196525691,22,m,2,27,2018_Dec_13_1205,MP_PerceptionTuring2,59.93395306860249,
273,resources/videos_generated\model(dmp)-dataset(walking)-npsi(60)_final(7).mov,resources/videos_natural\training(42).mov,True,False,right,0,272,272,272,2018-12-13 12:35:19.995518,2018-12-13 12:35:23.915742,0:00:03.920224,7,left,0,0.31716049646729516,22,m,2,27,2018_Dec_13_1205,MP_PerceptionTuring2,59.93395306860249,
274,resources/videos_generated\model(vcgpdm)-dataset(walking)-mode(ELBO)-parts(1)-dyn(27)-lvm(22)_final(4).mov,resources/videos_natural\training(42).mov,True,False,right,0,273,273,273,2018-12-13 12:35:25.349824,2018-12-13 12:35:29.287049,0:00:03.937225,7,left,0,0.30055497311877843,22,m,2,27,2018_Dec_13_1205,MP_PerceptionTuring2,59.93395306860249,
275,resources/videos_generated\model(vcgpdm)-dataset(walking)-mode(ELBO)-parts(1)-dyn(22)-lvm(27)_final(1)_fail.mov,resources/videos_natural\training(11).mov,False,False,right,0,274,274,274,2018-12-13 12:35:30.704131,2018-12-13 12:35:34.641356,0:00:03.937225,7,right,1,0.200411042118958,22,m,2,27,2018_Dec_13_1205,MP_PerceptionTuring2,59.93395306860249,
276,resources/videos_generated\model(vcgpdm)-dataset(walking)-mode(ELBO)-parts(1)-dyn(22)-lvm(23)_final(3)_fail.mov,resources/videos_natural\training(4).mov,True,True,left,0,275,275,275,2018-12-13 12:35:35.959431,2018-12-13 12:35:39.845653,0:00:03.886222,7,left,1,0.21697379877559797,22,m,2,27,2018_Dec_13_1205,MP_PerceptionTuring2,59.93395306860249,
277,resources/videos_generated\model(tmp)-dataset(walking)-numprim(11)_final(9).mov,resources/videos_natural\training(38).mov,True,False,right,0,276,276,276,2018-12-13 12:35:41.180730,2018-12-13 12:35:45.283964,0:00:04.103234,7,left,0,0.2838063921749381,22,m,2,27,2018_Dec_13_1205,MP_PerceptionTuring2,59.93395306860249,
278,resources/videos_generated\model(vcgpdm)-dataset(walking)-mode(ELBO)-parts(1)-dyn(25)-lvm(22)_final(9).mov,resources/videos_natural\training(35).mov,True,True,left,0,277,277,277,2018-12-13 12:35:46.685045,2018-12-13 12:35:50.622270,0:00:03.937225,7,left,1,0.3838039526663124,22,m,2,27,2018_Dec_13_1205,MP_PerceptionTuring2,59.93395306860249,
279,resources/videos_generated\model(vcgpdm)-dataset(walking)-mode(ELBO)-parts(2)-dyn(28)-lvm(21)_final(2).mov,resources/videos_natural\training(12).mov,True,True,left,0,278,278,278,2018-12-13 12:35:52.123356,2018-12-13 12:35:56.159587,0:00:04.036231,7,left,1,0.3004950395152264,22,m,2,27,2018_Dec_13_1205,MP_PerceptionTuring2,59.93395306860249,
280,resources/videos_generated\model(dmp)-dataset(walking)-npsi(100)_final(9).mov,resources/videos_natural\training(12).mov,False,True,left,0,279,279,279,2018-12-13 12:35:57.577668,2018-12-13 12:36:01.497892,0:00:03.920224,7,right,0,0.2671897253926545,22,m,2,27,2018_Dec_13_1205,MP_PerceptionTuring2,59.93395306860249,
281,resources/videos_generated\model(vcgpdm)-dataset(walking)-mode(ELBO)-parts(1)-dyn(23)-lvm(22)_final(2).mov,resources/videos_natural\training(19).mov,False,False,right,0,280,280,280,2018-12-13 12:36:02.881971,2018-12-13 12:36:06.802195,0:00:03.920224,7,right,1,0.25095554944527976,22,m,2,27,2018_Dec_13_1205,MP_PerceptionTuring2,59.93395306860249,
282,resources/videos_generated\model(vcgpdm)-dataset(walking)-mode(ELBO)-parts(2)-dyn(23)-lvm(18)_final(2).mov,resources/videos_natural\training(20).mov,False,False,right,0,281,281,281,2018-12-13 12:36:08.170273,2018-12-13 12:36:12.140501,0:00:03.970228,7,right,1,0.25053179778842605,22,m,2,27,2018_Dec_13_1205,MP_PerceptionTuring2,59.93395306860249,
283,resources/videos_generated\model(vcgpdm)-dataset(walking)-mode(ELBO)-parts(2)-dyn(26)-lvm(23)_final(4).mov,resources/videos_natural\training(8).mov,False,True,left,0,282,282,282,2018-12-13 12:36:13.508579,2018-12-13 12:36:17.411802,0:00:03.903223,7,right,0,0.25037066975937705,22,m,2,27,2018_Dec_13_1205,MP_PerceptionTuring2,59.93395306860249,
284,resources/videos_generated\model(vcgpdm)-dataset(walking)-mode(ELBO)-parts(1)-dyn(23)-lvm(26)_final(8)_hip-corrected.mov,resources/videos_natural\training(14).mov,False,False,right,0,283,283,283,2018-12-13 12:36:18.779880,2018-12-13 12:36:22.699104,0:00:03.919224,7,right,1,0.31725114980690705,22,m,2,27,2018_Dec_13_1205,MP_PerceptionTuring2,59.93395306860249,
285,resources/videos_generated\model(vcgpdm)-dataset(walking)-mode(ELBO)-parts(2)-dyn(22)-lvm(17)_final(4).mov,resources/videos_natural\training(47).mov,False,False,right,0,284,284,284,2018-12-13 12:36:24.134187,2018-12-13 12:36:28.070412,0:00:03.936225,7,right,1,0.25035681576082425,22,m,2,27,2018_Dec_13_1205,MP_PerceptionTuring2,59.93395306860249,
286,resources/videos_generated\model(dmp)-dataset(walking)-npsi(50)_final(1).mov,resources/videos_natural\training(40).mov,False,False,right,0,285,285,285,2018-12-13 12:36:29.438490,2018-12-13 12:36:33.342713,0:00:03.904223,7,right,1,0.28385397764850495,22,m,2,27,2018_Dec_13_1205,MP_PerceptionTuring2,59.93395306860249,
287,resources/videos_generated\model(vcgpdm)-dataset(walking)-mode(ELBO)-parts(2)-dyn(22)-lvm(21)_final(2).mov,resources/videos_natural\training(16).mov,True,True,left,0,286,286,286,2018-12-13 12:36:34.743793,2018-12-13 12:36:38.697020,0:00:03.953227,7,left,1,0.5505166487419046,22,m,2,27,2018_Dec_13_1205,MP_PerceptionTuring2,59.93395306860249,
288,resources/videos_generated\model(vcgpdm)-dataset(walking)-mode(ELBO)-parts(2)-dyn(28)-lvm(19)_final(6).mov,resources/videos_natural\training(28).mov,True,False,right,0,287,287,287,2018-12-13 12:36:40.365115,2018-12-13 12:36:44.268338,0:00:03.903223,7,right,1,0.23366997546327184,22,m,2,27,2018_Dec_13_1205,MP_PerceptionTuring2,59.93395306860249,
289,resources/videos_generated\model(vcgpdm)-dataset(walking)-mode(ELBO)-parts(1)-dyn(27)-lvm(28)_final(2).mov,resources/videos_natural\training(37).mov,True,False,right,0,288,288,288,2018-12-13 12:36:45.619415,2018-12-13 12:36:49.539640,0:00:03.920225,7,left,0,0.21730298183229024,22,m,2,27,2018_Dec_13_1205,MP_PerceptionTuring2,59.93395306860249,
290,resources/videos_generated\model(dmp)-dataset(walking)-npsi(90)_final(1).mov,resources/videos_natural\training(1).mov,False,False,right,0,289,289,289,2018-12-13 12:36:50.873716,2018-12-13 12:36:54.793940,0:00:03.920224,7,right,1,0.20051464593552737,22,m,2,27,2018_Dec_13_1205,MP_PerceptionTuring2,59.93395306860249,
291,resources/videos_generated\model(tmp)-dataset(walking)-numprim(15)_final(3).mov,resources/videos_natural\training(44).mov,False,True,left,0,290,290,290,2018-12-13 12:36:56.112016,2018-12-13 12:37:00.048241,0:00:03.936225,7,right,0,0.28387626451603865,22,m,2,27,2018_Dec_13_1205,MP_PerceptionTuring2,59.93395306860249,
