n_trial,mov_file_generated,mov_file_natural,mirrored,switch_stim_pos,correct_answer,trials.thisRepN,trials.thisTrialN,trials.thisN,trials.thisIndex,stimulus_onset,stimulus_off,stimulus_length,block,response.keys,response.corr,response.rt,age,gender,condition,participant,date,expName,frameRate,
1,resources/videos_generated\model(vcgpdm)-dataset(walking)-mode(ELBO)-parts(1)-dyn(23)-lvm(26)_final(0).mov,resources/videos_natural\training(23).mov,True,False,right,0,0,0,0,2018-09-17 09:22:21.760806,2018-09-17 09:22:27.122113,0:00:05.361307,1,left,0,12.860947843319309,26,f,2,2,2018_Sep_17_0921,MP_PerceptionTuring2,59.93671263100265,
2,resources/videos_generated\model(vcgpdm)-dataset(walking)-mode(ELBO)-parts(1)-dyn(22)-lvm(27)_final(3)_fail.mov,resources/videos_natural\training(23).mov,True,True,left,0,1,1,1,2018-09-17 09:22:41.093912,2018-09-17 09:22:45.031137,0:00:03.937225,1,left,1,0.5340316469803383,26,f,2,2,2018_Sep_17_0921,MP_PerceptionTuring2,59.93671263100265,
3,resources/videos_generated\model(vcgpdm)-dataset(walking)-mode(ELBO)-parts(2)-dyn(22)-lvm(19)_final(6).mov,resources/videos_natural\training(34).mov,False,True,left,0,2,2,2,2018-09-17 09:22:46.682232,2018-09-17 09:22:50.602456,0:00:03.920224,1,left,1,0.4838328745504441,26,f,2,2,2018_Sep_17_0921,MP_PerceptionTuring2,59.93671263100265,
4,resources/videos_generated\model(tmp)-dataset(walking)-numprim(11)_final(9).mov,resources/videos_natural\training(11).mov,True,False,right,0,3,3,3,2018-09-17 09:22:52.203547,2018-09-17 09:22:56.273780,0:00:04.070233,1,right,1,0.5007282299013696,26,f,2,2,2018_Sep_17_0921,MP_PerceptionTuring2,59.93671263100265,
5,resources/videos_generated\model(vcgpdm)-dataset(walking)-mode(ELBO)-parts(1)-dyn(23)-lvm(22)_final(6)_fail.mov,resources/videos_natural\training(11).mov,False,True,left,0,4,4,4,2018-09-17 09:22:57.958877,2018-09-17 09:23:01.862100,0:00:03.903223,1,left,1,0.5173221137340533,26,f,2,2,2018_Sep_17_0921,MP_PerceptionTuring2,59.93671263100265,
6,resources/videos_generated\model(vcgpdm)-dataset(walking)-mode(ELBO)-parts(2)-dyn(25)-lvm(18)_final(6).mov,resources/videos_natural\training(22).mov,True,False,right,0,5,5,5,2018-09-17 09:23:03.497193,2018-09-17 09:23:07.533424,0:00:04.036231,1,right,1,0.5173311488442778,26,f,2,2,2018_Sep_17_0921,MP_PerceptionTuring2,59.93671263100265,
7,resources/videos_generated\model(dmp)-dataset(walking)-npsi(90)_final(1).mov,resources/videos_natural\training(31).mov,True,True,left,0,6,6,6,2018-09-17 09:23:09.168518,2018-09-17 09:23:13.255752,0:00:04.087234,1,left,1,0.3672025491059685,26,f,2,2,2018_Sep_17_0921,MP_PerceptionTuring2,59.93671263100265,
8,resources/videos_generated\model(vcgpdm)-dataset(walking)-mode(ELBO)-parts(2)-dyn(27)-lvm(18)_final(6).mov,resources/videos_natural\training(34).mov,False,False,right,0,7,7,7,2018-09-17 09:23:14.739836,2018-09-17 09:23:18.660061,0:00:03.920225,1,right,1,0.550782139393732,26,f,2,2,2018_Sep_17_0921,MP_PerceptionTuring2,59.93671263100265,
9,resources/videos_generated\model(vcgpdm)-dataset(walking)-mode(ELBO)-parts(2)-dyn(28)-lvm(17)_final(2).mov,resources/videos_natural\training(38).mov,False,False,right,0,8,8,8,2018-09-17 09:23:20.328156,2018-09-17 09:23:24.381388,0:00:04.053232,1,right,1,0.48398677259820033,26,f,2,2,2018_Sep_17_0921,MP_PerceptionTuring2,59.93671263100265,
10,resources/videos_generated\model(dmp)-dataset(walking)-npsi(80)_final(1).mov,resources/videos_natural\training(23).mov,False,False,right,0,9,9,9,2018-09-17 09:23:25.982479,2018-09-17 09:23:30.002709,0:00:04.020230,1,left,0,0.4506348670936404,26,f,2,2,2018_Sep_17_0921,MP_PerceptionTuring2,59.93671263100265,
11,resources/videos_generated\model(vcgpdm)-dataset(walking)-mode(ELBO)-parts(2)-dyn(28)-lvm(19)_final(2).mov,resources/videos_natural\training(40).mov,True,True,left,0,10,10,10,2018-09-17 09:23:31.570799,2018-09-17 09:23:35.658033,0:00:04.087234,1,right,0,0.5340090592039815,26,f,2,2,2018_Sep_17_0921,MP_PerceptionTuring2,59.93671263100265,
12,resources/videos_generated\model(vcgpdm)-dataset(walking)-mode(ELBO)-parts(2)-dyn(28)-lvm(23)_final(6).mov,resources/videos_natural\training(39).mov,False,False,right,0,11,11,11,2018-09-17 09:23:37.309127,2018-09-17 09:23:41.379360,0:00:04.070233,1,left,0,0.5009029087032104,26,f,2,2,2018_Sep_17_0921,MP_PerceptionTuring2,59.93671263100265,
13,resources/videos_generated\model(vcgpdm)-dataset(walking)-mode(ELBO)-parts(2)-dyn(25)-lvm(20)_final(8).mov,resources/videos_natural\training(39).mov,True,True,left,0,12,12,12,2018-09-17 09:23:42.997453,2018-09-17 09:23:46.917677,0:00:03.920224,1,left,1,0.38385245062318063,26,f,2,2,2018_Sep_17_0921,MP_PerceptionTuring2,59.93671263100265,
14,resources/videos_generated\model(vcgpdm)-dataset(walking)-mode(ELBO)-parts(1)-dyn(25)-lvm(26)_final(9).mov,resources/videos_natural\training(2).mov,True,True,left,0,13,13,13,2018-09-17 09:23:48.418763,2018-09-17 09:23:52.471995,0:00:04.053232,1,left,1,0.25041290454714726,26,f,2,2,2018_Sep_17_0921,MP_PerceptionTuring2,59.93671263100265,
15,resources/videos_generated\model(vcgpdm)-dataset(walking)-mode(ELBO)-parts(2)-dyn(28)-lvm(17)_final(4).mov,resources/videos_natural\training(26).mov,True,False,right,0,14,14,14,2018-09-17 09:23:53.840073,2018-09-17 09:23:57.893305,0:00:04.053232,1,right,1,0.5172621808346776,26,f,2,2,2018_Sep_17_0921,MP_PerceptionTuring2,59.93671263100265,
16,resources/videos_generated\model(vcgpdm)-dataset(walking)-mode(ELBO)-parts(2)-dyn(22)-lvm(17)_final(6).mov,resources/videos_natural\training(20).mov,True,True,left,0,15,15,15,2018-09-17 09:23:59.528398,2018-09-17 09:24:03.431621,0:00:03.903223,1,left,1,0.4671832742035349,26,f,2,2,2018_Sep_17_0921,MP_PerceptionTuring2,59.93671263100265,
17,resources/videos_generated\model(vcgpdm)-dataset(walking)-mode(ELBO)-parts(2)-dyn(23)-lvm(22)_final(0).mov,resources/videos_natural\training(32).mov,True,True,left,0,16,16,16,2018-09-17 09:24:05.016712,2018-09-17 09:24:09.119947,0:00:04.103235,1,left,1,0.5173968039803185,26,f,2,2,2018_Sep_17_0921,MP_PerceptionTuring2,59.93671263100265,
18,resources/videos_generated\model(vcgpdm)-dataset(walking)-mode(ELBO)-parts(2)-dyn(24)-lvm(19)_final(6).mov,resources/videos_natural\training(10).mov,False,False,right,0,17,17,17,2018-09-17 09:24:10.755040,2018-09-17 09:24:14.858275,0:00:04.103235,1,right,1,0.3672284497556575,26,f,2,2,2018_Sep_17_0921,MP_PerceptionTuring2,59.93671263100265,
19,resources/videos_generated\model(vcgpdm)-dataset(walking)-mode(ELBO)-parts(2)-dyn(24)-lvm(17)_final(8).mov,resources/videos_natural\training(37).mov,False,True,left,0,18,18,18,2018-09-17 09:24:16.343360,2018-09-17 09:24:20.379591,0:00:04.036231,1,right,0,0.934286135924367,26,f,2,2,2018_Sep_17_0921,MP_PerceptionTuring2,59.93671263100265,
20,resources/videos_generated\model(vcgpdm)-dataset(walking)-mode(ELBO)-parts(1)-dyn(27)-lvm(24)_final(6).mov,resources/videos_natural\training(10).mov,False,True,left,0,19,19,19,2018-09-17 09:24:22.431708,2018-09-17 09:24:26.351932,0:00:03.920224,1,left,1,0.8842761973028246,26,f,2,2,2018_Sep_17_0921,MP_PerceptionTuring2,59.93671263100265,
21,resources/videos_generated\model(vcgpdm)-dataset(walking)-mode(ELBO)-parts(1)-dyn(28)-lvm(27)_final(2).mov,resources/videos_natural\training(21).mov,False,True,left,0,20,20,20,2018-09-17 09:24:28.353047,2018-09-17 09:24:32.457282,0:00:04.104235,1,left,1,0.5838681114812516,26,f,2,2,2018_Sep_17_0921,MP_PerceptionTuring2,59.93671263100265,
22,resources/videos_generated\model(dmp)-dataset(walking)-npsi(50)_final(1).mov,resources/videos_natural\training(12).mov,True,False,right,0,21,21,21,2018-09-17 09:24:34.158379,2018-09-17 09:24:38.245613,0:00:04.087234,1,left,0,0.6674886609364421,26,f,2,2,2018_Sep_17_0921,MP_PerceptionTuring2,59.93671263100265,
23,resources/videos_generated\model(vcgpdm)-dataset(walking)-mode(ELBO)-parts(1)-dyn(26)-lvm(23)_final(2).mov,resources/videos_natural\training(9).mov,False,False,right,0,22,22,22,2018-09-17 09:24:40.029715,2018-09-17 09:24:44.133949,0:00:04.104234,1,right,1,0.5507505165071507,26,f,2,2,2018_Sep_17_0921,MP_PerceptionTuring2,59.93671263100265,
24,resources/videos_generated\model(vcgpdm)-dataset(walking)-mode(ELBO)-parts(1)-dyn(28)-lvm(25)_final(6).mov,resources/videos_natural\training(14).mov,False,True,left,0,23,23,23,2018-09-17 09:24:45.802045,2018-09-17 09:24:49.872278,0:00:04.070233,1,left,1,0.7675772050185969,26,f,2,2,2018_Sep_17_0921,MP_PerceptionTuring2,59.93671263100265,
25,resources/videos_generated\model(vcgpdm)-dataset(walking)-mode(ELBO)-parts(2)-dyn(26)-lvm(17)_final(8).mov,resources/videos_natural\training(43).mov,False,False,right,0,24,24,24,2018-09-17 09:24:51.756385,2018-09-17 09:24:55.860620,0:00:04.104235,1,right,1,0.8675753979964611,26,f,2,2,2018_Sep_17_0921,MP_PerceptionTuring2,59.93671263100265,
26,resources/videos_generated\model(vcgpdm)-dataset(walking)-mode(ELBO)-parts(2)-dyn(22)-lvm(21)_final(2).mov,resources/videos_natural\training(35).mov,True,True,left,0,25,25,25,2018-09-17 09:24:57.845734,2018-09-17 09:25:01.781959,0:00:03.936225,1,left,1,0.7341566326747397,26,f,2,2,2018_Sep_17_0921,MP_PerceptionTuring2,59.93671263100265,
27,resources/videos_generated\model(vcgpdm)-dataset(walking)-mode(ELBO)-parts(1)-dyn(26)-lvm(22)_final(2).mov,resources/videos_natural\training(46).mov,True,False,right,0,26,26,26,2018-09-17 09:25:03.634065,2018-09-17 09:25:07.771301,0:00:04.137236,1,left,0,0.5840442961348344,26,f,2,2,2018_Sep_17_0921,MP_PerceptionTuring2,59.93671263100265,
28,resources/videos_generated\model(vcgpdm)-dataset(walking)-mode(ELBO)-parts(2)-dyn(24)-lvm(23)_final(2).mov,resources/videos_natural\training(6).mov,False,True,left,0,27,27,27,2018-09-17 09:25:09.472399,2018-09-17 09:25:13.592634,0:00:04.120235,1,right,0,0.8009209789240685,26,f,2,2,2018_Sep_17_0921,MP_PerceptionTuring2,59.93671263100265,
29,resources/videos_generated\model(vcgpdm)-dataset(walking)-mode(ELBO)-parts(1)-dyn(28)-lvm(23)_final(8).mov,resources/videos_natural\training(45).mov,True,False,right,0,28,28,28,2018-09-17 09:25:15.510744,2018-09-17 09:25:19.563976,0:00:04.053232,1,right,1,0.48397623163623393,26,f,2,2,2018_Sep_17_0921,MP_PerceptionTuring2,59.93671263100265,
30,resources/videos_generated\model(vcgpdm)-dataset(walking)-mode(ELBO)-parts(2)-dyn(27)-lvm(18)_final(2).mov,resources/videos_natural\training(24).mov,False,False,right,0,29,29,29,2018-09-17 09:25:21.166068,2018-09-17 09:25:25.086292,0:00:03.920224,1,right,1,0.5340373692167759,26,f,2,2,2018_Sep_17_0921,MP_PerceptionTuring2,59.93671263100265,
31,resources/videos_generated\model(vcgpdm)-dataset(walking)-mode(ELBO)-parts(2)-dyn(26)-lvm(23)_final(2).mov,resources/videos_natural\training(19).mov,True,True,left,0,30,30,30,2018-09-17 09:25:26.737386,2018-09-17 09:25:30.690612,0:00:03.953226,1,left,1,0.36742330697074976,26,f,2,2,2018_Sep_17_0921,MP_PerceptionTuring2,59.93671263100265,
32,resources/videos_generated\model(vcgpdm)-dataset(walking)-mode(ELBO)-parts(2)-dyn(24)-lvm(17)_final(2).mov,resources/videos_natural\training(30).mov,False,True,left,0,31,31,31,2018-09-17 09:25:32.175697,2018-09-17 09:25:36.261931,0:00:04.086234,1,left,1,0.550702630421938,26,f,2,2,2018_Sep_17_0921,MP_PerceptionTuring2,59.93671263100265,
33,resources/videos_generated\model(vcgpdm)-dataset(walking)-mode(ELBO)-parts(2)-dyn(24)-lvm(19)_final(0).mov,resources/videos_natural\training(1).mov,False,False,right,0,32,32,32,2018-09-17 09:25:37.930026,2018-09-17 09:25:42.050262,0:00:04.120236,1,right,1,1.0344821978208074,26,f,2,2,2018_Sep_17_0921,MP_PerceptionTuring2,59.93671263100265,
34,resources/videos_generated\model(vcgpdm)-dataset(walking)-mode(ELBO)-parts(1)-dyn(26)-lvm(25)_final(4).mov,resources/videos_natural\training(26).mov,False,False,right,0,33,33,33,2018-09-17 09:25:44.202385,2018-09-17 09:25:48.138610,0:00:03.936225,1,right,1,0.3672540492354983,26,f,2,2,2018_Sep_17_0921,MP_PerceptionTuring2,59.93671263100265,
35,resources/videos_generated\model(vcgpdm)-dataset(walking)-mode(ELBO)-parts(1)-dyn(22)-lvm(23)_final(9).mov,resources/videos_natural\training(5).mov,False,False,right,0,34,34,34,2018-09-17 09:25:49.623695,2018-09-17 09:25:53.576921,0:00:03.953226,1,right,1,0.3672004409133933,26,f,2,2,2018_Sep_17_0921,MP_PerceptionTuring2,59.93671263100265,
36,resources/videos_generated\model(tmp)-dataset(walking)-numprim(11)_final(7).mov,resources/videos_natural\training(2).mov,True,True,left,0,35,35,35,2018-09-17 09:25:55.062006,2018-09-17 09:25:58.982231,0:00:03.920225,1,left,1,0.5840177931440849,26,f,2,2,2018_Sep_17_0921,MP_PerceptionTuring2,59.93671263100265,
37,resources/videos_generated\model(vcgpdm)-dataset(walking)-mode(ELBO)-parts(2)-dyn(23)-lvm(20)_final(2).mov,resources/videos_natural\training(11).mov,True,True,left,0,36,36,36,2018-09-17 09:26:00.683328,2018-09-17 09:26:04.586551,0:00:03.903223,1,left,1,0.4507008233997567,26,f,2,2,2018_Sep_17_0921,MP_PerceptionTuring2,59.93671263100265,
38,resources/videos_generated\model(vcgpdm)-dataset(walking)-mode(ELBO)-parts(2)-dyn(22)-lvm(23)_final(0).mov,resources/videos_natural\training(40).mov,True,False,right,0,37,37,37,2018-09-17 09:26:06.154641,2018-09-17 09:26:10.074865,0:00:03.920224,1,right,1,0.4670146188086619,26,f,2,2,2018_Sep_17_0921,MP_PerceptionTuring2,59.93671263100265,
39,resources/videos_generated\model(vcgpdm)-dataset(walking)-mode(ELBO)-parts(1)-dyn(23)-lvm(26)_final(8)_hip-corrected.mov,resources/videos_natural\training(48).mov,False,True,left,0,38,38,38,2018-09-17 09:26:11.658956,2018-09-17 09:26:15.746189,0:00:04.087233,1,left,1,0.35044693679651573,26,f,2,2,2018_Sep_17_0921,MP_PerceptionTuring2,59.93671263100265,
40,resources/videos_generated\model(vcgpdm)-dataset(walking)-mode(ELBO)-parts(2)-dyn(22)-lvm(17)_final(2).mov,resources/videos_natural\training(38).mov,False,True,left,0,39,39,39,2018-09-17 09:26:17.214273,2018-09-17 09:26:21.317508,0:00:04.103235,1,right,0,0.36733416054789814,26,f,2,2,2018_Sep_17_0921,MP_PerceptionTuring2,59.93671263100265,
41,resources/videos_generated\model(vcgpdm)-dataset(walking)-mode(ELBO)-parts(1)-dyn(25)-lvm(24)_final(2).mov,resources/videos_natural\training(27).mov,True,False,right,0,40,40,40,2018-09-17 09:26:22.802593,2018-09-17 09:26:26.888827,0:00:04.086234,1,right,1,0.2838078774116184,26,f,2,2,2018_Sep_17_0921,MP_PerceptionTuring2,59.93671263100265,
42,resources/videos_generated\model(vcgpdm)-dataset(walking)-mode(ELBO)-parts(1)-dyn(22)-lvm(22)_final(1).mov,resources/videos_natural\training(46).mov,False,True,left,0,41,41,41,2018-09-17 09:26:28.290907,2018-09-17 09:26:32.327138,0:00:04.036231,1,left,1,0.5008146657912675,26,f,2,2,2018_Sep_17_0921,MP_PerceptionTuring2,59.93671263100265,
43,resources/videos_generated\model(vcgpdm)-dataset(walking)-mode(ELBO)-parts(2)-dyn(24)-lvm(19)_final(8).mov,resources/videos_natural\training(2).mov,False,True,left,0,42,42,42,2018-09-17 09:26:33.945230,2018-09-17 09:26:37.848454,0:00:03.903224,1,right,0,0.45054391364828916,26,f,2,2,2018_Sep_17_0921,MP_PerceptionTuring2,59.93671263100265,
44,resources/videos_generated\model(tmp)-dataset(walking)-numprim(14)_final(3).mov,resources/videos_natural\training(3).mov,True,True,left,0,43,43,43,2018-09-17 09:26:39.416543,2018-09-17 09:26:43.520778,0:00:04.104235,1,right,0,0.6006448057148646,26,f,2,2,2018_Sep_17_0921,MP_PerceptionTuring2,59.93671263100265,
45,resources/videos_generated\model(vcgpdm)-dataset(walking)-mode(ELBO)-parts(2)-dyn(23)-lvm(18)_final(8).mov,resources/videos_natural\training(5).mov,True,True,left,0,44,44,44,2018-09-17 09:26:45.238876,2018-09-17 09:26:49.292108,0:00:04.053232,1,left,1,0.4339807491915053,26,f,2,2,2018_Sep_17_0921,MP_PerceptionTuring2,59.93671263100265,
46,resources/videos_generated\model(vcgpdm)-dataset(walking)-mode(ELBO)-parts(1)-dyn(22)-lvm(27)_final(7)_hip-corrected.mov,resources/videos_natural\training(41).mov,False,True,left,0,45,45,45,2018-09-17 09:27:22.387001,2018-09-17 09:27:26.509237,0:00:04.122236,2,right,0,0.5506866683933822,26,f,2,2,2018_Sep_17_0921,MP_PerceptionTuring2,59.93671263100265,
47,resources/videos_generated\model(vcgpdm)-dataset(walking)-mode(ELBO)-parts(2)-dyn(28)-lvm(17)_final(6).mov,resources/videos_natural\training(35).mov,False,True,left,0,46,46,46,2018-09-17 09:27:28.175332,2018-09-17 09:27:32.179561,0:00:04.004229,2,right,0,0.5508264114348549,26,f,2,2,2018_Sep_17_0921,MP_PerceptionTuring2,59.93671263100265,
48,resources/videos_generated\model(dmp)-dataset(walking)-npsi(50)_final(9).mov,resources/videos_natural\training(8).mov,True,False,right,0,47,47,47,2018-09-17 09:27:33.847657,2018-09-17 09:27:37.900888,0:00:04.053231,2,right,1,0.31717694962617315,26,f,2,2,2018_Sep_17_0921,MP_PerceptionTuring2,59.93671263100265,
49,resources/videos_generated\model(vcgpdm)-dataset(walking)-mode(ELBO)-parts(1)-dyn(23)-lvm(28)_final(1).mov,resources/videos_natural\training(18).mov,False,False,right,0,48,48,48,2018-09-17 09:27:39.334970,2018-09-17 09:27:43.422204,0:00:04.087234,2,right,1,0.4839726175919168,26,f,2,2,2018_Sep_17_0921,MP_PerceptionTuring2,59.93671263100265,
50,resources/videos_generated\model(vcgpdm)-dataset(walking)-mode(ELBO)-parts(2)-dyn(26)-lvm(19)_final(0).mov,resources/videos_natural\training(41).mov,False,False,right,0,49,49,49,2018-09-17 09:27:45.023296,2018-09-17 09:27:48.993523,0:00:03.970227,2,right,1,0.5672907920179568,26,f,2,2,2018_Sep_17_0921,MP_PerceptionTuring2,59.93671263100265,
51,resources/videos_generated\model(vcgpdm)-dataset(walking)-mode(ELBO)-parts(1)-dyn(27)-lvm(24)_final(0).mov,resources/videos_natural\training(3).mov,False,False,right,0,50,50,50,2018-09-17 09:27:50.678619,2018-09-17 09:27:54.581842,0:00:03.903223,2,left,0,0.4006457092261826,26,f,2,2,2018_Sep_17_0921,MP_PerceptionTuring2,59.93671263100265,
52,resources/videos_generated\model(vcgpdm)-dataset(walking)-mode(ELBO)-parts(2)-dyn(27)-lvm(22)_final(2).mov,resources/videos_natural\training(14).mov,True,True,left,0,51,51,51,2018-09-17 09:27:56.099929,2018-09-17 09:27:59.986152,0:00:03.886223,2,left,1,0.6006893789265177,26,f,2,2,2018_Sep_17_0921,MP_PerceptionTuring2,59.93671263100265,
53,resources/videos_generated\model(tmp)-dataset(walking)-numprim(13)_final(7).mov,resources/videos_natural\training(30).mov,False,True,left,0,52,52,52,2018-09-17 09:28:01.704250,2018-09-17 09:28:05.607473,0:00:03.903223,2,left,1,0.45061288165811675,26,f,2,2,2018_Sep_17_0921,MP_PerceptionTuring2,59.93671263100265,
54,resources/videos_generated\model(vcgpdm)-dataset(walking)-mode(ELBO)-parts(1)-dyn(26)-lvm(27)_final(0).mov,resources/videos_natural\training(22).mov,True,False,right,0,53,53,53,2018-09-17 09:28:07.175563,2018-09-17 09:28:11.145790,0:00:03.970227,2,left,0,0.4173076575571031,26,f,2,2,2018_Sep_17_0921,MP_PerceptionTuring2,59.93671263100265,
55,resources/videos_generated\model(tmp)-dataset(walking)-numprim(14)_final(9).mov,resources/videos_natural\training(34).mov,False,True,left,0,54,54,54,2018-09-17 09:28:12.680878,2018-09-17 09:28:16.617103,0:00:03.936225,2,left,1,0.45072220649444716,26,f,2,2,2018_Sep_17_0921,MP_PerceptionTuring2,59.93671263100265,
56,resources/videos_generated\model(tmp)-dataset(walking)-numprim(13)_final(3).mov,resources/videos_natural\training(24).mov,False,True,left,0,55,55,55,2018-09-17 09:28:18.185193,2018-09-17 09:28:22.105417,0:00:03.920224,2,right,0,0.38377986856926327,26,f,2,2,2018_Sep_17_0921,MP_PerceptionTuring2,59.93671263100265,
57,resources/videos_generated\model(vcgpdm)-dataset(walking)-mode(ELBO)-parts(2)-dyn(26)-lvm(21)_final(2).mov,resources/videos_natural\training(42).mov,True,False,right,0,56,56,56,2018-09-17 09:28:23.606503,2018-09-17 09:28:27.710737,0:00:04.104234,2,right,1,0.6174985995578481,26,f,2,2,2018_Sep_17_0921,MP_PerceptionTuring2,59.93671263100265,
58,resources/videos_generated\model(vcgpdm)-dataset(walking)-mode(ELBO)-parts(1)-dyn(28)-lvm(27)_final(0).mov,resources/videos_natural\training(23).mov,True,False,right,0,57,57,57,2018-09-17 09:28:29.444837,2018-09-17 09:28:33.399063,0:00:03.954226,2,right,1,0.36721158421619293,26,f,2,2,2018_Sep_17_0921,MP_PerceptionTuring2,59.93671263100265,
59,resources/videos_generated\model(vcgpdm)-dataset(walking)-mode(ELBO)-parts(2)-dyn(22)-lvm(21)_final(0).mov,resources/videos_natural\training(40).mov,True,True,left,0,58,58,58,2018-09-17 09:28:34.883148,2018-09-17 09:28:38.903378,0:00:04.020230,2,right,0,0.984473463880704,26,f,2,2,2018_Sep_17_0921,MP_PerceptionTuring2,59.93671263100265,
60,resources/videos_generated\model(vcgpdm)-dataset(walking)-mode(ELBO)-parts(2)-dyn(28)-lvm(21)_final(6).mov,resources/videos_natural\training(37).mov,False,True,left,0,59,59,59,2018-09-17 09:28:41.005498,2018-09-17 09:28:44.958724,0:00:03.953226,2,left,1,0.30038700389695805,26,f,2,2,2018_Sep_17_0921,MP_PerceptionTuring2,59.93671263100265,
61,resources/videos_generated\model(vcgpdm)-dataset(walking)-mode(ELBO)-parts(2)-dyn(28)-lvm(17)_final(8).mov,resources/videos_natural\training(26).mov,True,True,left,0,60,60,60,2018-09-17 09:28:46.376805,2018-09-17 09:28:50.347032,0:00:03.970227,2,left,1,0.4505821622824442,26,f,2,2,2018_Sep_17_0921,MP_PerceptionTuring2,59.93671263100265,
62,resources/videos_generated\model(vcgpdm)-dataset(walking)-mode(ELBO)-parts(2)-dyn(26)-lvm(23)_final(6).mov,resources/videos_natural\training(11).mov,True,True,left,0,61,61,61,2018-09-17 09:28:51.915122,2018-09-17 09:28:55.834346,0:00:03.919224,2,left,1,0.4673302453334145,26,f,2,2,2018_Sep_17_0921,MP_PerceptionTuring2,59.93671263100265,
63,resources/videos_generated\model(vcgpdm)-dataset(walking)-mode(ELBO)-parts(2)-dyn(27)-lvm(22)_final(4).mov,resources/videos_natural\training(18).mov,True,False,right,0,62,62,62,2018-09-17 09:28:57.419437,2018-09-17 09:29:01.339661,0:00:03.920224,2,right,1,0.500582463452929,26,f,2,2,2018_Sep_17_0921,MP_PerceptionTuring2,59.93671263100265,
64,resources/videos_generated\model(vcgpdm)-dataset(walking)-mode(ELBO)-parts(1)-dyn(27)-lvm(26)_final(6).mov,resources/videos_natural\training(29).mov,False,True,left,0,63,63,63,2018-09-17 09:29:02.957753,2018-09-17 09:29:07.044987,0:00:04.087234,2,left,1,0.3504948228817284,26,f,2,2,2018_Sep_17_0921,MP_PerceptionTuring2,59.93671263100265,
65,resources/videos_generated\model(vcgpdm)-dataset(walking)-mode(ELBO)-parts(2)-dyn(25)-lvm(22)_final(6).mov,resources/videos_natural\training(17).mov,True,True,left,0,64,64,64,2018-09-17 09:29:08.512071,2018-09-17 09:29:12.649308,0:00:04.137237,2,right,0,0.2838102867744965,26,f,2,2,2018_Sep_17_0921,MP_PerceptionTuring2,59.93671263100265,
66,resources/videos_generated\model(vcgpdm)-dataset(walking)-mode(ELBO)-parts(1)-dyn(25)-lvm(22)_final(5).mov,resources/videos_natural\training(28).mov,False,True,left,0,65,65,65,2018-09-17 09:29:14.050388,2018-09-17 09:29:17.953611,0:00:03.903223,2,left,1,0.3505779458978395,26,f,2,2,2018_Sep_17_0921,MP_PerceptionTuring2,59.93671263100265,
67,resources/videos_generated\model(vcgpdm)-dataset(walking)-mode(ELBO)-parts(1)-dyn(28)-lvm(25)_final(4).mov,resources/videos_natural\training(10).mov,True,True,left,0,66,66,66,2018-09-17 09:29:19.421695,2018-09-17 09:29:23.341919,0:00:03.920224,2,left,1,0.3171293647112634,26,f,2,2,2018_Sep_17_0921,MP_PerceptionTuring2,59.93671263100265,
68,resources/videos_generated\model(vcgpdm)-dataset(walking)-mode(ELBO)-parts(2)-dyn(22)-lvm(21)_final(4).mov,resources/videos_natural\training(32).mov,False,True,left,0,67,67,67,2018-09-17 09:29:24.776001,2018-09-17 09:29:28.696226,0:00:03.920225,2,right,0,0.333896722664349,26,f,2,2,2018_Sep_17_0921,MP_PerceptionTuring2,59.93671263100265,
69,resources/videos_generated\model(vcgpdm)-dataset(walking)-mode(ELBO)-parts(2)-dyn(27)-lvm(22)_final(0).mov,resources/videos_natural\training(31).mov,True,True,left,0,68,68,68,2018-09-17 09:29:30.147309,2018-09-17 09:29:34.067533,0:00:03.920224,2,left,1,0.5172492305096057,26,f,2,2,2018_Sep_17_0921,MP_PerceptionTuring2,59.93671263100265,
70,resources/videos_generated\model(dmp)-dataset(walking)-npsi(90)_final(7).mov,resources/videos_natural\training(18).mov,True,False,right,0,69,69,69,2018-09-17 09:29:35.702626,2018-09-17 09:29:39.655852,0:00:03.953226,2,left,0,0.5174419795325775,26,f,2,2,2018_Sep_17_0921,MP_PerceptionTuring2,59.93671263100265,
71,resources/videos_generated\model(vcgpdm)-dataset(walking)-mode(ELBO)-parts(1)-dyn(27)-lvm(28)_final(8).mov,resources/videos_natural\training(23).mov,False,False,right,0,70,70,70,2018-09-17 09:29:41.290946,2018-09-17 09:29:45.277174,0:00:03.986228,2,right,1,0.2822794378957951,26,f,2,2,2018_Sep_17_0921,MP_PerceptionTuring2,59.93671263100265,
72,resources/videos_generated\model(vcgpdm)-dataset(walking)-mode(ELBO)-parts(1)-dyn(23)-lvm(24)_final(2).mov,resources/videos_natural\training(9).mov,False,False,right,0,71,71,71,2018-09-17 09:29:46.678254,2018-09-17 09:29:50.598478,0:00:03.920224,2,right,1,0.31722543805221903,26,f,2,2,2018_Sep_17_0921,MP_PerceptionTuring2,59.93671263100265,
73,resources/videos_generated\model(tmp)-dataset(walking)-numprim(12)_final(1).mov,resources/videos_natural\training(21).mov,False,False,right,0,72,72,72,2018-09-17 09:29:52.033560,2018-09-17 09:29:55.953785,0:00:03.920225,2,right,1,0.3171938151656377,26,f,2,2,2018_Sep_17_0921,MP_PerceptionTuring2,59.93671263100265,
74,resources/videos_generated\model(vcgpdm)-dataset(walking)-mode(ELBO)-parts(2)-dyn(25)-lvm(22)_final(4).mov,resources/videos_natural\training(41).mov,False,False,right,0,73,73,73,2018-09-17 09:29:57.387867,2018-09-17 09:30:01.308091,0:00:03.920224,2,right,1,0.3005014486293476,26,f,2,2,2018_Sep_17_0921,MP_PerceptionTuring2,59.93671263100265,
75,resources/videos_generated\model(vcgpdm)-dataset(walking)-mode(ELBO)-parts(1)-dyn(24)-lvm(23)_final(3)_fail.mov,resources/videos_natural\training(43).mov,False,False,right,0,74,74,74,2018-09-17 09:30:02.726172,2018-09-17 09:30:06.829407,0:00:04.103235,2,right,1,0.41732542660793115,26,f,2,2,2018_Sep_17_0921,MP_PerceptionTuring2,59.93671263100265,
76,resources/videos_generated\model(vcgpdm)-dataset(walking)-mode(ELBO)-parts(1)-dyn(25)-lvm(23)_final(2).mov,resources/videos_natural\training(20).mov,False,False,right,0,75,75,75,2018-09-17 09:30:08.364494,2018-09-17 09:30:12.250717,0:00:03.886223,2,right,1,0.600770694920584,26,f,2,2,2018_Sep_17_0921,MP_PerceptionTuring2,59.93671263100265,
77,resources/videos_generated\model(vcgpdm)-dataset(walking)-mode(ELBO)-parts(2)-dyn(24)-lvm(23)_final(4).mov,resources/videos_natural\training(42).mov,False,False,right,0,76,76,76,2018-09-17 09:30:13.968815,2018-09-17 09:30:17.906040,0:00:03.937225,2,right,1,1.317953667953816,26,f,2,2,2018_Sep_17_0921,MP_PerceptionTuring2,59.93671263100265,
78,resources/videos_generated\model(vcgpdm)-dataset(walking)-mode(ELBO)-parts(1)-dyn(28)-lvm(23)_final(2).mov,resources/videos_natural\training(21).mov,False,False,right,0,77,77,77,2018-09-17 09:30:20.341179,2018-09-17 09:30:24.311407,0:00:03.970228,2,left,0,0.41725856679045137,26,f,2,2,2018_Sep_17_0921,MP_PerceptionTuring2,59.93671263100265,
79,resources/videos_generated\model(vcgpdm)-dataset(walking)-mode(ELBO)-parts(1)-dyn(28)-lvm(25)_final(8).mov,resources/videos_natural\training(22).mov,False,True,left,0,78,78,78,2018-09-17 09:30:25.845494,2018-09-17 09:30:29.865724,0:00:04.020230,2,left,1,0.45055505695131615,26,f,2,2,2018_Sep_17_0921,MP_PerceptionTuring2,59.93671263100265,
80,resources/videos_generated\model(vcgpdm)-dataset(walking)-mode(ELBO)-parts(2)-dyn(25)-lvm(22)_final(0).mov,resources/videos_natural\training(4).mov,False,True,left,0,79,79,79,2018-09-17 09:30:31.433814,2018-09-17 09:30:35.371039,0:00:03.937225,2,left,1,1.7183223004594765,26,f,2,2,2018_Sep_17_0921,MP_PerceptionTuring2,59.93671263100265,
81,resources/videos_generated\model(vcgpdm)-dataset(walking)-mode(ELBO)-parts(2)-dyn(28)-lvm(17)_final(0).mov,resources/videos_natural\training(24).mov,False,False,right,0,80,80,80,2018-09-17 09:30:38.206201,2018-09-17 09:30:42.126425,0:00:03.920224,2,right,1,0.3172540492353164,26,f,2,2,2018_Sep_17_0921,MP_PerceptionTuring2,59.93671263100265,
82,resources/videos_generated\model(vcgpdm)-dataset(walking)-mode(ELBO)-parts(2)-dyn(28)-lvm(23)_final(4)_fail.mov,resources/videos_natural\training(27).mov,True,False,right,0,81,81,81,2018-09-17 09:30:43.561508,2018-09-17 09:30:47.481732,0:00:03.920224,2,right,1,0.40070955733995106,26,f,2,2,2018_Sep_17_0921,MP_PerceptionTuring2,59.93671263100265,
83,resources/videos_generated\model(vcgpdm)-dataset(walking)-mode(ELBO)-parts(2)-dyn(28)-lvm(23)_final(8).mov,resources/videos_natural\training(35).mov,False,True,left,0,82,82,82,2018-09-17 09:30:48.999819,2018-09-17 09:30:52.919043,0:00:03.919224,2,left,1,0.3172206193266902,26,f,2,2,2018_Sep_17_0921,MP_PerceptionTuring2,59.93671263100265,
84,resources/videos_generated\model(vcgpdm)-dataset(walking)-mode(ELBO)-parts(1)-dyn(25)-lvm(24)_final(0).mov,resources/videos_natural\training(0).mov,False,False,right,0,83,83,83,2018-09-17 09:30:54.354125,2018-09-17 09:30:58.441359,0:00:04.087234,2,right,1,0.3157557267541051,26,f,2,2,2018_Sep_17_0921,MP_PerceptionTuring2,59.93671263100265,
85,resources/videos_generated\model(vcgpdm)-dataset(walking)-mode(ELBO)-parts(2)-dyn(28)-lvm(21)_final(4).mov,resources/videos_natural\training(30).mov,False,True,left,0,84,84,84,2018-09-17 09:30:59.875441,2018-09-17 09:31:03.761663,0:00:03.886222,2,left,1,0.5339964100494399,26,f,2,2,2018_Sep_17_0921,MP_PerceptionTuring2,59.93671263100265,
86,resources/videos_generated\model(tmp)-dataset(walking)-numprim(13)_final(5).mov,resources/videos_natural\training(23).mov,True,False,right,0,85,85,85,2018-09-17 09:31:05.413757,2018-09-17 09:31:09.333982,0:00:03.920225,2,left,0,0.4005917997337747,26,f,2,2,2018_Sep_17_0921,MP_PerceptionTuring2,59.93671263100265,
87,resources/videos_generated\model(vcgpdm)-dataset(walking)-mode(ELBO)-parts(2)-dyn(22)-lvm(21)_final(6).mov,resources/videos_natural\training(11).mov,False,True,left,0,86,86,86,2018-09-17 09:31:10.852068,2018-09-17 09:31:14.905300,0:00:04.053232,2,left,1,0.3340138779294648,26,f,2,2,2018_Sep_17_0921,MP_PerceptionTuring2,59.93671263100265,
88,resources/videos_generated\model(vcgpdm)-dataset(walking)-mode(ELBO)-parts(1)-dyn(24)-lvm(23)_final(9).mov,resources/videos_natural\training(27).mov,True,True,left,0,87,87,87,2018-09-17 09:31:16.356383,2018-09-17 09:31:20.292608,0:00:03.936225,2,right,0,0.28385787168940624,26,f,2,2,2018_Sep_17_0921,MP_PerceptionTuring2,59.93671263100265,
89,resources/videos_generated\model(dmp)-dataset(walking)-npsi(70)_final(9).mov,resources/videos_natural\training(28).mov,True,False,right,0,88,88,88,2018-09-17 09:31:21.694689,2018-09-17 09:31:25.663916,0:00:03.969227,2,left,0,0.5840024334565896,26,f,2,2,2018_Sep_17_0921,MP_PerceptionTuring2,59.93671263100265,
90,resources/videos_generated\model(dmp)-dataset(walking)-npsi(90)_final(3).mov,resources/videos_natural\training(4).mov,False,True,left,0,89,89,89,2018-09-17 09:31:27.366013,2018-09-17 09:31:31.286237,0:00:03.920224,2,right,0,0.3504912088376386,26,f,2,2,2018_Sep_17_0921,MP_PerceptionTuring2,59.93671263100265,
91,resources/videos_generated\model(tmp)-dataset(walking)-numprim(12)_final(7).mov,resources/videos_natural\training(24).mov,True,True,left,0,90,90,90,2018-09-17 09:32:04.548140,2018-09-17 09:32:08.468364,0:00:03.920224,3,right,0,0.3004900041560177,26,f,2,2,2018_Sep_17_0921,MP_PerceptionTuring2,59.93671263100265,
92,resources/videos_generated\model(tmp)-dataset(walking)-numprim(14)_final(5).mov,resources/videos_natural\training(40).mov,True,True,left,0,91,91,91,2018-09-17 09:32:09.886445,2018-09-17 09:32:13.905675,0:00:04.019230,3,right,0,0.3005195188502512,26,f,2,2,2018_Sep_17_0921,MP_PerceptionTuring2,59.93671263100265,
93,resources/videos_generated\model(vcgpdm)-dataset(walking)-mode(ELBO)-parts(2)-dyn(23)-lvm(22)_final(2).mov,resources/videos_natural\training(20).mov,True,False,right,0,92,92,92,2018-09-17 09:32:15.323756,2018-09-17 09:32:19.410990,0:00:04.087234,3,right,1,0.7175997927947719,26,f,2,2,2018_Sep_17_0921,MP_PerceptionTuring2,59.93671263100265,
94,resources/videos_generated\model(vcgpdm)-dataset(walking)-mode(ELBO)-parts(1)-dyn(24)-lvm(27)_final(3).mov,resources/videos_natural\training(0).mov,True,True,left,0,93,93,93,2018-09-17 09:32:21.246095,2018-09-17 09:32:25.182320,0:00:03.936225,3,left,1,0.3173389792736998,26,f,2,2,2018_Sep_17_0921,MP_PerceptionTuring2,59.93671263100265,
95,resources/videos_generated\model(vcgpdm)-dataset(walking)-mode(ELBO)-parts(2)-dyn(24)-lvm(21)_final(6).mov,resources/videos_natural\training(8).mov,True,False,right,0,94,94,94,2018-09-17 09:32:26.617402,2018-09-17 09:32:30.520625,0:00:03.903223,3,left,0,0.4170718411746748,26,f,2,2,2018_Sep_17_0921,MP_PerceptionTuring2,59.93671263100265,
96,resources/videos_generated\model(dmp)-dataset(walking)-npsi(80)_final(7).mov,resources/videos_natural\training(44).mov,False,True,left,0,95,95,95,2018-09-17 09:32:32.054713,2018-09-17 09:32:36.141947,0:00:04.087234,3,right,0,0.7174178859045242,26,f,2,2,2018_Sep_17_0921,MP_PerceptionTuring2,59.93671263100265,
97,resources/videos_generated\model(vcgpdm)-dataset(walking)-mode(ELBO)-parts(2)-dyn(25)-lvm(18)_final(0).mov,resources/videos_natural\training(9).mov,True,False,right,0,96,96,96,2018-09-17 09:32:37.977052,2018-09-17 09:32:41.913277,0:00:03.936225,3,right,1,0.46716640866407033,26,f,2,2,2018_Sep_17_0921,MP_PerceptionTuring2,59.93671263100265,
98,resources/videos_generated\model(vcgpdm)-dataset(walking)-mode(ELBO)-parts(2)-dyn(28)-lvm(19)_final(4).mov,resources/videos_natural\training(40).mov,False,False,right,0,97,97,97,2018-09-17 09:32:43.498368,2018-09-17 09:32:47.468595,0:00:03.970227,3,right,1,0.717466675500873,26,f,2,2,2018_Sep_17_0921,MP_PerceptionTuring2,59.93671263100265,
99,resources/videos_generated\model(vcgpdm)-dataset(walking)-mode(ELBO)-parts(1)-dyn(26)-lvm(27)_final(2).mov,resources/videos_natural\training(24).mov,True,False,right,0,98,98,98,2018-09-17 09:32:49.303700,2018-09-17 09:32:53.339930,0:00:04.036230,3,left,0,0.43400152994536256,26,f,2,2,2018_Sep_17_0921,MP_PerceptionTuring2,59.93671263100265,
100,resources/videos_generated\model(vcgpdm)-dataset(walking)-mode(ELBO)-parts(1)-dyn(26)-lvm(25)_final(8).mov,resources/videos_natural\training(31).mov,False,True,left,0,99,99,99,2018-09-17 09:32:54.891019,2018-09-17 09:32:58.795242,0:00:03.904223,3,left,1,0.517249531680136,26,f,2,2,2018_Sep_17_0921,MP_PerceptionTuring2,59.93671263100265,
101,resources/videos_generated\model(vcgpdm)-dataset(walking)-mode(ELBO)-parts(1)-dyn(28)-lvm(23)_final(0).mov,resources/videos_natural\training(0).mov,False,True,left,0,100,100,100,2018-09-17 09:33:00.429336,2018-09-17 09:33:04.399563,0:00:03.970227,3,left,1,0.5673727103521742,26,f,2,2,2018_Sep_17_0921,MP_PerceptionTuring2,59.93671263100265,
102,resources/videos_generated\model(dmp)-dataset(walking)-npsi(90)_final(5).mov,resources/videos_natural\training(27).mov,True,False,right,0,101,101,101,2018-09-17 09:33:06.084659,2018-09-17 09:33:10.137891,0:00:04.053232,3,right,1,0.383770231118433,26,f,2,2,2018_Sep_17_0921,MP_PerceptionTuring2,59.93671263100265,
103,resources/videos_generated\model(vcgpdm)-dataset(walking)-mode(ELBO)-parts(2)-dyn(24)-lvm(23)_final(0).mov,resources/videos_natural\training(13).mov,True,True,left,0,102,102,102,2018-09-17 09:33:11.638977,2018-09-17 09:33:15.709210,0:00:04.070233,3,left,1,0.4506544431660586,26,f,2,2,2018_Sep_17_0921,MP_PerceptionTuring2,59.93671263100265,
104,resources/videos_generated\model(dmp)-dataset(walking)-npsi(70)_final(1).mov,resources/videos_natural\training(20).mov,False,True,left,0,103,103,103,2018-09-17 09:33:17.277300,2018-09-17 09:33:21.214525,0:00:03.937225,3,left,1,0.4670766599001581,26,f,2,2,2018_Sep_17_0921,MP_PerceptionTuring2,59.93671263100265,
105,resources/videos_generated\model(vcgpdm)-dataset(walking)-mode(ELBO)-parts(2)-dyn(27)-lvm(18)_final(4).mov,resources/videos_natural\training(3).mov,False,False,right,0,104,104,104,2018-09-17 09:33:22.798615,2018-09-17 09:33:26.718840,0:00:03.920225,3,left,0,0.45063607177507947,26,f,2,2,2018_Sep_17_0921,MP_PerceptionTuring2,59.93671263100265,
106,resources/videos_generated\model(vcgpdm)-dataset(walking)-mode(ELBO)-parts(1)-dyn(24)-lvm(23)_final(1).mov,resources/videos_natural\training(35).mov,True,True,left,0,105,105,105,2018-09-17 09:33:28.286929,2018-09-17 09:33:32.224155,0:00:03.937226,3,left,1,0.40070293159215,26,f,2,2,2018_Sep_17_0921,MP_PerceptionTuring2,59.93671263100265,
107,resources/videos_generated\model(vcgpdm)-dataset(walking)-mode(ELBO)-parts(2)-dyn(26)-lvm(17)_final(2).mov,resources/videos_natural\training(25).mov,False,False,right,0,106,106,106,2018-09-17 09:33:33.742241,2018-09-17 09:33:37.678466,0:00:03.936225,3,right,1,0.2837371023797459,26,f,2,2,2018_Sep_17_0921,MP_PerceptionTuring2,59.93671263100265,
108,resources/videos_generated\model(dmp)-dataset(walking)-npsi(60)_final(7).mov,resources/videos_natural\training(15).mov,False,False,right,0,107,107,107,2018-09-17 09:33:39.079547,2018-09-17 09:33:43.166780,0:00:04.087233,3,left,0,0.283819020714418,26,f,2,2,2018_Sep_17_0921,MP_PerceptionTuring2,59.93671263100265,
109,resources/videos_generated\model(vcgpdm)-dataset(walking)-mode(ELBO)-parts(2)-dyn(22)-lvm(19)_final(8).mov,resources/videos_natural\training(37).mov,True,False,right,0,108,108,108,2018-09-17 09:33:44.567861,2018-09-17 09:33:48.571090,0:00:04.003229,3,right,1,0.33390003553813585,26,f,2,2,2018_Sep_17_0921,MP_PerceptionTuring2,59.93671263100265,
110,resources/videos_generated\model(vcgpdm)-dataset(walking)-mode(ELBO)-parts(2)-dyn(22)-lvm(19)_final(4).mov,resources/videos_natural\training(17).mov,True,False,right,0,109,109,109,2018-09-17 09:33:50.022173,2018-09-17 09:33:54.009401,0:00:03.987228,3,right,1,0.2504472379669096,26,f,2,2,2018_Sep_17_0921,MP_PerceptionTuring2,59.93671263100265,
111,resources/videos_generated\model(vcgpdm)-dataset(walking)-mode(ELBO)-parts(1)-dyn(25)-lvm(24)_final(4).mov,resources/videos_natural\training(25).mov,True,True,left,0,110,110,110,2018-09-17 09:33:55.377479,2018-09-17 09:33:59.313704,0:00:03.936225,3,left,1,0.30035628452151286,26,f,2,2,2018_Sep_17_0921,MP_PerceptionTuring2,59.93671263100265,
112,resources/videos_generated\model(vcgpdm)-dataset(walking)-mode(ELBO)-parts(2)-dyn(28)-lvm(23)_final(0).mov,resources/videos_natural\training(21).mov,False,False,right,0,111,111,111,2018-09-17 09:34:00.731785,2018-09-17 09:34:04.635008,0:00:03.903223,3,right,1,0.3504761503204463,26,f,2,2,2018_Sep_17_0921,MP_PerceptionTuring2,59.93671263100265,
113,resources/videos_generated\model(vcgpdm)-dataset(walking)-mode(ELBO)-parts(2)-dyn(25)-lvm(22)_final(8).mov,resources/videos_natural\training(23).mov,True,True,left,0,112,112,112,2018-09-17 09:34:06.103092,2018-09-17 09:34:10.023317,0:00:03.920225,3,left,1,0.7173968039801366,26,f,2,2,2018_Sep_17_0921,MP_PerceptionTuring2,59.93671263100265,
114,resources/videos_generated\model(vcgpdm)-dataset(walking)-mode(ELBO)-parts(1)-dyn(25)-lvm(26)_final(1).mov,resources/videos_natural\training(1).mov,False,False,right,0,113,113,113,2018-09-17 09:34:11.858421,2018-09-17 09:34:15.777646,0:00:03.919225,3,right,1,0.4172941048914254,26,f,2,2,2018_Sep_17_0921,MP_PerceptionTuring2,59.93671263100265,
115,resources/videos_generated\model(vcgpdm)-dataset(walking)-mode(ELBO)-parts(1)-dyn(24)-lvm(23)_final(5).mov,resources/videos_natural\training(38).mov,False,True,left,0,114,114,114,2018-09-17 09:34:17.312733,2018-09-17 09:34:21.215957,0:00:03.903224,3,right,0,0.3839027460712714,26,f,2,2,2018_Sep_17_0921,MP_PerceptionTuring2,59.93671263100265,
116,resources/videos_generated\model(vcgpdm)-dataset(walking)-mode(ELBO)-parts(1)-dyn(22)-lvm(25)_final(5).mov,resources/videos_natural\training(20).mov,False,False,right,0,115,115,115,2018-09-17 09:34:22.717043,2018-09-17 09:34:26.771274,0:00:04.054231,3,right,1,0.28452857805405074,26,f,2,2,2018_Sep_17_0921,MP_PerceptionTuring2,59.93671263100265,
117,resources/videos_generated\model(vcgpdm)-dataset(walking)-mode(ELBO)-parts(1)-dyn(24)-lvm(27)_final(1).mov,resources/videos_natural\training(36).mov,False,False,right,0,116,116,116,2018-09-17 09:34:28.172355,2018-09-17 09:34:32.225586,0:00:04.053231,3,right,1,0.28380727507101255,26,f,2,2,2018_Sep_17_0921,MP_PerceptionTuring2,59.93671263100265,
118,resources/videos_generated\model(vcgpdm)-dataset(walking)-mode(ELBO)-parts(1)-dyn(26)-lvm(23)_final(4)_fail.mov,resources/videos_natural\training(45).mov,False,True,left,0,117,117,117,2018-09-17 09:34:33.626667,2018-09-17 09:34:37.546891,0:00:03.920224,3,left,1,0.35047795734226384,26,f,2,2,2018_Sep_17_0921,MP_PerceptionTuring2,59.93671263100265,
119,resources/videos_generated\model(vcgpdm)-dataset(walking)-mode(ELBO)-parts(2)-dyn(25)-lvm(20)_final(4).mov,resources/videos_natural\training(16).mov,True,True,left,0,118,118,118,2018-09-17 09:34:39.014975,2018-09-17 09:34:42.951200,0:00:03.936225,3,left,1,0.3002596088399514,26,f,2,2,2018_Sep_17_0921,MP_PerceptionTuring2,59.93671263100265,
120,resources/videos_generated\model(vcgpdm)-dataset(walking)-mode(ELBO)-parts(2)-dyn(24)-lvm(23)_final(8).mov,resources/videos_natural\training(22).mov,True,True,left,0,119,119,119,2018-09-17 09:34:44.369281,2018-09-17 09:34:48.456515,0:00:04.087234,3,left,1,0.3172802510553083,26,f,2,2,2018_Sep_17_0921,MP_PerceptionTuring2,59.93671263100265,
121,resources/videos_generated\model(dmp)-dataset(walking)-npsi(100)_final(7).mov,resources/videos_natural\training(17).mov,False,False,right,0,120,120,120,2018-09-17 09:34:49.890597,2018-09-17 09:34:53.860824,0:00:03.970227,3,right,1,0.31889091007633397,26,f,2,2,2018_Sep_17_0921,MP_PerceptionTuring2,59.93671263100265,
122,resources/videos_generated\model(vcgpdm)-dataset(walking)-mode(ELBO)-parts(1)-dyn(27)-lvm(28)_final(4).mov,resources/videos_natural\training(11).mov,True,True,left,0,121,121,121,2018-09-17 09:34:55.295906,2018-09-17 09:34:59.249132,0:00:03.953226,3,left,1,0.4172871779737761,26,f,2,2,2018_Sep_17_0921,MP_PerceptionTuring2,59.93671263100265,
123,resources/videos_generated\model(tmp)-dataset(walking)-numprim(15)_final(1).mov,resources/videos_natural\training(14).mov,True,False,right,0,122,122,122,2018-09-17 09:35:00.783220,2018-09-17 09:35:04.720445,0:00:03.937225,3,right,1,0.8509110403028899,26,f,2,2,2018_Sep_17_0921,MP_PerceptionTuring2,59.93671263100265,
124,resources/videos_generated\model(tmp)-dataset(walking)-numprim(14)_final(1).mov,resources/videos_natural\training(17).mov,False,False,right,0,123,123,123,2018-09-17 09:35:06.688558,2018-09-17 09:35:10.575780,0:00:03.887222,3,right,1,0.4838069739007551,26,f,2,2,2018_Sep_17_0921,MP_PerceptionTuring2,59.93671263100265,
125,resources/videos_generated\model(vcgpdm)-dataset(walking)-mode(ELBO)-parts(2)-dyn(26)-lvm(17)_final(4).mov,resources/videos_natural\training(28).mov,False,False,right,0,124,124,124,2018-09-17 09:35:12.176871,2018-09-17 09:35:16.097096,0:00:03.920225,3,right,1,0.5675260060597793,26,f,2,2,2018_Sep_17_0921,MP_PerceptionTuring2,59.93671263100265,
126,resources/videos_generated\model(vcgpdm)-dataset(walking)-mode(ELBO)-parts(2)-dyn(24)-lvm(17)_final(6).mov,resources/videos_natural\training(9).mov,True,True,left,0,125,125,125,2018-09-17 09:35:17.781192,2018-09-17 09:35:21.835424,0:00:04.054232,3,left,1,0.4839563543928307,26,f,2,2,2018_Sep_17_0921,MP_PerceptionTuring2,59.93671263100265,
127,resources/videos_generated\model(dmp)-dataset(walking)-npsi(70)_final(7).mov,resources/videos_natural\training(17).mov,True,True,left,0,126,126,126,2018-09-17 09:35:23.436515,2018-09-17 09:35:27.523749,0:00:04.087234,3,left,1,0.33377173696999307,26,f,2,2,2018_Sep_17_0921,MP_PerceptionTuring2,59.93671263100265,
128,resources/videos_generated\model(tmp)-dataset(walking)-numprim(15)_final(5).mov,resources/videos_natural\training(22).mov,True,False,right,0,127,127,127,2018-09-17 09:35:28.974832,2018-09-17 09:35:32.911057,0:00:03.936225,3,left,0,0.5173422921470774,26,f,2,2,2018_Sep_17_0921,MP_PerceptionTuring2,59.93671263100265,
129,resources/videos_generated\model(vcgpdm)-dataset(walking)-mode(ELBO)-parts(2)-dyn(26)-lvm(21)_final(4).mov,resources/videos_natural\training(42).mov,False,True,left,0,128,128,128,2018-09-17 09:35:34.552151,2018-09-17 09:35:38.466375,0:00:03.914224,3,left,1,0.4840144802701616,26,f,2,2,2018_Sep_17_0921,MP_PerceptionTuring2,59.93671263100265,
130,resources/videos_generated\model(tmp)-dataset(walking)-numprim(11)_final(3).mov,resources/videos_natural\training(19).mov,False,True,left,0,129,129,129,2018-09-17 09:35:40.067467,2018-09-17 09:35:44.004692,0:00:03.937225,3,left,1,0.3004945217116983,26,f,2,2,2018_Sep_17_0921,MP_PerceptionTuring2,59.93671263100265,
131,resources/videos_generated\model(vcgpdm)-dataset(walking)-mode(ELBO)-parts(2)-dyn(23)-lvm(20)_final(0).mov,resources/videos_natural\training(6).mov,True,False,right,0,130,130,130,2018-09-17 09:35:45.422773,2018-09-17 09:35:49.409001,0:00:03.986228,3,right,1,0.31718628590715525,26,f,2,2,2018_Sep_17_0921,MP_PerceptionTuring2,59.93671263100265,
132,resources/videos_generated\model(vcgpdm)-dataset(walking)-mode(ELBO)-parts(2)-dyn(23)-lvm(20)_final(6).mov,resources/videos_natural\training(32).mov,True,True,left,0,131,131,131,2018-09-17 09:35:50.844083,2018-09-17 09:35:54.797309,0:00:03.953226,3,left,1,0.36720164559483237,26,f,2,2,2018_Sep_17_0921,MP_PerceptionTuring2,59.93671263100265,
133,resources/videos_generated\model(vcgpdm)-dataset(walking)-mode(ELBO)-parts(1)-dyn(27)-lvm(28)_final(6).mov,resources/videos_natural\training(34).mov,False,False,right,0,132,132,132,2018-09-17 09:35:56.281394,2018-09-17 09:36:00.235620,0:00:03.954226,3,right,1,0.3004975334147275,26,f,2,2,2018_Sep_17_0921,MP_PerceptionTuring2,59.93671263100265,
134,resources/videos_generated\model(tmp)-dataset(walking)-numprim(15)_final(7).mov,resources/videos_natural\training(6).mov,True,True,left,0,133,133,133,2018-09-17 09:36:01.652701,2018-09-17 09:36:05.606928,0:00:03.954227,3,left,1,0.48382835699567295,26,f,2,2,2018_Sep_17_0921,MP_PerceptionTuring2,59.93671263100265,
135,resources/videos_generated\model(vcgpdm)-dataset(walking)-mode(ELBO)-parts(1)-dyn(22)-lvm(27)_final(5)_fail.mov,resources/videos_natural\training(6).mov,False,False,right,0,134,134,134,2018-09-17 09:36:07.208019,2018-09-17 09:36:11.111242,0:00:03.903223,3,right,1,0.30059782314037875,26,f,2,2,2018_Sep_17_0921,MP_PerceptionTuring2,59.93671263100265,
136,resources/videos_generated\model(vcgpdm)-dataset(walking)-mode(ELBO)-parts(2)-dyn(26)-lvm(21)_final(8).mov,resources/videos_natural\training(12).mov,True,False,right,0,135,135,135,2018-09-17 09:36:44.640160,2018-09-17 09:36:48.743395,0:00:04.103235,4,right,1,0.30054270896698654,26,f,2,2,2018_Sep_17_0921,MP_PerceptionTuring2,59.93671263100265,
137,resources/videos_generated\model(vcgpdm)-dataset(walking)-mode(ELBO)-parts(2)-dyn(26)-lvm(19)_final(8).mov,resources/videos_natural\training(2).mov,False,False,right,0,136,136,136,2018-09-17 09:36:50.161476,2018-09-17 09:36:54.114702,0:00:03.953226,4,right,1,0.567406441431558,26,f,2,2,2018_Sep_17_0921,MP_PerceptionTuring2,59.93671263100265,
138,resources/videos_generated\model(vcgpdm)-dataset(walking)-mode(ELBO)-parts(1)-dyn(23)-lvm(26)_final(4)_hip-corrected.mov,resources/videos_natural\training(12).mov,True,False,right,0,137,137,137,2018-09-17 09:36:55.799798,2018-09-17 09:36:59.720023,0:00:03.920225,4,right,1,0.4173790349295814,26,f,2,2,2018_Sep_17_0921,MP_PerceptionTuring2,59.93671263100265,
139,resources/videos_generated\model(vcgpdm)-dataset(walking)-mode(ELBO)-parts(2)-dyn(27)-lvm(22)_final(6).mov,resources/videos_natural\training(10).mov,True,False,right,0,138,138,138,2018-09-17 09:37:01.254110,2018-09-17 09:37:05.158334,0:00:03.904224,4,right,1,0.31712243779293203,26,f,2,2,2018_Sep_17_0921,MP_PerceptionTuring2,59.93671263100265,
140,resources/videos_generated\model(tmp)-dataset(walking)-numprim(15)_final(3).mov,resources/videos_natural\training(44).mov,True,True,left,0,139,139,139,2018-09-17 09:37:06.592416,2018-09-17 09:37:10.545642,0:00:03.953226,4,left,1,0.40058637866741265,26,f,2,2,2018_Sep_17_0921,MP_PerceptionTuring2,59.93671263100265,
141,resources/videos_generated\model(vcgpdm)-dataset(walking)-mode(ELBO)-parts(1)-dyn(25)-lvm(28)_final(1).mov,resources/videos_natural\training(37).mov,True,True,left,0,140,140,140,2018-09-17 09:37:12.063729,2018-09-17 09:37:16.083959,0:00:04.020230,4,left,1,0.31709292309915327,26,f,2,2,2018_Sep_17_0921,MP_PerceptionTuring2,59.93671263100265,
142,resources/videos_generated\model(vcgpdm)-dataset(walking)-mode(ELBO)-parts(1)-dyn(23)-lvm(27)_final(7).mov,resources/videos_natural\training(1).mov,True,False,right,0,141,141,141,2018-09-17 09:37:17.519041,2018-09-17 09:37:21.422264,0:00:03.903223,4,right,1,0.3337831814428682,26,f,2,2,2018_Sep_17_0921,MP_PerceptionTuring2,59.93671263100265,
143,resources/videos_generated\model(vcgpdm)-dataset(walking)-mode(ELBO)-parts(1)-dyn(28)-lvm(27)_final(8).mov,resources/videos_natural\training(43).mov,True,True,left,0,142,142,142,2018-09-17 09:37:22.873347,2018-09-17 09:37:26.860575,0:00:03.987228,4,right,0,0.4338843746800194,26,f,2,2,2018_Sep_17_0921,MP_PerceptionTuring2,59.93671263100265,
144,resources/videos_generated\model(vcgpdm)-dataset(walking)-mode(ELBO)-parts(2)-dyn(22)-lvm(17)_final(8).mov,resources/videos_natural\training(12).mov,True,True,left,0,143,143,143,2018-09-17 09:37:28.411664,2018-09-17 09:37:32.364890,0:00:03.953226,4,left,1,0.734244273245622,26,f,2,2,2018_Sep_17_0921,MP_PerceptionTuring2,59.93671263100265,
145,resources/videos_generated\model(vcgpdm)-dataset(walking)-mode(ELBO)-parts(1)-dyn(22)-lvm(22)_final(5).mov,resources/videos_natural\training(41).mov,True,False,right,0,144,144,144,2018-09-17 09:37:34.215996,2018-09-17 09:37:38.170222,0:00:03.954226,4,right,1,0.35062251910903797,26,f,2,2,2018_Sep_17_0921,MP_PerceptionTuring2,59.93671263100265,
146,resources/videos_generated\model(vcgpdm)-dataset(walking)-mode(ELBO)-parts(1)-dyn(25)-lvm(28)_final(3).mov,resources/videos_natural\training(14).mov,False,True,left,0,145,145,145,2018-09-17 09:37:39.637306,2018-09-17 09:37:43.724540,0:00:04.087234,4,right,0,0.2841036266931951,26,f,2,2,2018_Sep_17_0921,MP_PerceptionTuring2,59.93671263100265,
147,resources/videos_generated\model(vcgpdm)-dataset(walking)-mode(ELBO)-parts(2)-dyn(26)-lvm(21)_final(0).mov,resources/videos_natural\training(48).mov,True,False,right,0,146,146,146,2018-09-17 09:37:45.125620,2018-09-17 09:37:49.045844,0:00:03.920224,4,right,1,0.30051891650964535,26,f,2,2,2018_Sep_17_0921,MP_PerceptionTuring2,59.93671263100265,
148,resources/videos_generated\model(dmp)-dataset(walking)-npsi(60)_final(9).mov,resources/videos_natural\training(7).mov,False,True,left,0,147,147,147,2018-09-17 09:37:50.463925,2018-09-17 09:37:54.517157,0:00:04.053232,4,right,0,0.30035538101037673,26,f,2,2,2018_Sep_17_0921,MP_PerceptionTuring2,59.93671263100265,
149,resources/videos_generated\model(vcgpdm)-dataset(walking)-mode(ELBO)-parts(1)-dyn(27)-lvm(24)_final(4).mov,resources/videos_natural\training(21).mov,False,True,left,0,148,148,148,2018-09-17 09:37:55.935238,2018-09-17 09:37:59.938467,0:00:04.003229,4,left,1,0.3172293532666117,26,f,2,2,2018_Sep_17_0921,MP_PerceptionTuring2,59.93671263100265,
150,resources/videos_generated\model(vcgpdm)-dataset(walking)-mode(ELBO)-parts(1)-dyn(27)-lvm(28)_final(2).mov,resources/videos_natural\training(8).mov,False,True,left,0,149,149,149,2018-09-17 09:38:01.373549,2018-09-17 09:38:05.276772,0:00:03.903223,4,left,1,0.41721519826023723,26,f,2,2,2018_Sep_17_0921,MP_PerceptionTuring2,59.93671263100265,
151,resources/videos_generated\model(vcgpdm)-dataset(walking)-mode(ELBO)-parts(2)-dyn(27)-lvm(18)_final(0).mov,resources/videos_natural\training(13).mov,False,False,right,0,150,150,150,2018-09-17 09:38:06.810860,2018-09-17 09:38:10.731084,0:00:03.920224,4,right,1,0.3004598871211783,26,f,2,2,2018_Sep_17_0921,MP_PerceptionTuring2,59.93671263100265,
152,resources/videos_generated\model(vcgpdm)-dataset(walking)-mode(ELBO)-parts(1)-dyn(25)-lvm(26)_final(7).mov,resources/videos_natural\training(28).mov,False,True,left,0,151,151,151,2018-09-17 09:38:12.149165,2018-09-17 09:38:16.236399,0:00:04.087234,4,right,0,0.2672618796641473,26,f,2,2,2018_Sep_17_0921,MP_PerceptionTuring2,59.93671263100265,
153,resources/videos_generated\model(vcgpdm)-dataset(walking)-mode(ELBO)-parts(1)-dyn(23)-lvm(26)_final(2).mov,resources/videos_natural\training(33).mov,False,False,right,0,152,152,152,2018-09-17 09:38:17.620478,2018-09-17 09:38:21.707712,0:00:04.087234,4,left,0,0.3346484438529842,26,f,2,2,2018_Sep_17_0921,MP_PerceptionTuring2,59.93671263100265,
154,resources/videos_generated\model(vcgpdm)-dataset(walking)-mode(ELBO)-parts(1)-dyn(22)-lvm(22)_final(7).mov,resources/videos_natural\training(45).mov,False,True,left,0,153,153,153,2018-09-17 09:38:23.158795,2018-09-17 09:38:27.129022,0:00:03.970227,4,left,1,0.40066829700208473,26,f,2,2,2018_Sep_17_0921,MP_PerceptionTuring2,59.93671263100265,
155,resources/videos_generated\model(vcgpdm)-dataset(walking)-mode(ELBO)-parts(2)-dyn(24)-lvm(21)_final(4).mov,resources/videos_natural\training(44).mov,True,True,left,0,154,154,154,2018-09-17 09:38:28.647109,2018-09-17 09:38:32.583334,0:00:03.936225,4,left,1,0.41725675976886123,26,f,2,2,2018_Sep_17_0921,MP_PerceptionTuring2,59.93671263100265,
156,resources/videos_generated\model(vcgpdm)-dataset(walking)-mode(ELBO)-parts(2)-dyn(25)-lvm(20)_final(2).mov,resources/videos_natural\training(33).mov,True,True,left,0,155,155,155,2018-09-17 09:38:34.118422,2018-09-17 09:38:38.021645,0:00:03.903223,4,left,1,0.3672688065821603,26,f,2,2,2018_Sep_17_0921,MP_PerceptionTuring2,59.93671263100265,
157,resources/videos_generated\model(vcgpdm)-dataset(walking)-mode(ELBO)-parts(2)-dyn(26)-lvm(23)_final(0).mov,resources/videos_natural\training(36).mov,True,False,right,0,156,156,156,2018-09-17 09:38:39.505730,2018-09-17 09:38:43.425954,0:00:03.920224,4,right,1,0.2838169125220702,26,f,2,2,2018_Sep_17_0921,MP_PerceptionTuring2,59.93671263100265,
158,resources/videos_generated\model(vcgpdm)-dataset(walking)-mode(ELBO)-parts(1)-dyn(23)-lvm(22)_final(0).mov,resources/videos_natural\training(39).mov,False,False,right,0,157,157,157,2018-09-17 09:38:44.827034,2018-09-17 09:38:48.731258,0:00:03.904224,4,right,1,0.23391027532989028,26,f,2,2,2018_Sep_17_0921,MP_PerceptionTuring2,59.93671263100265,
159,resources/videos_generated\model(vcgpdm)-dataset(walking)-mode(ELBO)-parts(1)-dyn(22)-lvm(25)_final(9).mov,resources/videos_natural\training(41).mov,False,True,left,0,158,158,158,2018-09-17 09:38:50.082335,2018-09-17 09:38:53.985558,0:00:03.903223,4,left,1,0.4005505393961357,26,f,2,2,2018_Sep_17_0921,MP_PerceptionTuring2,59.93671263100265,
160,resources/videos_generated\model(vcgpdm)-dataset(walking)-mode(ELBO)-parts(2)-dyn(28)-lvm(19)_final(6).mov,resources/videos_natural\training(33).mov,True,True,left,0,159,159,159,2018-09-17 09:38:55.503645,2018-09-17 09:38:59.406868,0:00:03.903223,4,right,0,0.23381179262605656,26,f,2,2,2018_Sep_17_0921,MP_PerceptionTuring2,59.93671263100265,
161,resources/videos_generated\model(vcgpdm)-dataset(walking)-mode(ELBO)-parts(2)-dyn(26)-lvm(21)_final(6).mov,resources/videos_natural\training(27).mov,False,False,right,0,160,160,160,2018-09-17 09:39:00.757946,2018-09-17 09:39:04.678170,0:00:03.920224,4,right,1,0.30056921195728137,26,f,2,2,2018_Sep_17_0921,MP_PerceptionTuring2,59.93671263100265,
162,resources/videos_generated\model(vcgpdm)-dataset(walking)-mode(ELBO)-parts(1)-dyn(27)-lvm(22)_final(8).mov,resources/videos_natural\training(38).mov,True,False,right,0,161,161,161,2018-09-17 09:39:06.095251,2018-09-17 09:39:10.049477,0:00:03.954226,4,left,0,0.30055204524796864,26,f,2,2,2018_Sep_17_0921,MP_PerceptionTuring2,59.93671263100265,
163,resources/videos_generated\model(vcgpdm)-dataset(walking)-mode(ELBO)-parts(1)-dyn(22)-lvm(22)_final(9).mov,resources/videos_natural\training(13).mov,True,False,right,0,162,162,162,2018-09-17 09:39:11.467558,2018-09-17 09:39:15.386782,0:00:03.919224,4,right,1,0.4338241406103407,26,f,2,2,2018_Sep_17_0921,MP_PerceptionTuring2,59.93671263100265,
164,resources/videos_generated\model(vcgpdm)-dataset(walking)-mode(ELBO)-parts(1)-dyn(22)-lvm(23)_final(1).mov,resources/videos_natural\training(17).mov,False,False,right,0,163,163,163,2018-09-17 09:39:16.938871,2018-09-17 09:39:20.842094,0:00:03.903223,4,right,1,0.48388768755376077,26,f,2,2,2018_Sep_17_0921,MP_PerceptionTuring2,59.93671263100265,
165,resources/videos_generated\model(dmp)-dataset(walking)-npsi(60)_final(3).mov,resources/videos_natural\training(10).mov,False,False,right,0,164,164,164,2018-09-17 09:39:22.443186,2018-09-17 09:39:26.363410,0:00:03.920224,4,left,0,0.31728808148454846,26,f,2,2,2018_Sep_17_0921,MP_PerceptionTuring2,59.93671263100265,
166,resources/videos_generated\model(vcgpdm)-dataset(walking)-mode(ELBO)-parts(1)-dyn(26)-lvm(27)_final(6).mov,resources/videos_natural\training(31).mov,True,False,right,0,165,165,165,2018-09-17 09:39:27.797492,2018-09-17 09:39:31.884726,0:00:04.087234,4,left,0,0.3504875947933215,26,f,2,2,2018_Sep_17_0921,MP_PerceptionTuring2,59.93671263100265,
167,resources/videos_generated\model(vcgpdm)-dataset(walking)-mode(ELBO)-parts(1)-dyn(24)-lvm(25)_final(1).mov,resources/videos_natural\training(47).mov,True,False,right,0,166,166,166,2018-09-17 09:39:33.352810,2018-09-17 09:39:37.440044,0:00:04.087234,4,left,0,0.4338867840428975,26,f,2,2,2018_Sep_17_0921,MP_PerceptionTuring2,59.93671263100265,
168,resources/videos_generated\model(tmp)-dataset(walking)-numprim(15)_final(9).mov,resources/videos_natural\training(15).mov,False,False,right,0,167,167,167,2018-09-17 09:39:38.991132,2018-09-17 09:39:42.894356,0:00:03.903224,4,left,0,1.017962401893783,26,f,2,2,2018_Sep_17_0921,MP_PerceptionTuring2,59.93671263100265,
169,resources/videos_generated\model(vcgpdm)-dataset(walking)-mode(ELBO)-parts(1)-dyn(23)-lvm(22)_final(8)_fail.mov,resources/videos_natural\training(18).mov,False,False,right,0,168,168,168,2018-09-17 09:39:45.029478,2018-09-17 09:39:49.032707,0:00:04.003229,4,right,1,0.5673727103526289,26,f,2,2,2018_Sep_17_0921,MP_PerceptionTuring2,59.93671263100265,
170,resources/videos_generated\model(vcgpdm)-dataset(walking)-mode(ELBO)-parts(2)-dyn(23)-lvm(18)_final(2).mov,resources/videos_natural\training(33).mov,False,False,right,0,169,169,169,2018-09-17 09:39:50.717803,2018-09-17 09:39:54.672029,0:00:03.954226,4,left,0,0.33380546804846745,26,f,2,2,2018_Sep_17_0921,MP_PerceptionTuring2,59.93671263100265,
171,resources/videos_generated\model(vcgpdm)-dataset(walking)-mode(ELBO)-parts(1)-dyn(22)-lvm(25)_final(7).mov,resources/videos_natural\training(21).mov,True,True,left,0,170,170,170,2018-09-17 09:39:56.122112,2018-09-17 09:40:00.026336,0:00:03.904224,4,left,1,0.3172148970897979,26,f,2,2,2018_Sep_17_0921,MP_PerceptionTuring2,59.93671263100265,
172,resources/videos_generated\model(dmp)-dataset(walking)-npsi(100)_final(5).mov,resources/videos_natural\training(13).mov,False,False,right,0,171,171,171,2018-09-17 09:40:01.460418,2018-09-17 09:40:05.363641,0:00:03.903223,4,right,1,0.300686066052549,26,f,2,2,2018_Sep_17_0921,MP_PerceptionTuring2,59.93671263100265,
173,resources/videos_generated\model(vcgpdm)-dataset(walking)-mode(ELBO)-parts(2)-dyn(27)-lvm(22)_final(8).mov,resources/videos_natural\training(10).mov,True,True,left,0,172,172,172,2018-09-17 09:40:06.781722,2018-09-17 09:40:10.701946,0:00:03.920224,4,left,1,0.43380095049360534,26,f,2,2,2018_Sep_17_0921,MP_PerceptionTuring2,59.93671263100265,
174,resources/videos_generated\model(vcgpdm)-dataset(walking)-mode(ELBO)-parts(1)-dyn(24)-lvm(25)_final(7).mov,resources/videos_natural\training(10).mov,False,False,right,0,173,173,173,2018-09-17 09:40:12.253035,2018-09-17 09:40:16.156258,0:00:03.903223,4,right,1,0.3005273492794913,26,f,2,2,2018_Sep_17_0921,MP_PerceptionTuring2,59.93671263100265,
175,resources/videos_generated\model(vcgpdm)-dataset(walking)-mode(ELBO)-parts(2)-dyn(22)-lvm(21)_final(8).mov,resources/videos_natural\training(46).mov,False,True,left,0,174,174,174,2018-09-17 09:40:17.574339,2018-09-17 09:40:21.494563,0:00:03.920224,4,left,1,0.5507535282104072,26,f,2,2,2018_Sep_17_0921,MP_PerceptionTuring2,59.93671263100265,
176,resources/videos_generated\model(vcgpdm)-dataset(walking)-mode(ELBO)-parts(1)-dyn(22)-lvm(25)_final(3).mov,resources/videos_natural\training(21).mov,False,True,left,0,175,175,175,2018-09-17 09:40:23.162659,2018-09-17 09:40:27.082883,0:00:03.920224,4,left,1,0.4173302453332326,26,f,2,2,2018_Sep_17_0921,MP_PerceptionTuring2,59.93671263100265,
177,resources/videos_generated\model(vcgpdm)-dataset(walking)-mode(ELBO)-parts(1)-dyn(27)-lvm(26)_final(0).mov,resources/videos_natural\training(16).mov,True,True,left,0,176,176,176,2018-09-17 09:40:28.616971,2018-09-17 09:40:32.554196,0:00:03.937225,4,left,1,0.3005177118284337,26,f,2,2,2018_Sep_17_0921,MP_PerceptionTuring2,59.93671263100265,
178,resources/videos_generated\model(vcgpdm)-dataset(walking)-mode(ELBO)-parts(1)-dyn(25)-lvm(25)_final(7).mov,resources/videos_natural\training(3).mov,False,False,right,0,177,177,177,2018-09-17 09:40:33.971277,2018-09-17 09:40:37.875500,0:00:03.904223,4,right,1,0.35102940024944473,26,f,2,2,2018_Sep_17_0921,MP_PerceptionTuring2,59.93671263100265,
179,resources/videos_generated\model(vcgpdm)-dataset(walking)-mode(ELBO)-parts(2)-dyn(25)-lvm(18)_final(8).mov,resources/videos_natural\training(9).mov,False,False,right,0,178,178,178,2018-09-17 09:40:39.343584,2018-09-17 09:40:43.229807,0:00:03.886223,4,left,0,0.3338184183735393,26,f,2,2,2018_Sep_17_0921,MP_PerceptionTuring2,59.93671263100265,
180,resources/videos_generated\model(tmp)-dataset(walking)-numprim(11)_final(1).mov,resources/videos_natural\training(16).mov,True,True,left,0,179,179,179,2018-09-17 09:40:44.680890,2018-09-17 09:40:48.785124,0:00:04.104234,4,left,1,0.33395755907440616,26,f,2,2,2018_Sep_17_0921,MP_PerceptionTuring2,59.93671263100265,
181,resources/videos_generated\model(tmp)-dataset(walking)-numprim(13)_final(1).mov,resources/videos_natural\training(35).mov,False,False,right,0,180,180,180,2018-09-17 09:41:22.047027,2018-09-17 09:41:25.967251,0:00:03.920224,5,left,0,0.5007749113051432,26,f,2,2,2018_Sep_17_0921,MP_PerceptionTuring2,59.93671263100265,
182,resources/videos_generated\model(vcgpdm)-dataset(walking)-mode(ELBO)-parts(2)-dyn(26)-lvm(23)_final(8).mov,resources/videos_natural\training(46).mov,False,True,left,0,181,181,181,2018-09-17 09:41:27.585344,2018-09-17 09:41:31.638575,0:00:04.053231,5,left,1,0.36732994416297515,26,f,2,2,2018_Sep_17_0921,MP_PerceptionTuring2,59.93671263100265,
183,resources/videos_generated\model(vcgpdm)-dataset(walking)-mode(ELBO)-parts(2)-dyn(24)-lvm(21)_final(8).mov,resources/videos_natural\training(19).mov,False,False,right,0,182,182,182,2018-09-17 09:41:33.122660,2018-09-17 09:41:37.042885,0:00:03.920225,5,left,0,0.30041441039884376,26,f,2,2,2018_Sep_17_0921,MP_PerceptionTuring2,59.93671263100265,
184,resources/videos_generated\model(vcgpdm)-dataset(walking)-mode(ELBO)-parts(2)-dyn(24)-lvm(17)_final(4).mov,resources/videos_natural\training(43).mov,True,False,right,0,183,183,183,2018-09-17 09:41:38.460966,2018-09-17 09:41:42.381190,0:00:03.920224,5,right,1,0.38389852968612104,26,f,2,2,2018_Sep_17_0921,MP_PerceptionTuring2,59.93671263100265,
185,resources/videos_generated\model(vcgpdm)-dataset(walking)-mode(ELBO)-parts(1)-dyn(25)-lvm(22)_final(3).mov,resources/videos_natural\training(18).mov,True,False,right,0,184,184,184,2018-09-17 09:41:43.882276,2018-09-17 09:41:47.852503,0:00:03.970227,5,right,1,0.2504912088375022,26,f,2,2,2018_Sep_17_0921,MP_PerceptionTuring2,59.93671263100265,
186,resources/videos_generated\model(vcgpdm)-dataset(walking)-mode(ELBO)-parts(1)-dyn(28)-lvm(27)_final(4).mov,resources/videos_natural\training(25).mov,False,False,right,0,185,185,185,2018-09-17 09:41:49.220581,2018-09-17 09:41:53.173807,0:00:03.953226,5,right,1,0.2671118968310111,26,f,2,2,2018_Sep_17_0921,MP_PerceptionTuring2,59.93671263100265,
187,resources/videos_generated\model(vcgpdm)-dataset(walking)-mode(ELBO)-parts(2)-dyn(22)-lvm(19)_final(2).mov,resources/videos_natural\training(19).mov,True,False,right,0,186,186,186,2018-09-17 09:41:54.557886,2018-09-17 09:41:58.478111,0:00:03.920225,5,right,1,0.25044663562630376,26,f,2,2,2018_Sep_17_0921,MP_PerceptionTuring2,59.93671263100265,
188,resources/videos_generated\model(vcgpdm)-dataset(walking)-mode(ELBO)-parts(1)-dyn(27)-lvm(22)_final(6).mov,resources/videos_natural\training(8).mov,True,True,left,0,187,187,187,2018-09-17 09:41:59.846189,2018-09-17 09:42:03.749412,0:00:03.903223,5,left,1,0.3003909191115781,26,f,2,2,2018_Sep_17_0921,MP_PerceptionTuring2,59.93671263100265,
189,resources/videos_generated\model(vcgpdm)-dataset(walking)-mode(ELBO)-parts(1)-dyn(23)-lvm(28)_final(5).mov,resources/videos_natural\training(28).mov,False,True,left,0,188,188,188,2018-09-17 09:42:05.167493,2018-09-17 09:42:09.103718,0:00:03.936225,5,left,1,0.3338166113517218,26,f,2,2,2018_Sep_17_0921,MP_PerceptionTuring2,59.93671263100265,
190,resources/videos_generated\model(vcgpdm)-dataset(walking)-mode(ELBO)-parts(2)-dyn(28)-lvm(21)_final(8).mov,resources/videos_natural\training(5).mov,True,True,left,0,189,189,189,2018-09-17 09:42:10.555801,2018-09-17 09:42:14.642035,0:00:04.086234,5,left,1,0.3173820466331563,26,f,2,2,2018_Sep_17_0921,MP_PerceptionTuring2,59.93671263100265,
191,resources/videos_generated\model(vcgpdm)-dataset(walking)-mode(ELBO)-parts(1)-dyn(28)-lvm(25)_final(2).mov,resources/videos_natural\training(36).mov,False,True,left,0,190,190,190,2018-09-17 09:42:16.077117,2018-09-17 09:42:20.013342,0:00:03.936225,5,left,1,0.28388407350939815,26,f,2,2,2018_Sep_17_0921,MP_PerceptionTuring2,59.93671263100265,
192,resources/videos_generated\model(vcgpdm)-dataset(walking)-mode(ELBO)-parts(1)-dyn(25)-lvm(22)_final(7).mov,resources/videos_natural\training(12).mov,True,False,right,0,191,191,191,2018-09-17 09:42:21.414422,2018-09-17 09:42:25.451653,0:00:04.037231,5,right,1,0.3005107849103297,26,f,2,2,2018_Sep_17_0921,MP_PerceptionTuring2,59.93671263100265,
193,resources/videos_generated\model(vcgpdm)-dataset(walking)-mode(ELBO)-parts(1)-dyn(26)-lvm(25)_final(0).mov,resources/videos_natural\training(22).mov,False,True,left,0,192,192,192,2018-09-17 09:42:26.869734,2018-09-17 09:42:30.889964,0:00:04.020230,5,left,1,0.5173404851248051,26,f,2,2,2018_Sep_17_0921,MP_PerceptionTuring2,59.93671263100265,
194,resources/videos_generated\model(vcgpdm)-dataset(walking)-mode(ELBO)-parts(1)-dyn(23)-lvm(24)_final(8).mov,resources/videos_natural\training(9).mov,False,False,right,0,193,193,193,2018-09-17 09:42:32.524058,2018-09-17 09:42:36.411280,0:00:03.887222,5,right,1,0.31721278889790483,26,f,2,2,2018_Sep_17_0921,MP_PerceptionTuring2,59.93671263100265,
195,resources/videos_generated\model(dmp)-dataset(walking)-npsi(80)_final(5).mov,resources/videos_natural\training(36).mov,True,False,right,0,194,194,194,2018-09-17 09:42:37.845362,2018-09-17 09:42:41.782587,0:00:03.937225,5,right,1,0.3004737409573863,26,f,2,2,2018_Sep_17_0921,MP_PerceptionTuring2,59.93671263100265,
196,resources/videos_generated\model(vcgpdm)-dataset(walking)-mode(ELBO)-parts(2)-dyn(26)-lvm(19)_final(6).mov,resources/videos_natural\training(29).mov,True,True,left,0,195,195,195,2018-09-17 09:42:43.200669,2018-09-17 09:42:47.253900,0:00:04.053231,5,left,1,0.28384010263880555,26,f,2,2,2018_Sep_17_0921,MP_PerceptionTuring2,59.93671263100265,
197,resources/videos_generated\model(vcgpdm)-dataset(walking)-mode(ELBO)-parts(1)-dyn(25)-lvm(28)_final(7).mov,resources/videos_natural\training(34).mov,False,False,right,0,196,196,196,2018-09-17 09:42:48.654981,2018-09-17 09:42:52.575205,0:00:03.920224,5,right,1,0.2669266770667491,26,f,2,2,2018_Sep_17_0921,MP_PerceptionTuring2,59.93671263100265,
198,resources/videos_generated\model(vcgpdm)-dataset(walking)-mode(ELBO)-parts(2)-dyn(22)-lvm(23)_final(2).mov,resources/videos_natural\training(26).mov,False,False,right,0,197,197,197,2018-09-17 09:42:53.959284,2018-09-17 09:42:57.929511,0:00:03.970227,5,left,0,0.5840199013368874,26,f,2,2,2018_Sep_17_0921,MP_PerceptionTuring2,59.93671263100265,
199,resources/videos_generated\model(vcgpdm)-dataset(walking)-mode(ELBO)-parts(1)-dyn(26)-lvm(23)_final(6)_fail.mov,resources/videos_natural\training(45).mov,True,True,left,0,198,198,198,2018-09-17 09:42:59.630608,2018-09-17 09:43:03.584834,0:00:03.954226,5,left,1,0.3338539564747407,26,f,2,2,2018_Sep_17_0921,MP_PerceptionTuring2,59.93671263100265,
200,resources/videos_generated\model(vcgpdm)-dataset(walking)-mode(ELBO)-parts(1)-dyn(26)-lvm(27)_final(4).mov,resources/videos_natural\training(48).mov,False,False,right,0,199,199,199,2018-09-17 09:43:05.035917,2018-09-17 09:43:09.039146,0:00:04.003229,5,left,0,0.2504487438181968,26,f,2,2,2018_Sep_17_0921,MP_PerceptionTuring2,59.93671263100265,
201,resources/videos_generated\model(vcgpdm)-dataset(walking)-mode(ELBO)-parts(1)-dyn(24)-lvm(23)_final(7).mov,resources/videos_natural\training(1).mov,True,True,left,0,200,200,200,2018-09-17 09:43:10.407225,2018-09-17 09:43:14.477457,0:00:04.070232,5,left,1,0.25091405200601,26,f,2,2,2018_Sep_17_0921,MP_PerceptionTuring2,59.93671263100265,
202,resources/videos_generated\model(vcgpdm)-dataset(walking)-mode(ELBO)-parts(1)-dyn(28)-lvm(23)_final(6)_fail.mov,resources/videos_natural\training(18).mov,True,False,right,0,201,201,201,2018-09-17 09:43:15.845536,2018-09-17 09:43:19.748759,0:00:03.903223,5,right,1,0.333821430077478,26,f,2,2,2018_Sep_17_0921,MP_PerceptionTuring2,59.93671263100265,
203,resources/videos_generated\model(vcgpdm)-dataset(walking)-mode(ELBO)-parts(1)-dyn(23)-lvm(22)_final(4)_fail.mov,resources/videos_natural\training(16).mov,False,False,right,0,202,202,202,2018-09-17 09:43:21.199842,2018-09-17 09:43:25.270075,0:00:04.070233,5,right,1,0.35056288738041985,26,f,2,2,2018_Sep_17_0921,MP_PerceptionTuring2,59.93671263100265,
204,resources/videos_generated\model(dmp)-dataset(walking)-npsi(100)_final(3).mov,resources/videos_natural\training(46).mov,False,False,right,0,203,203,203,2018-09-17 09:43:26.738159,2018-09-17 09:43:30.658383,0:00:03.920224,5,right,1,0.2003168312062371,26,f,2,2,2018_Sep_17_0921,MP_PerceptionTuring2,59.93671263100265,
205,resources/videos_generated\model(vcgpdm)-dataset(walking)-mode(ELBO)-parts(1)-dyn(26)-lvm(25)_final(6).mov,resources/videos_natural\training(2).mov,False,True,left,0,204,204,204,2018-09-17 09:43:31.975458,2018-09-17 09:43:35.929684,0:00:03.954226,5,left,1,0.467252543383438,26,f,2,2,2018_Sep_17_0921,MP_PerceptionTuring2,59.93671263100265,
206,resources/videos_generated\model(vcgpdm)-dataset(walking)-mode(ELBO)-parts(1)-dyn(24)-lvm(27)_final(5).mov,resources/videos_natural\training(35).mov,False,False,right,0,205,205,205,2018-09-17 09:43:37.513775,2018-09-17 09:43:41.634011,0:00:04.120236,5,left,0,0.3506833555193225,26,f,2,2,2018_Sep_17_0921,MP_PerceptionTuring2,59.93671263100265,
207,resources/videos_generated\model(vcgpdm)-dataset(walking)-mode(ELBO)-parts(2)-dyn(22)-lvm(17)_final(4).mov,resources/videos_natural\training(21).mov,False,True,left,0,206,206,206,2018-09-17 09:43:43.102095,2018-09-17 09:43:47.022319,0:00:03.920224,5,left,1,0.3005734283424317,26,f,2,2,2018_Sep_17_0921,MP_PerceptionTuring2,59.93671263100265,
208,resources/videos_generated\model(vcgpdm)-dataset(walking)-mode(ELBO)-parts(2)-dyn(23)-lvm(18)_final(0).mov,resources/videos_natural\training(47).mov,False,False,right,0,207,207,207,2018-09-17 09:43:48.440400,2018-09-17 09:43:52.359624,0:00:03.919224,5,left,0,0.35057975291965704,26,f,2,2,2018_Sep_17_0921,MP_PerceptionTuring2,59.93671263100265,
209,resources/videos_generated\model(vcgpdm)-dataset(walking)-mode(ELBO)-parts(1)-dyn(22)-lvm(23)_final(5).mov,resources/videos_natural\training(28).mov,False,False,right,0,208,208,208,2018-09-17 09:43:53.827708,2018-09-17 09:43:57.931943,0:00:04.104235,5,right,1,0.3505433113077743,26,f,2,2,2018_Sep_17_0921,MP_PerceptionTuring2,59.93671263100265,
210,resources/videos_generated\model(vcgpdm)-dataset(walking)-mode(ELBO)-parts(1)-dyn(25)-lvm(22)_final(9).mov,resources/videos_natural\training(43).mov,False,True,left,0,209,209,209,2018-09-17 09:43:59.399027,2018-09-17 09:44:03.303250,0:00:03.904223,5,left,1,0.2838747372288708,26,f,2,2,2018_Sep_17_0921,MP_PerceptionTuring2,59.93671263100265,
211,resources/videos_generated\model(vcgpdm)-dataset(walking)-mode(ELBO)-parts(1)-dyn(24)-lvm(25)_final(9).mov,resources/videos_natural\training(30).mov,False,True,left,0,210,210,210,2018-09-17 09:44:04.704330,2018-09-17 09:44:08.607554,0:00:03.903224,5,left,1,0.5172916955289111,26,f,2,2,2018_Sep_17_0921,MP_PerceptionTuring2,59.93671263100265,
212,resources/videos_generated\model(vcgpdm)-dataset(walking)-mode(ELBO)-parts(1)-dyn(28)-lvm(24)_final(0).mov,resources/videos_natural\training(31).mov,False,True,left,0,211,211,211,2018-09-17 09:44:10.241647,2018-09-17 09:44:14.328881,0:00:04.087234,5,left,1,0.2671817683522022,26,f,2,2,2018_Sep_17_0921,MP_PerceptionTuring2,59.93671263100265,
213,resources/videos_generated\model(vcgpdm)-dataset(walking)-mode(ELBO)-parts(1)-dyn(23)-lvm(24)_final(6).mov,resources/videos_natural\training(47).mov,True,False,right,0,212,212,212,2018-09-17 09:44:15.712960,2018-09-17 09:44:19.767192,0:00:04.054232,5,right,1,0.3003463459003797,26,f,2,2,2018_Sep_17_0921,MP_PerceptionTuring2,59.93671263100265,
214,resources/videos_generated\model(vcgpdm)-dataset(walking)-mode(ELBO)-parts(2)-dyn(27)-lvm(20)_final(8).mov,resources/videos_natural\training(46).mov,False,False,right,0,213,213,213,2018-09-17 09:44:21.185273,2018-09-17 09:44:25.105497,0:00:03.920224,5,left,0,0.35050295448127144,26,f,2,2,2018_Sep_17_0921,MP_PerceptionTuring2,59.93671263100265,
215,resources/videos_generated\model(vcgpdm)-dataset(walking)-mode(ELBO)-parts(2)-dyn(22)-lvm(23)_final(4).mov,resources/videos_natural\training(6).mov,True,True,left,0,214,214,214,2018-09-17 09:44:26.572581,2018-09-17 09:44:30.475804,0:00:03.903223,5,left,1,0.30047223510564436,26,f,2,2,2018_Sep_17_0921,MP_PerceptionTuring2,59.93671263100265,
216,resources/videos_generated\model(vcgpdm)-dataset(walking)-mode(ELBO)-parts(2)-dyn(26)-lvm(17)_final(0).mov,resources/videos_natural\training(29).mov,True,True,left,0,215,215,215,2018-09-17 09:44:31.893885,2018-09-17 09:44:35.831111,0:00:03.937226,5,left,1,0.30052554225721906,26,f,2,2,2018_Sep_17_0921,MP_PerceptionTuring2,59.93671263100265,
217,resources/videos_generated\model(vcgpdm)-dataset(walking)-mode(ELBO)-parts(1)-dyn(26)-lvm(27)_final(8).mov,resources/videos_natural\training(5).mov,True,True,left,0,216,216,216,2018-09-17 09:44:37.249192,2018-09-17 09:44:41.135414,0:00:03.886222,5,right,0,0.26717755196705184,26,f,2,2,2018_Sep_17_0921,MP_PerceptionTuring2,59.93671263100265,
218,resources/videos_generated\model(vcgpdm)-dataset(walking)-mode(ELBO)-parts(1)-dyn(27)-lvm(28)_final(0).mov,resources/videos_natural\training(1).mov,True,False,right,0,217,217,217,2018-09-17 09:44:42.520493,2018-09-17 09:44:46.523722,0:00:04.003229,5,right,1,0.2839018425602262,26,f,2,2,2018_Sep_17_0921,MP_PerceptionTuring2,59.93671263100265,
219,resources/videos_generated\model(tmp)-dataset(walking)-numprim(13)_final(9).mov,resources/videos_natural\training(38).mov,True,False,right,0,218,218,218,2018-09-17 09:44:47.924802,2018-09-17 09:44:51.845027,0:00:03.920225,5,left,0,0.5340250212325373,26,f,2,2,2018_Sep_17_0921,MP_PerceptionTuring2,59.93671263100265,
220,resources/videos_generated\model(vcgpdm)-dataset(walking)-mode(ELBO)-parts(1)-dyn(25)-lvm(24)_final(6).mov,resources/videos_natural\training(7).mov,True,True,left,0,219,219,219,2018-09-17 09:44:53.496121,2018-09-17 09:44:57.516351,0:00:04.020230,5,right,0,0.26724441178430425,26,f,2,2,2018_Sep_17_0921,MP_PerceptionTuring2,59.93671263100265,
221,resources/videos_generated\model(vcgpdm)-dataset(walking)-mode(ELBO)-parts(2)-dyn(24)-lvm(21)_final(0).mov,resources/videos_natural\training(36).mov,False,True,left,0,220,220,220,2018-09-17 09:44:58.900430,2018-09-17 09:45:02.804653,0:00:03.904223,5,right,0,0.16701401646787417,26,f,2,2,2018_Sep_17_0921,MP_PerceptionTuring2,59.93671263100265,
222,resources/videos_generated\model(vcgpdm)-dataset(walking)-mode(ELBO)-parts(2)-dyn(26)-lvm(19)_final(2).mov,resources/videos_natural\training(36).mov,True,True,left,0,221,221,221,2018-09-17 09:45:04.088727,2018-09-17 09:45:08.008951,0:00:03.920224,5,left,1,0.3004797643643542,26,f,2,2,2018_Sep_17_0921,MP_PerceptionTuring2,59.93671263100265,
223,resources/videos_generated\model(vcgpdm)-dataset(walking)-mode(ELBO)-parts(1)-dyn(27)-lvm(24)_final(2).mov,resources/videos_natural\training(47).mov,False,True,left,0,222,222,222,2018-09-17 09:45:09.427032,2018-09-17 09:45:13.513266,0:00:04.086234,5,left,1,0.34924225540453335,26,f,2,2,2018_Sep_17_0921,MP_PerceptionTuring2,59.93671263100265,
224,resources/videos_generated\model(vcgpdm)-dataset(walking)-mode(ELBO)-parts(1)-dyn(27)-lvm(26)_final(8).mov,resources/videos_natural\training(8).mov,True,False,right,0,223,223,223,2018-09-17 09:45:14.981350,2018-09-17 09:45:18.918575,0:00:03.937225,5,right,1,0.2838039621969983,26,f,2,2,2018_Sep_17_0921,MP_PerceptionTuring2,59.93671263100265,
225,resources/videos_generated\model(dmp)-dataset(walking)-npsi(60)_final(1).mov,resources/videos_natural\training(45).mov,False,False,right,0,224,224,224,2018-09-17 09:45:20.319655,2018-09-17 09:45:24.239879,0:00:03.920224,5,right,1,0.26737542088540067,26,f,2,2,2018_Sep_17_0921,MP_PerceptionTuring2,59.93671263100265,
226,resources/videos_generated\model(vcgpdm)-dataset(walking)-mode(ELBO)-parts(1)-dyn(25)-lvm(26)_final(3)_fail.mov,resources/videos_natural\training(25).mov,True,False,right,0,225,225,225,2018-09-17 09:45:57.302771,2018-09-17 09:46:01.405005,0:00:04.102234,6,right,1,0.28386961733303906,26,f,2,2,2018_Sep_17_0921,MP_PerceptionTuring2,59.93671263100265,
227,resources/videos_generated\model(vcgpdm)-dataset(walking)-mode(ELBO)-parts(1)-dyn(25)-lvm(28)_final(5).mov,resources/videos_natural\training(5).mov,True,True,left,0,226,226,226,2018-09-17 09:46:02.806085,2018-09-17 09:46:06.726310,0:00:03.920225,6,right,0,0.317236581355246,26,f,2,2,2018_Sep_17_0921,MP_PerceptionTuring2,59.93671263100265,
228,resources/videos_generated\model(vcgpdm)-dataset(walking)-mode(ELBO)-parts(1)-dyn(26)-lvm(23)_final(8).mov,resources/videos_natural\training(14).mov,True,True,left,0,227,227,227,2018-09-17 09:46:08.160392,2018-09-17 09:46:12.047614,0:00:03.887222,6,left,1,0.250460489462057,26,f,2,2,2018_Sep_17_0921,MP_PerceptionTuring2,59.93671263100265,
229,resources/videos_generated\model(vcgpdm)-dataset(walking)-mode(ELBO)-parts(2)-dyn(25)-lvm(20)_final(6).mov,resources/videos_natural\training(29).mov,False,True,left,0,228,228,228,2018-09-17 09:46:13.415692,2018-09-17 09:46:17.318915,0:00:03.903223,6,left,1,0.35058306579367127,26,f,2,2,2018_Sep_17_0921,MP_PerceptionTuring2,59.93671263100265,
230,resources/videos_generated\model(vcgpdm)-dataset(walking)-mode(ELBO)-parts(1)-dyn(27)-lvm(22)_final(2).mov,resources/videos_natural\training(32).mov,True,True,left,0,229,229,229,2018-09-17 09:46:18.786999,2018-09-17 09:46:22.773227,0:00:03.986228,6,right,0,0.3672377860366396,26,f,2,2,2018_Sep_17_0921,MP_PerceptionTuring2,59.93671263100265,
231,resources/videos_generated\model(vcgpdm)-dataset(walking)-mode(ELBO)-parts(1)-dyn(24)-lvm(25)_final(3).mov,resources/videos_natural\training(25).mov,True,True,left,0,230,230,230,2018-09-17 09:46:24.258312,2018-09-17 09:46:28.261541,0:00:04.003229,6,left,1,0.28364072786871475,26,f,2,2,2018_Sep_17_0921,MP_PerceptionTuring2,59.93671263100265,
232,resources/videos_generated\model(vcgpdm)-dataset(walking)-mode(ELBO)-parts(2)-dyn(26)-lvm(23)_final(4).mov,resources/videos_natural\training(33).mov,True,True,left,0,231,231,231,2018-09-17 09:46:29.662621,2018-09-17 09:46:33.632849,0:00:03.970228,6,left,1,0.28391117884075356,26,f,2,2,2018_Sep_17_0921,MP_PerceptionTuring2,59.93671263100265,
233,resources/videos_generated\model(vcgpdm)-dataset(walking)-mode(ELBO)-parts(1)-dyn(24)-lvm(25)_final(5).mov,resources/videos_natural\training(42).mov,False,True,left,0,232,232,232,2018-09-17 09:46:35.033929,2018-09-17 09:46:38.937152,0:00:03.903223,6,left,1,0.2839665941851308,26,f,2,2,2018_Sep_17_0921,MP_PerceptionTuring2,59.93671263100265,
234,resources/videos_generated\model(vcgpdm)-dataset(walking)-mode(ELBO)-parts(2)-dyn(23)-lvm(20)_final(8).mov,resources/videos_natural\training(47).mov,True,False,right,0,233,233,233,2018-09-17 09:46:40.338232,2018-09-17 09:46:44.342461,0:00:04.004229,6,right,1,0.31705136159143876,26,f,2,2,2018_Sep_17_0921,MP_PerceptionTuring2,59.93671263100265,
235,resources/videos_generated\model(vcgpdm)-dataset(walking)-mode(ELBO)-parts(1)-dyn(22)-lvm(22)_final(3).mov,resources/videos_natural\training(13).mov,True,True,left,0,234,234,234,2018-09-17 09:46:45.776543,2018-09-17 09:46:49.763771,0:00:03.987228,6,left,1,0.2505204223612054,26,f,2,2,2018_Sep_17_0921,MP_PerceptionTuring2,59.93671263100265,
236,resources/videos_generated\model(vcgpdm)-dataset(walking)-mode(ELBO)-parts(2)-dyn(28)-lvm(19)_final(8).mov,resources/videos_natural\training(3).mov,True,True,left,0,235,235,235,2018-09-17 09:46:51.130849,2018-09-17 09:46:55.068075,0:00:03.937226,6,left,1,0.4005526475884835,26,f,2,2,2018_Sep_17_0921,MP_PerceptionTuring2,59.93671263100265,
237,resources/videos_generated\model(dmp)-dataset(walking)-npsi(60)_final(5).mov,resources/videos_natural\training(46).mov,True,True,left,0,236,236,236,2018-09-17 09:46:56.586161,2018-09-17 09:47:00.506386,0:00:03.920225,6,left,1,0.3007092561697391,26,f,2,2,2018_Sep_17_0921,MP_PerceptionTuring2,59.93671263100265,
238,resources/videos_generated\model(vcgpdm)-dataset(walking)-mode(ELBO)-parts(1)-dyn(27)-lvm(24)_final(8).mov,resources/videos_natural\training(0).mov,False,False,right,0,237,237,237,2018-09-17 09:47:01.923467,2018-09-17 09:47:06.010700,0:00:04.087233,6,right,1,0.3005267469388855,26,f,2,2,2018_Sep_17_0921,MP_PerceptionTuring2,59.93671263100265,
239,resources/videos_generated\model(vcgpdm)-dataset(walking)-mode(ELBO)-parts(2)-dyn(24)-lvm(23)_final(6).mov,resources/videos_natural\training(4).mov,False,True,left,0,238,238,238,2018-09-17 09:47:07.428782,2018-09-17 09:47:11.332005,0:00:03.903223,6,left,1,0.4839175034180698,26,f,2,2,2018_Sep_17_0921,MP_PerceptionTuring2,59.93671263100265,
240,resources/videos_generated\model(vcgpdm)-dataset(walking)-mode(ELBO)-parts(1)-dyn(28)-lvm(24)_final(5).mov,resources/videos_natural\training(41).mov,True,True,left,0,239,239,239,2018-09-17 09:47:12.933096,2018-09-17 09:47:16.970327,0:00:04.037231,6,left,1,0.26727151711565966,26,f,2,2,2018_Sep_17_0921,MP_PerceptionTuring2,59.93671263100265,
241,resources/videos_generated\model(vcgpdm)-dataset(walking)-mode(ELBO)-parts(1)-dyn(27)-lvm(26)_final(2).mov,resources/videos_natural\training(4).mov,False,False,right,0,240,240,240,2018-09-17 09:47:18.354406,2018-09-17 09:47:22.258630,0:00:03.904224,6,right,1,0.30048699245253374,26,f,2,2,2018_Sep_17_0921,MP_PerceptionTuring2,59.93671263100265,
242,resources/videos_generated\model(vcgpdm)-dataset(walking)-mode(ELBO)-parts(1)-dyn(25)-lvm(22)_final(1).mov,resources/videos_natural\training(17).mov,True,False,right,0,241,241,241,2018-09-17 09:47:23.675711,2018-09-17 09:47:27.779946,0:00:04.104235,6,right,1,0.3838175148625851,26,f,2,2,2018_Sep_17_0921,MP_PerceptionTuring2,59.93671263100265,
243,resources/videos_generated\model(vcgpdm)-dataset(walking)-mode(ELBO)-parts(1)-dyn(26)-lvm(23)_final(0).mov,resources/videos_natural\training(32).mov,False,True,left,0,242,242,242,2018-09-17 09:47:29.281031,2018-09-17 09:47:33.251259,0:00:03.970228,6,right,0,0.2670242562594467,26,f,2,2,2018_Sep_17_0921,MP_PerceptionTuring2,59.93671263100265,
244,resources/videos_generated\model(dmp)-dataset(walking)-npsi(90)_final(9).mov,resources/videos_natural\training(39).mov,False,False,right,0,243,243,243,2018-09-17 09:47:34.635338,2018-09-17 09:47:38.672569,0:00:04.037231,6,right,1,0.26707425053791667,26,f,2,2,2018_Sep_17_0921,MP_PerceptionTuring2,59.93671263100265,
245,resources/videos_generated\model(vcgpdm)-dataset(walking)-mode(ELBO)-parts(1)-dyn(23)-lvm(28)_final(3)_hip-corrected.mov,resources/videos_natural\training(3).mov,False,False,right,0,244,244,244,2018-09-17 09:47:40.056648,2018-09-17 09:47:44.143882,0:00:04.087234,6,right,1,0.28378498846541333,26,f,2,2,2018_Sep_17_0921,MP_PerceptionTuring2,59.93671263100265,
246,resources/videos_generated\model(vcgpdm)-dataset(walking)-mode(ELBO)-parts(1)-dyn(25)-lvm(24)_final(8).mov,resources/videos_natural\training(39).mov,False,True,left,0,245,245,245,2018-09-17 09:47:45.544962,2018-09-17 09:47:49.448185,0:00:03.903223,6,left,1,0.2503864015561703,26,f,2,2,2018_Sep_17_0921,MP_PerceptionTuring2,59.93671263100265,
247,resources/videos_generated\model(vcgpdm)-dataset(walking)-mode(ELBO)-parts(2)-dyn(22)-lvm(23)_final(8).mov,resources/videos_natural\training(41).mov,False,False,right,0,246,246,246,2018-09-17 09:47:50.816263,2018-09-17 09:47:54.886496,0:00:04.070233,6,right,1,0.3005896915415178,26,f,2,2,2018_Sep_17_0921,MP_PerceptionTuring2,59.93671263100265,
248,resources/videos_generated\model(vcgpdm)-dataset(walking)-mode(ELBO)-parts(2)-dyn(22)-lvm(17)_final(0).mov,resources/videos_natural\training(35).mov,False,True,left,0,247,247,247,2018-09-17 09:47:56.304577,2018-09-17 09:48:00.190799,0:00:03.886222,6,right,0,0.3506098699544964,26,f,2,2,2018_Sep_17_0921,MP_PerceptionTuring2,59.93671263100265,
249,resources/videos_generated\model(vcgpdm)-dataset(walking)-mode(ELBO)-parts(1)-dyn(28)-lvm(27)_final(6).mov,resources/videos_natural\training(6).mov,False,False,right,0,248,248,248,2018-09-17 09:48:01.658883,2018-09-17 09:48:05.629110,0:00:03.970227,6,right,1,0.2671359904588826,26,f,2,2,2018_Sep_17_0921,MP_PerceptionTuring2,59.93671263100265,
250,resources/videos_generated\model(dmp)-dataset(walking)-npsi(100)_final(9).mov,resources/videos_natural\training(29).mov,True,False,right,0,249,249,249,2018-09-17 09:48:07.013190,2018-09-17 09:48:10.950415,0:00:03.937225,6,left,0,0.25048578777114017,26,f,2,2,2018_Sep_17_0921,MP_PerceptionTuring2,59.93671263100265,
251,resources/videos_generated\model(vcgpdm)-dataset(walking)-mode(ELBO)-parts(2)-dyn(28)-lvm(19)_final(0).mov,resources/videos_natural\training(24).mov,True,True,left,0,250,250,250,2018-09-17 09:48:12.318493,2018-09-17 09:48:16.338723,0:00:04.020230,6,left,1,0.3505098813989207,26,f,2,2,2018_Sep_17_0921,MP_PerceptionTuring2,59.93671263100265,
252,resources/videos_generated\model(vcgpdm)-dataset(walking)-mode(ELBO)-parts(2)-dyn(24)-lvm(21)_final(2).mov,resources/videos_natural\training(7).mov,True,False,right,0,251,251,251,2018-09-17 09:48:17.805807,2018-09-17 09:48:21.760033,0:00:03.954226,6,left,0,0.3338711231845082,26,f,2,2,2018_Sep_17_0921,MP_PerceptionTuring2,59.93671263100265,
253,resources/videos_generated\model(vcgpdm)-dataset(walking)-mode(ELBO)-parts(1)-dyn(22)-lvm(25)_final(1).mov,resources/videos_natural\training(47).mov,False,False,right,0,252,252,252,2018-09-17 09:48:23.211116,2018-09-17 09:48:27.130340,0:00:03.919224,6,right,1,0.5006981128663028,26,f,2,2,2018_Sep_17_0921,MP_PerceptionTuring2,59.93671263100265,
254,resources/videos_generated\model(vcgpdm)-dataset(walking)-mode(ELBO)-parts(1)-dyn(24)-lvm(27)_final(7).mov,resources/videos_natural\training(7).mov,True,True,left,0,253,253,253,2018-09-17 09:48:28.749433,2018-09-17 09:48:32.685658,0:00:03.936225,6,left,1,0.26705166276178716,26,f,2,2,2018_Sep_17_0921,MP_PerceptionTuring2,59.93671263100265,
255,resources/videos_generated\model(tmp)-dataset(walking)-numprim(14)_final(7).mov,resources/videos_natural\training(15).mov,False,True,left,0,254,254,254,2018-09-17 09:48:34.069737,2018-09-17 09:48:37.989961,0:00:03.920224,6,left,1,0.3339753281247795,26,f,2,2,2018_Sep_17_0921,MP_PerceptionTuring2,59.93671263100265,
256,resources/videos_generated\model(vcgpdm)-dataset(walking)-mode(ELBO)-parts(1)-dyn(28)-lvm(23)_final(4)_fail.mov,resources/videos_natural\training(7).mov,True,False,right,0,255,255,255,2018-09-17 09:48:39.442044,2018-09-17 09:48:43.428272,0:00:03.986228,6,right,1,0.484055439437725,26,f,2,2,2018_Sep_17_0921,MP_PerceptionTuring2,59.93671263100265,
257,resources/videos_generated\model(vcgpdm)-dataset(walking)-mode(ELBO)-parts(2)-dyn(23)-lvm(22)_final(4).mov,resources/videos_natural\training(20).mov,True,False,right,0,256,256,256,2018-09-17 09:48:45.029364,2018-09-17 09:48:49.033593,0:00:04.004229,6,right,1,0.40074780597433346,26,f,2,2,2018_Sep_17_0921,MP_PerceptionTuring2,59.93671263100265,
258,resources/videos_generated\model(vcgpdm)-dataset(walking)-mode(ELBO)-parts(1)-dyn(24)-lvm(27)_final(9).mov,resources/videos_natural\training(15).mov,True,False,right,0,257,257,257,2018-09-17 09:48:50.551680,2018-09-17 09:48:54.470904,0:00:03.919224,6,right,1,0.2671902011215934,26,f,2,2,2018_Sep_17_0921,MP_PerceptionTuring2,59.93671263100265,
259,resources/videos_generated\model(vcgpdm)-dataset(walking)-mode(ELBO)-parts(1)-dyn(23)-lvm(28)_final(9).mov,resources/videos_natural\training(19).mov,False,False,right,0,258,258,258,2018-09-17 09:48:55.855983,2018-09-17 09:48:59.810209,0:00:03.954226,6,right,1,0.2837904095313206,26,f,2,2,2018_Sep_17_0921,MP_PerceptionTuring2,59.93671263100265,
260,resources/videos_generated\model(vcgpdm)-dataset(walking)-mode(ELBO)-parts(2)-dyn(24)-lvm(19)_final(2).mov,resources/videos_natural\training(44).mov,False,False,right,0,259,259,259,2018-09-17 09:49:01.210289,2018-09-17 09:49:05.113513,0:00:03.903224,6,right,1,0.3171742390932195,26,f,2,2,2018_Sep_17_0921,MP_PerceptionTuring2,59.93671263100265,
261,resources/videos_generated\model(vcgpdm)-dataset(walking)-mode(ELBO)-parts(1)-dyn(25)-lvm(28)_final(9).mov,resources/videos_natural\training(37).mov,False,True,left,0,260,260,260,2018-09-17 09:49:06.548595,2018-09-17 09:49:10.468819,0:00:03.920224,6,right,0,0.46743294442194383,26,f,2,2,2018_Sep_17_0921,MP_PerceptionTuring2,59.93671263100265,
262,resources/videos_generated\model(vcgpdm)-dataset(walking)-mode(ELBO)-parts(2)-dyn(27)-lvm(20)_final(0).mov,resources/videos_natural\training(16).mov,True,False,right,0,261,261,261,2018-09-17 09:49:12.052910,2018-09-17 09:49:16.157144,0:00:04.104234,6,left,0,0.2841400683055326,26,f,2,2,2018_Sep_17_0921,MP_PerceptionTuring2,59.93671263100265,
263,resources/videos_generated\model(vcgpdm)-dataset(walking)-mode(ELBO)-parts(2)-dyn(28)-lvm(21)_final(2).mov,resources/videos_natural\training(0).mov,True,True,left,0,262,262,262,2018-09-17 09:49:17.558225,2018-09-17 09:49:21.478449,0:00:03.920224,6,left,1,0.3004135068877076,26,f,2,2,2018_Sep_17_0921,MP_PerceptionTuring2,59.93671263100265,
264,resources/videos_generated\model(vcgpdm)-dataset(walking)-mode(ELBO)-parts(2)-dyn(26)-lvm(19)_final(4).mov,resources/videos_natural\training(48).mov,False,False,right,0,263,263,263,2018-09-17 09:49:22.895530,2018-09-17 09:49:26.999765,0:00:04.104235,6,right,1,0.30044031104853275,26,f,2,2,2018_Sep_17_0921,MP_PerceptionTuring2,59.93671263100265,
265,resources/videos_generated\model(vcgpdm)-dataset(walking)-mode(ELBO)-parts(1)-dyn(22)-lvm(23)_final(3)_fail.mov,resources/videos_natural\training(45).mov,False,True,left,0,264,264,264,2018-09-17 09:49:28.416846,2018-09-17 09:49:32.321069,0:00:03.904223,6,left,1,0.300635770604913,26,f,2,2,2018_Sep_17_0921,MP_PerceptionTuring2,59.93671263100265,
266,resources/videos_generated\model(vcgpdm)-dataset(walking)-mode(ELBO)-parts(1)-dyn(22)-lvm(23)_final(7).mov,resources/videos_natural\training(42).mov,True,True,left,0,265,265,265,2018-09-17 09:49:33.738150,2018-09-17 09:49:37.692376,0:00:03.954226,6,left,1,0.35044814147750003,26,f,2,2,2018_Sep_17_0921,MP_PerceptionTuring2,59.93671263100265,
267,resources/videos_generated\model(vcgpdm)-dataset(walking)-mode(ELBO)-parts(2)-dyn(27)-lvm(18)_final(8).mov,resources/videos_natural\training(15).mov,False,False,right,0,266,266,266,2018-09-17 09:49:39.159460,2018-09-17 09:49:43.129687,0:00:03.970227,6,right,1,0.2837904095313206,26,f,2,2,2018_Sep_17_0921,MP_PerceptionTuring2,59.93671263100265,
268,resources/videos_generated\model(vcgpdm)-dataset(walking)-mode(ELBO)-parts(2)-dyn(22)-lvm(23)_final(6).mov,resources/videos_natural\training(43).mov,True,True,left,0,267,267,267,2018-09-17 09:49:44.530767,2018-09-17 09:49:48.550997,0:00:04.020230,6,left,1,0.3671727332412047,26,f,2,2,2018_Sep_17_0921,MP_PerceptionTuring2,59.93671263100265,
269,resources/videos_generated\model(vcgpdm)-dataset(walking)-mode(ELBO)-parts(2)-dyn(23)-lvm(22)_final(6).mov,resources/videos_natural\training(19).mov,True,True,left,0,268,268,268,2018-09-17 09:49:50.036082,2018-09-17 09:49:54.039311,0:00:04.003229,6,left,1,0.30048036670496003,26,f,2,2,2018_Sep_17_0921,MP_PerceptionTuring2,59.93671263100265,
270,resources/videos_generated\model(vcgpdm)-dataset(walking)-mode(ELBO)-parts(1)-dyn(27)-lvm(26)_final(4).mov,resources/videos_natural\training(4).mov,True,True,left,0,269,269,269,2018-09-17 09:49:55.457392,2018-09-17 09:49:59.410618,0:00:03.953226,6,left,1,0.6342475861197272,26,f,2,2,2018_Sep_17_0921,MP_PerceptionTuring2,59.93671263100265,
271,resources/videos_generated\model(vcgpdm)-dataset(walking)-mode(ELBO)-parts(2)-dyn(24)-lvm(17)_final(0).mov,resources/videos_natural\training(1).mov,False,True,left,0,270,270,270,2018-09-17 09:50:33.056543,2018-09-17 09:50:36.976767,0:00:03.920224,7,left,1,0.5174160788828885,26,f,2,2,2018_Sep_17_0921,MP_PerceptionTuring2,59.93671263100265,
272,resources/videos_generated\model(tmp)-dataset(walking)-numprim(12)_final(9).mov,resources/videos_natural\training(27).mov,False,False,right,0,271,271,271,2018-09-17 09:50:38.610860,2018-09-17 09:50:42.548086,0:00:03.937226,7,right,1,0.40051018256917814,26,f,2,2,2018_Sep_17_0921,MP_PerceptionTuring2,59.93671263100265,
273,resources/videos_generated\model(vcgpdm)-dataset(walking)-mode(ELBO)-parts(2)-dyn(27)-lvm(20)_final(4).mov,resources/videos_natural\training(39).mov,False,False,right,0,272,272,272,2018-09-17 09:50:44.066173,2018-09-17 09:50:48.002398,0:00:03.936225,7,right,1,0.3837852896358527,26,f,2,2,2018_Sep_17_0921,MP_PerceptionTuring2,59.93671263100265,
274,resources/videos_generated\model(vcgpdm)-dataset(walking)-mode(ELBO)-parts(1)-dyn(22)-lvm(27)_final(1)_fail.mov,resources/videos_natural\training(45).mov,True,False,right,0,273,273,273,2018-09-17 09:50:49.503483,2018-09-17 09:50:53.390706,0:00:03.887223,7,right,1,0.46730916340902695,26,f,2,2,2018_Sep_17_0921,MP_PerceptionTuring2,59.93671263100265,
275,resources/videos_generated\model(vcgpdm)-dataset(walking)-mode(ELBO)-parts(2)-dyn(22)-lvm(19)_final(0).mov,resources/videos_natural\training(2).mov,True,True,left,0,274,274,274,2018-09-17 09:50:54.975796,2018-09-17 09:50:58.929023,0:00:03.953227,7,left,1,0.4174278245259302,26,f,2,2,2018_Sep_17_0921,MP_PerceptionTuring2,59.93671263100265,
276,resources/videos_generated\model(dmp)-dataset(walking)-npsi(50)_final(5).mov,resources/videos_natural\training(44).mov,True,False,right,0,275,275,275,2018-09-17 09:51:00.463110,2018-09-17 09:51:04.400336,0:00:03.937226,7,left,0,0.4006074605918002,26,f,2,2,2018_Sep_17_0921,MP_PerceptionTuring2,59.93671263100265,
277,resources/videos_generated\model(dmp)-dataset(walking)-npsi(80)_final(9).mov,resources/videos_natural\training(40).mov,False,False,right,0,276,276,276,2018-09-17 09:51:05.918422,2018-09-17 09:51:09.988655,0:00:04.070233,7,right,1,0.35059451026700117,26,f,2,2,2018_Sep_17_0921,MP_PerceptionTuring2,59.93671263100265,
278,resources/videos_generated\model(vcgpdm)-dataset(walking)-mode(ELBO)-parts(2)-dyn(23)-lvm(22)_final(8).mov,resources/videos_natural\training(32).mov,False,True,left,0,277,277,277,2018-09-17 09:51:11.456739,2018-09-17 09:51:15.375963,0:00:03.919224,7,left,1,0.433975026954613,26,f,2,2,2018_Sep_17_0921,MP_PerceptionTuring2,59.93671263100265,
279,resources/videos_generated\model(vcgpdm)-dataset(walking)-mode(ELBO)-parts(2)-dyn(23)-lvm(18)_final(4).mov,resources/videos_natural\training(33).mov,True,False,right,0,278,278,278,2018-09-17 09:51:16.928052,2018-09-17 09:51:20.831275,0:00:03.903223,7,right,1,0.26719351399560765,26,f,2,2,2018_Sep_17_0921,MP_PerceptionTuring2,59.93671263100265,
280,resources/videos_generated\model(vcgpdm)-dataset(walking)-mode(ELBO)-parts(1)-dyn(23)-lvm(24)_final(0).mov,resources/videos_natural\training(26).mov,False,True,left,0,279,279,279,2018-09-17 09:51:22.215355,2018-09-17 09:51:26.152580,0:00:03.937225,7,left,1,0.3172022479352563,26,f,2,2,2018_Sep_17_0921,MP_PerceptionTuring2,59.93671263100265,
281,resources/videos_generated\model(vcgpdm)-dataset(walking)-mode(ELBO)-parts(2)-dyn(28)-lvm(21)_final(0).mov,resources/videos_natural\training(30).mov,False,False,right,0,280,280,280,2018-09-17 09:51:27.586662,2018-09-17 09:51:31.623893,0:00:04.037231,7,right,1,0.30052463874608293,26,f,2,2,2018_Sep_17_0921,MP_PerceptionTuring2,59.93671263100265,
282,resources/videos_generated\model(vcgpdm)-dataset(walking)-mode(ELBO)-parts(1)-dyn(25)-lvm(25)_final(0).mov,resources/videos_natural\training(42).mov,False,True,left,0,281,281,281,2018-09-17 09:51:33.041974,2018-09-17 09:51:37.028202,0:00:03.986228,7,left,1,0.4172576632795426,26,f,2,2,2018_Sep_17_0921,MP_PerceptionTuring2,59.93671263100265,
283,resources/videos_generated\model(dmp)-dataset(walking)-npsi(80)_final(3).mov,resources/videos_natural\training(7).mov,False,True,left,0,282,282,282,2018-09-17 09:51:38.563290,2018-09-17 09:51:42.499515,0:00:03.936225,7,left,1,0.3505168083170247,26,f,2,2,2018_Sep_17_0921,MP_PerceptionTuring2,59.93671263100265,
284,resources/videos_generated\model(vcgpdm)-dataset(walking)-mode(ELBO)-parts(1)-dyn(27)-lvm(22)_final(0).mov,resources/videos_natural\training(48).mov,False,True,left,0,283,283,283,2018-09-17 09:51:43.967599,2018-09-17 09:51:47.870822,0:00:03.903223,7,right,0,0.5673784325890665,26,f,2,2,2018_Sep_17_0921,MP_PerceptionTuring2,59.93671263100265,
285,resources/videos_generated\model(vcgpdm)-dataset(walking)-mode(ELBO)-parts(2)-dyn(27)-lvm(20)_final(2).mov,resources/videos_natural\training(4).mov,False,False,right,0,284,284,284,2018-09-17 09:51:49.555918,2018-09-17 09:51:53.543146,0:00:03.987228,7,right,1,0.2839431028978652,26,f,2,2,2018_Sep_17_0921,MP_PerceptionTuring2,59.93671263100265,
286,resources/videos_generated\model(vcgpdm)-dataset(walking)-mode(ELBO)-parts(1)-dyn(23)-lvm(26)_final(6)_hip-corrected.mov,resources/videos_natural\training(16).mov,False,False,right,0,285,285,285,2018-09-17 09:51:54.944226,2018-09-17 09:51:58.913454,0:00:03.969228,7,right,1,0.400562887380147,26,f,2,2,2018_Sep_17_0921,MP_PerceptionTuring2,59.93671263100265,
287,resources/videos_generated\model(vcgpdm)-dataset(walking)-mode(ELBO)-parts(1)-dyn(23)-lvm(24)_final(4).mov,resources/videos_natural\training(0).mov,False,True,left,0,286,286,286,2018-09-17 09:52:00.432540,2018-09-17 09:52:04.351765,0:00:03.919225,7,left,1,0.3339036495822256,26,f,2,2,2018_Sep_17_0921,MP_PerceptionTuring2,59.93671263100265,
288,resources/videos_generated\model(vcgpdm)-dataset(walking)-mode(ELBO)-parts(1)-dyn(22)-lvm(28)_final(2).mov,resources/videos_natural\training(30).mov,True,False,right,0,287,287,287,2018-09-17 09:52:05.802848,2018-09-17 09:52:09.740073,0:00:03.937225,7,left,0,0.2671859847368978,26,f,2,2,2018_Sep_17_0921,MP_PerceptionTuring2,59.93671263100265,
289,resources/videos_generated\model(vcgpdm)-dataset(walking)-mode(ELBO)-parts(1)-dyn(22)-lvm(27)_final(9)_hip-corrected.mov,resources/videos_natural\training(38).mov,False,False,right,0,288,288,288,2018-09-17 09:52:11.124152,2018-09-17 09:52:15.044376,0:00:03.920224,7,right,1,0.3171646016417071,26,f,2,2,2018_Sep_17_0921,MP_PerceptionTuring2,59.93671263100265,
290,resources/videos_generated\model(vcgpdm)-dataset(walking)-mode(ELBO)-parts(2)-dyn(25)-lvm(20)_final(0).mov,resources/videos_natural\training(37).mov,False,False,right,0,289,289,289,2018-09-17 09:52:16.479458,2018-09-17 09:52:20.415683,0:00:03.936225,7,right,1,0.3172085725132092,26,f,2,2,2018_Sep_17_0921,MP_PerceptionTuring2,59.93671263100265,
291,resources/videos_generated\model(vcgpdm)-dataset(walking)-mode(ELBO)-parts(1)-dyn(25)-lvm(26)_final(5).mov,resources/videos_natural\training(5).mov,True,True,left,0,290,290,290,2018-09-17 09:52:21.850765,2018-09-17 09:52:25.803992,0:00:03.953227,7,left,1,0.31722995560721756,26,f,2,2,2018_Sep_17_0921,MP_PerceptionTuring2,59.93671263100265,
