n_trial,mov_file_generated,mov_file_natural,mirrored,switch_stim_pos,correct_answer,trials.thisRepN,trials.thisTrialN,trials.thisN,trials.thisIndex,stimulus_onset,stimulus_off,stimulus_length,block,response.keys,response.corr,response.rt,age,gender,condition,participant,date,expName,frameRate,
1,resources/videos_generated\model(vcgpdm)-dataset(walking)-mode(ELBO)-parts(1)-dyn(25)-lvm(28)_final(8).mov,resources/videos_natural\training(5).mov,False,True,left,0,0,0,0,2018-09-17 10:08:34.373391,2018-09-17 10:08:38.577631,0:00:04.204240,1,left,1,0.5340418867726839,25,m,1,3,2018_Sep_17_1007,MP_PerceptionTuring2,59.95316243827992,
2,resources/videos_generated\model(vcgpdm)-dataset(walking)-mode(ELBO)-parts(1)-dyn(27)-lvm(26)_final(5).mov,resources/videos_natural\training(40).mov,False,False,right,0,1,1,1,2018-09-17 10:08:40.228725,2018-09-17 10:08:44.148950,0:00:03.920225,1,right,1,0.21885537197613303,25,m,1,3,2018_Sep_17_1007,MP_PerceptionTuring2,59.95316243827992,
3,resources/videos_generated\model(vcgpdm)-dataset(walking)-mode(ELBO)-parts(1)-dyn(22)-lvm(23)_final(0).mov,resources/videos_natural\training(41).mov,True,False,right,0,2,2,2,2018-09-17 10:08:45.483026,2018-09-17 10:08:49.420251,0:00:03.937225,1,left,0,0.48407591902105196,25,m,1,3,2018_Sep_17_1007,MP_PerceptionTuring2,59.95316243827992,
4,resources/videos_generated\model(vcgpdm)-dataset(walking)-mode(ELBO)-parts(1)-dyn(25)-lvm(28)_final(2).mov,resources/videos_natural\training(43).mov,False,True,left,0,3,3,3,2018-09-17 10:08:51.021343,2018-09-17 10:08:54.924566,0:00:03.903223,1,left,1,0.5673154879868889,25,m,1,3,2018_Sep_17_1007,MP_PerceptionTuring2,59.95316243827992,
5,resources/videos_generated\model(vcgpdm)-dataset(walking)-mode(ELBO)-parts(2)-dyn(23)-lvm(22)_final(5).mov,resources/videos_natural\training(26).mov,False,True,left,0,4,4,4,2018-09-17 10:08:56.609662,2018-09-17 10:09:00.545888,0:00:03.936226,1,left,1,0.21709412778091064,25,m,1,3,2018_Sep_17_1007,MP_PerceptionTuring2,59.95316243827992,
6,resources/videos_generated\model(vcgpdm)-dataset(walking)-mode(ELBO)-parts(2)-dyn(25)-lvm(22)_final(1).mov,resources/videos_natural\training(28).mov,False,True,left,0,5,5,5,2018-09-17 10:09:01.880964,2018-09-17 10:09:05.801188,0:00:03.920224,1,left,1,0.21719321282580495,25,m,1,3,2018_Sep_17_1007,MP_PerceptionTuring2,59.95316243827992,
7,resources/videos_generated\model(vcgpdm)-dataset(walking)-mode(ELBO)-parts(2)-dyn(26)-lvm(19)_final(3).mov,resources/videos_natural\training(20).mov,True,False,right,0,6,6,6,2018-09-17 10:09:07.135264,2018-09-17 10:09:11.072490,0:00:03.937226,1,right,1,0.267038411266185,25,m,1,3,2018_Sep_17_1007,MP_PerceptionTuring2,59.95316243827992,
8,resources/videos_generated\model(vcgpdm)-dataset(walking)-mode(ELBO)-parts(1)-dyn(22)-lvm(22)_final(2).mov,resources/videos_natural\training(4).mov,True,True,left,0,7,7,7,2018-09-17 10:09:12.456569,2018-09-17 10:09:16.409795,0:00:03.953226,1,right,0,0.1670799727744452,25,m,1,3,2018_Sep_17_1007,MP_PerceptionTuring2,59.95316243827992,
9,resources/videos_generated\model(vcgpdm)-dataset(walking)-mode(ELBO)-parts(1)-dyn(27)-lvm(22)_final(3).mov,resources/videos_natural\training(27).mov,False,False,right,0,8,8,8,2018-09-17 10:09:17.694868,2018-09-17 10:09:21.615093,0:00:03.920225,1,right,1,0.23378709665757924,25,m,1,3,2018_Sep_17_1007,MP_PerceptionTuring2,59.95316243827992,
10,resources/videos_generated\model(vcgpdm)-dataset(walking)-mode(ELBO)-parts(1)-dyn(28)-lvm(25)_final(5).mov,resources/videos_natural\training(10).mov,True,True,left,0,9,9,9,2018-09-17 10:09:22.965170,2018-09-17 10:09:26.885394,0:00:03.920224,1,left,1,0.0169131244010714,25,m,1,3,2018_Sep_17_1007,MP_PerceptionTuring2,59.95316243827992,
11,resources/videos_generated\model(vcgpdm)-dataset(walking)-mode(ELBO)-parts(1)-dyn(22)-lvm(27)_final(0)_hip-correted.mov,resources/videos_natural\training(43).mov,False,False,right,0,10,10,10,2018-09-17 10:09:28.020459,2018-09-17 10:09:32.006687,0:00:03.986228,1,right,1,0.23381420198893466,25,m,1,3,2018_Sep_17_1007,MP_PerceptionTuring2,59.95316243827992,
12,resources/videos_generated\model(vcgpdm)-dataset(walking)-mode(ELBO)-parts(1)-dyn(24)-lvm(23)_final(2).mov,resources/videos_natural\training(26).mov,True,False,right,0,11,11,11,2018-09-17 10:09:33.357764,2018-09-17 10:09:37.260988,0:00:03.903224,1,left,0,0.25064902209942375,25,m,1,3,2018_Sep_17_1007,MP_PerceptionTuring2,59.95316243827992,
13,resources/videos_generated\model(vcgpdm)-dataset(walking)-mode(ELBO)-parts(1)-dyn(25)-lvm(22)_final(0).mov,resources/videos_natural\training(18).mov,False,True,left,0,12,12,12,2018-09-17 10:09:38.629066,2018-09-17 10:09:42.582292,0:00:03.953226,1,right,0,0.2837660147333736,25,m,1,3,2018_Sep_17_1007,MP_PerceptionTuring2,59.95316243827992,
14,resources/videos_generated\model(vcgpdm)-dataset(walking)-mode(ELBO)-parts(2)-dyn(23)-lvm(18)_final(3).mov,resources/videos_natural\training(7).mov,True,True,left,0,13,13,13,2018-09-17 10:09:43.983372,2018-09-17 10:09:47.920597,0:00:03.937225,1,left,1,0.1999162746433285,25,m,1,3,2018_Sep_17_1007,MP_PerceptionTuring2,59.95316243827992,
15,resources/videos_generated\model(vcgpdm)-dataset(walking)-mode(ELBO)-parts(2)-dyn(24)-lvm(23)_final(5).mov,resources/videos_natural\training(16).mov,True,False,right,0,14,14,14,2018-09-17 10:09:49.238673,2018-09-17 10:09:53.291904,0:00:04.053231,1,right,1,0.2336795788432937,25,m,1,3,2018_Sep_17_1007,MP_PerceptionTuring2,59.95316243827992,
16,resources/videos_generated\model(vcgpdm)-dataset(walking)-mode(ELBO)-parts(1)-dyn(24)-lvm(23)_final(6)_fail.mov,resources/videos_natural\training(15).mov,False,False,right,0,15,15,15,2018-09-17 10:09:54.642982,2018-09-17 10:09:58.546205,0:00:03.903223,1,right,1,0.25051470012476784,25,m,1,3,2018_Sep_17_1007,MP_PerceptionTuring2,59.95316243827992,
17,resources/videos_generated\model(vcgpdm)-dataset(walking)-mode(ELBO)-parts(2)-dyn(25)-lvm(20)_final(3).mov,resources/videos_natural\training(21).mov,False,True,left,0,16,16,16,2018-09-17 10:09:59.914283,2018-09-17 10:10:03.834507,0:00:03.920224,1,right,0,0.2670884055432907,25,m,1,3,2018_Sep_17_1007,MP_PerceptionTuring2,59.95316243827992,
18,resources/videos_generated\model(dmp)-dataset(walking)-npsi(50)_final(4).mov,resources/videos_natural\training(25).mov,False,False,right,0,17,17,17,2018-09-17 10:10:05.218587,2018-09-17 10:10:09.305820,0:00:04.087233,1,right,1,0.5841542233119981,25,m,1,3,2018_Sep_17_1007,MP_PerceptionTuring2,59.95316243827992,
19,resources/videos_generated\model(vcgpdm)-dataset(walking)-mode(ELBO)-parts(1)-dyn(24)-lvm(27)_final(2).mov,resources/videos_natural\training(13).mov,True,False,right,0,18,18,18,2018-09-17 10:10:11.006918,2018-09-17 10:10:14.927142,0:00:03.920224,1,left,0,0.2156045392393935,25,m,1,3,2018_Sep_17_1007,MP_PerceptionTuring2,59.95316243827992,
20,resources/videos_generated\model(vcgpdm)-dataset(walking)-mode(ELBO)-parts(1)-dyn(23)-lvm(22)_final(9)_fail.mov,resources/videos_natural\training(39).mov,False,True,left,0,19,19,19,2018-09-17 10:10:16.262218,2018-09-17 10:10:20.298449,0:00:04.036231,1,left,1,0.23377685686591576,25,m,1,3,2018_Sep_17_1007,MP_PerceptionTuring2,59.95316243827992,
21,resources/videos_generated\model(vcgpdm)-dataset(walking)-mode(ELBO)-parts(1)-dyn(27)-lvm(26)_final(7).mov,resources/videos_natural\training(4).mov,False,True,left,0,20,20,20,2018-09-17 10:10:21.649526,2018-09-17 10:10:25.736760,0:00:04.087234,1,left,1,0.26698630879582197,25,m,1,3,2018_Sep_17_1007,MP_PerceptionTuring2,59.95316243827992,
22,resources/videos_generated\model(vcgpdm)-dataset(walking)-mode(ELBO)-parts(2)-dyn(28)-lvm(21)_final(7).mov,resources/videos_natural\training(47).mov,False,False,right,0,21,21,21,2018-09-17 10:10:27.120839,2018-09-17 10:10:31.041064,0:00:03.920225,1,left,0,0.2504065799694217,25,m,1,3,2018_Sep_17_1007,MP_PerceptionTuring2,59.95316243827992,
23,resources/videos_generated\model(tmp)-dataset(walking)-numprim(15)_final(0).mov,resources/videos_natural\training(46).mov,False,True,left,0,22,22,22,2018-09-17 10:10:32.409142,2018-09-17 10:10:36.329366,0:00:03.920224,1,right,0,1.7350745998946877,25,m,1,3,2018_Sep_17_1007,MP_PerceptionTuring2,59.95316243827992,
24,resources/videos_generated\model(vcgpdm)-dataset(walking)-mode(ELBO)-parts(2)-dyn(25)-lvm(18)_final(9).mov,resources/videos_natural\training(45).mov,False,True,left,0,23,23,23,2018-09-17 10:10:39.181529,2018-09-17 10:10:43.084752,0:00:03.903223,1,left,1,0.21712213662340218,25,m,1,3,2018_Sep_17_1007,MP_PerceptionTuring2,59.95316243827992,
25,resources/videos_generated\model(vcgpdm)-dataset(walking)-mode(ELBO)-parts(2)-dyn(26)-lvm(17)_final(1).mov,resources/videos_natural\training(22).mov,True,True,left,0,24,24,24,2018-09-17 10:10:44.419829,2018-09-17 10:10:48.473061,0:00:04.053232,1,left,1,0.23382805582423316,25,m,1,3,2018_Sep_17_1007,MP_PerceptionTuring2,59.95316243827992,
26,resources/videos_generated\model(vcgpdm)-dataset(walking)-mode(ELBO)-parts(1)-dyn(22)-lvm(25)_final(8).mov,resources/videos_natural\training(31).mov,True,True,left,0,25,25,25,2018-09-17 10:10:49.824138,2018-09-17 10:10:53.777364,0:00:03.953226,1,left,1,0.2170820809660654,25,m,1,3,2018_Sep_17_1007,MP_PerceptionTuring2,59.95316243827992,
27,resources/videos_generated\model(vcgpdm)-dataset(walking)-mode(ELBO)-parts(2)-dyn(24)-lvm(17)_final(3).mov,resources/videos_natural\training(37).mov,True,False,right,0,26,26,26,2018-09-17 10:10:55.112440,2018-09-17 10:10:59.031665,0:00:03.919225,1,right,1,0.7342536095266041,25,m,1,3,2018_Sep_17_1007,MP_PerceptionTuring2,59.95316243827992,
28,resources/videos_generated\model(vcgpdm)-dataset(walking)-mode(ELBO)-parts(2)-dyn(26)-lvm(17)_final(5).mov,resources/videos_natural\training(37).mov,False,True,left,0,27,27,27,2018-09-17 10:11:00.883770,2018-09-17 10:11:04.819996,0:00:03.936226,1,left,1,0.1503454423891526,25,m,1,3,2018_Sep_17_1007,MP_PerceptionTuring2,59.95316243827992,
29,resources/videos_generated\model(vcgpdm)-dataset(walking)-mode(ELBO)-parts(1)-dyn(23)-lvm(24)_final(5).mov,resources/videos_natural\training(12).mov,False,False,right,0,28,28,28,2018-09-17 10:11:06.088068,2018-09-17 10:11:10.125299,0:00:04.037231,1,right,1,0.21714111035544192,25,m,1,3,2018_Sep_17_1007,MP_PerceptionTuring2,59.95316243827992,
30,resources/videos_generated\model(tmp)-dataset(walking)-numprim(14)_final(0).mov,resources/videos_natural\training(42).mov,True,True,left,0,29,29,29,2018-09-17 10:11:11.459375,2018-09-17 10:11:15.362599,0:00:03.903224,1,right,0,0.18359615465669776,25,m,1,3,2018_Sep_17_1007,MP_PerceptionTuring2,59.95316243827992,
31,resources/videos_generated\model(vcgpdm)-dataset(walking)-mode(ELBO)-parts(2)-dyn(22)-lvm(21)_final(9).mov,resources/videos_natural\training(18).mov,False,True,left,0,30,30,30,2018-09-17 10:11:16.663673,2018-09-17 10:11:20.583897,0:00:03.920224,1,right,0,0.21709683831340953,25,m,1,3,2018_Sep_17_1007,MP_PerceptionTuring2,59.95316243827992,
32,resources/videos_generated\model(vcgpdm)-dataset(walking)-mode(ELBO)-parts(2)-dyn(28)-lvm(17)_final(1).mov,resources/videos_natural\training(42).mov,False,False,right,0,31,31,31,2018-09-17 10:11:21.918974,2018-09-17 10:11:25.872200,0:00:03.953226,1,right,1,0.2173188008600846,25,m,1,3,2018_Sep_17_1007,MP_PerceptionTuring2,59.95316243827992,
33,resources/videos_generated\model(dmp)-dataset(walking)-npsi(60)_final(4).mov,resources/videos_natural\training(0).mov,False,True,left,0,32,32,32,2018-09-17 10:11:27.206276,2018-09-17 10:11:31.109499,0:00:03.903223,1,left,1,0.25044000987873005,25,m,1,3,2018_Sep_17_1007,MP_PerceptionTuring2,59.95316243827992,
34,resources/videos_generated\model(dmp)-dataset(walking)-npsi(100)_final(2).mov,resources/videos_natural\training(44).mov,False,True,left,0,33,33,33,2018-09-17 10:11:32.477578,2018-09-17 10:11:36.514808,0:00:04.037230,1,right,0,0.21707154000432638,25,m,1,3,2018_Sep_17_1007,MP_PerceptionTuring2,59.95316243827992,
35,resources/videos_generated\model(dmp)-dataset(walking)-npsi(70)_final(0).mov,resources/videos_natural\training(12).mov,False,True,left,0,34,34,34,2018-09-17 10:11:37.848885,2018-09-17 10:11:41.769109,0:00:03.920224,1,left,1,0.4505122907621626,25,m,1,3,2018_Sep_17_1007,MP_PerceptionTuring2,59.95316243827992,
36,resources/videos_generated\model(vcgpdm)-dataset(walking)-mode(ELBO)-parts(2)-dyn(22)-lvm(17)_final(9).mov,resources/videos_natural\training(14).mov,False,True,left,0,35,35,35,2018-09-17 10:11:43.337199,2018-09-17 10:11:47.257423,0:00:03.920224,1,left,1,0.21717393792278017,25,m,1,3,2018_Sep_17_1007,MP_PerceptionTuring2,59.95316243827992,
37,resources/videos_generated\model(vcgpdm)-dataset(walking)-mode(ELBO)-parts(1)-dyn(22)-lvm(27)_final(6)_fail.mov,resources/videos_natural\training(46).mov,False,True,left,0,36,36,36,2018-09-17 10:11:48.591499,2018-09-17 10:11:52.511723,0:00:03.920224,1,left,1,0.25047253627599275,25,m,1,3,2018_Sep_17_1007,MP_PerceptionTuring2,59.95316243827992,
38,resources/videos_generated\model(vcgpdm)-dataset(walking)-mode(ELBO)-parts(1)-dyn(26)-lvm(25)_final(9).mov,resources/videos_natural\training(40).mov,True,False,right,0,37,37,37,2018-09-17 10:11:53.879802,2018-09-17 10:11:57.766024,0:00:03.886222,1,right,1,0.31729922478734807,25,m,1,3,2018_Sep_17_1007,MP_PerceptionTuring2,59.95316243827992,
39,resources/videos_generated\model(vcgpdm)-dataset(walking)-mode(ELBO)-parts(2)-dyn(26)-lvm(23)_final(5).mov,resources/videos_natural\training(16).mov,True,True,left,0,38,38,38,2018-09-17 10:11:59.201106,2018-09-17 10:12:03.137331,0:00:03.936225,1,left,1,0.21705497563561948,25,m,1,3,2018_Sep_17_1007,MP_PerceptionTuring2,59.95316243827992,
40,resources/videos_generated\model(vcgpdm)-dataset(walking)-mode(ELBO)-parts(1)-dyn(23)-lvm(26)_final(5)_hip-corrected.mov,resources/videos_natural\training(0).mov,False,True,left,0,39,39,39,2018-09-17 10:12:04.472408,2018-09-17 10:12:08.391632,0:00:03.919224,1,left,1,0.2687195441485528,25,m,1,3,2018_Sep_17_1007,MP_PerceptionTuring2,59.95316243827992,
41,resources/videos_generated\model(vcgpdm)-dataset(walking)-mode(ELBO)-parts(1)-dyn(24)-lvm(23)_final(4)_fail.mov,resources/videos_natural\training(45).mov,False,False,right,0,40,40,40,2018-09-17 10:12:09.776711,2018-09-17 10:12:13.746938,0:00:03.970227,1,right,1,0.23374914919349976,25,m,1,3,2018_Sep_17_1007,MP_PerceptionTuring2,59.95316243827992,
42,resources/videos_generated\model(vcgpdm)-dataset(walking)-mode(ELBO)-parts(2)-dyn(28)-lvm(23)_final(1).mov,resources/videos_natural\training(31).mov,False,False,right,0,41,41,41,2018-09-17 10:12:15.098015,2018-09-17 10:12:19.134246,0:00:04.036231,1,right,1,0.21704413350289542,25,m,1,3,2018_Sep_17_1007,MP_PerceptionTuring2,59.95316243827992,
43,resources/videos_generated\model(vcgpdm)-dataset(walking)-mode(ELBO)-parts(1)-dyn(22)-lvm(22)_final(4).mov,resources/videos_natural\training(18).mov,False,True,left,0,42,42,42,2018-09-17 10:12:20.469323,2018-09-17 10:12:24.389547,0:00:03.920224,1,left,1,0.31722905209608143,25,m,1,3,2018_Sep_17_1007,MP_PerceptionTuring2,59.95316243827992,
44,resources/videos_generated\model(vcgpdm)-dataset(walking)-mode(ELBO)-parts(1)-dyn(24)-lvm(25)_final(6).mov,resources/videos_natural\training(15).mov,True,True,left,0,43,43,43,2018-09-17 10:12:25.823629,2018-09-17 10:12:29.743853,0:00:03.920224,1,left,1,0.1003427318564718,25,m,1,3,2018_Sep_17_1007,MP_PerceptionTuring2,59.95316243827992,
45,resources/videos_generated\model(vcgpdm)-dataset(walking)-mode(ELBO)-parts(2)-dyn(26)-lvm(17)_final(7).mov,resources/videos_natural\training(22).mov,False,False,right,0,44,44,44,2018-09-17 10:12:30.961923,2018-09-17 10:12:34.882147,0:00:03.920224,1,left,0,0.20044362392309267,25,m,1,3,2018_Sep_17_1007,MP_PerceptionTuring2,59.95316243827992,
46,resources/videos_generated\model(tmp)-dataset(walking)-numprim(15)_final(4).mov,resources/videos_natural\training(42).mov,False,True,left,0,45,45,45,2018-09-17 10:13:26.559103,2018-09-17 10:13:30.529330,0:00:03.970227,2,right,0,0.05019967594034824,25,m,1,3,2018_Sep_17_1007,MP_PerceptionTuring2,59.95316243827992,
47,resources/videos_generated\model(vcgpdm)-dataset(walking)-mode(ELBO)-parts(2)-dyn(23)-lvm(20)_final(1).mov,resources/videos_natural\training(43).mov,False,True,left,0,46,46,46,2018-09-17 10:13:31.697397,2018-09-17 10:13:35.617621,0:00:03.920224,2,left,1,0.16727332413756812,25,m,1,3,2018_Sep_17_1007,MP_PerceptionTuring2,59.95316243827992,
48,resources/videos_generated\model(dmp)-dataset(walking)-npsi(100)_final(6).mov,resources/videos_natural\training(27).mov,True,True,left,0,47,47,47,2018-09-17 10:13:36.901694,2018-09-17 10:13:40.854920,0:00:03.953226,2,right,0,0.2004279630646124,25,m,1,3,2018_Sep_17_1007,MP_PerceptionTuring2,59.95316243827992,
49,resources/videos_generated\model(vcgpdm)-dataset(walking)-mode(ELBO)-parts(2)-dyn(22)-lvm(17)_final(5).mov,resources/videos_natural\training(28).mov,True,True,left,0,48,48,48,2018-09-17 10:13:42.172996,2018-09-17 10:13:46.193226,0:00:04.020230,2,left,1,0.2004701269133875,25,m,1,3,2018_Sep_17_1007,MP_PerceptionTuring2,59.95316243827992,
50,resources/videos_generated\model(vcgpdm)-dataset(walking)-mode(ELBO)-parts(2)-dyn(24)-lvm(19)_final(9).mov,resources/videos_natural\training(27).mov,True,True,left,0,49,49,49,2018-09-17 10:13:47.511301,2018-09-17 10:13:51.597535,0:00:04.086234,2,left,1,0.18379462591565243,25,m,1,3,2018_Sep_17_1007,MP_PerceptionTuring2,59.95316243827992,
51,resources/videos_generated\model(tmp)-dataset(walking)-numprim(11)_final(6).mov,resources/videos_natural\training(36).mov,False,True,left,0,50,50,50,2018-09-17 10:13:52.898609,2018-09-17 10:13:56.818833,0:00:03.920224,2,right,0,0.18379763762004586,25,m,1,3,2018_Sep_17_1007,MP_PerceptionTuring2,59.95316243827992,
52,resources/videos_generated\model(tmp)-dataset(walking)-numprim(14)_final(6).mov,resources/videos_natural\training(20).mov,False,False,right,0,51,51,51,2018-09-17 10:13:58.119908,2018-09-17 10:14:02.040132,0:00:03.920224,2,right,1,0.2671968268687124,25,m,1,3,2018_Sep_17_1007,MP_PerceptionTuring2,59.95316243827992,
53,resources/videos_generated\model(vcgpdm)-dataset(walking)-mode(ELBO)-parts(2)-dyn(24)-lvm(17)_final(7).mov,resources/videos_natural\training(25).mov,True,False,right,0,52,52,52,2018-09-17 10:14:03.425211,2018-09-17 10:14:07.328435,0:00:03.903224,2,right,1,0.2170058848687404,25,m,1,3,2018_Sep_17_1007,MP_PerceptionTuring2,59.95316243827992,
54,resources/videos_generated\model(vcgpdm)-dataset(walking)-mode(ELBO)-parts(2)-dyn(24)-lvm(21)_final(1).mov,resources/videos_natural\training(25).mov,False,False,right,0,53,53,53,2018-09-17 10:14:08.662511,2018-09-17 10:14:12.632738,0:00:03.970227,2,right,1,0.30054933471546974,25,m,1,3,2018_Sep_17_1007,MP_PerceptionTuring2,59.95316243827992,
55,resources/videos_generated\model(tmp)-dataset(walking)-numprim(13)_final(4).mov,resources/videos_natural\training(29).mov,False,True,left,0,54,54,54,2018-09-17 10:14:14.050819,2018-09-17 10:14:17.954042,0:00:03.903223,2,right,0,0.1839120823515259,25,m,1,3,2018_Sep_17_1007,MP_PerceptionTuring2,59.95316243827992,
56,resources/videos_generated\model(vcgpdm)-dataset(walking)-mode(ELBO)-parts(1)-dyn(26)-lvm(23)_final(1).mov,resources/videos_natural\training(30).mov,True,True,left,0,55,55,55,2018-09-17 10:14:19.255117,2018-09-17 10:14:23.158340,0:00:03.903223,2,left,1,0.18382594763261295,25,m,1,3,2018_Sep_17_1007,MP_PerceptionTuring2,59.95316243827992,
57,resources/videos_generated\model(vcgpdm)-dataset(walking)-mode(ELBO)-parts(1)-dyn(25)-lvm(28)_final(4).mov,resources/videos_natural\training(38).mov,False,False,right,0,56,56,56,2018-09-17 10:14:24.459414,2018-09-17 10:14:28.362638,0:00:03.903224,2,right,1,0.2171194260899938,25,m,1,3,2018_Sep_17_1007,MP_PerceptionTuring2,59.95316243827992,
58,resources/videos_generated\model(vcgpdm)-dataset(walking)-mode(ELBO)-parts(2)-dyn(22)-lvm(17)_final(1).mov,resources/videos_natural\training(23).mov,False,True,left,0,57,57,57,2018-09-17 10:14:29.697714,2018-09-17 10:14:33.617938,0:00:03.920224,2,left,1,0.16699805443931837,25,m,1,3,2018_Sep_17_1007,MP_PerceptionTuring2,59.95316243827992,
59,resources/videos_generated\model(vcgpdm)-dataset(walking)-mode(ELBO)-parts(2)-dyn(25)-lvm(20)_final(5).mov,resources/videos_natural\training(42).mov,False,True,left,0,58,58,58,2018-09-17 10:14:34.902012,2018-09-17 10:14:38.789234,0:00:03.887222,2,left,1,0.20046410350641963,25,m,1,3,2018_Sep_17_1007,MP_PerceptionTuring2,59.95316243827992,
60,resources/videos_generated\model(vcgpdm)-dataset(walking)-mode(ELBO)-parts(2)-dyn(27)-lvm(20)_final(1).mov,resources/videos_natural\training(2).mov,True,False,right,0,59,59,59,2018-09-17 10:14:40.090308,2018-09-17 10:14:44.110538,0:00:04.020230,2,left,0,0.2839226233136287,25,m,1,3,2018_Sep_17_1007,MP_PerceptionTuring2,59.95316243827992,
61,resources/videos_generated\model(vcgpdm)-dataset(walking)-mode(ELBO)-parts(1)-dyn(27)-lvm(24)_final(3).mov,resources/videos_natural\training(45).mov,True,False,right,0,60,60,60,2018-09-17 10:14:45.511618,2018-09-17 10:14:49.597852,0:00:04.086234,2,right,1,0.21706672127857018,25,m,1,3,2018_Sep_17_1007,MP_PerceptionTuring2,59.95316243827992,
62,resources/videos_generated\model(vcgpdm)-dataset(walking)-mode(ELBO)-parts(1)-dyn(26)-lvm(25)_final(1).mov,resources/videos_natural\training(38).mov,False,False,right,0,61,61,61,2018-09-17 10:14:50.932929,2018-09-17 10:14:54.836152,0:00:03.903223,2,right,1,0.3003758605946132,25,m,1,3,2018_Sep_17_1007,MP_PerceptionTuring2,59.95316243827992,
63,resources/videos_generated\model(vcgpdm)-dataset(walking)-mode(ELBO)-parts(2)-dyn(22)-lvm(19)_final(5).mov,resources/videos_natural\training(36).mov,False,True,left,0,62,62,62,2018-09-17 10:14:56.254233,2018-09-17 10:15:00.190458,0:00:03.936225,2,left,1,0.20045235786255944,25,m,1,3,2018_Sep_17_1007,MP_PerceptionTuring2,59.95316243827992,
64,resources/videos_generated\model(vcgpdm)-dataset(walking)-mode(ELBO)-parts(2)-dyn(23)-lvm(22)_final(1).mov,resources/videos_natural\training(4).mov,True,True,left,0,63,63,63,2018-09-17 10:15:01.508533,2018-09-17 10:15:05.595767,0:00:04.087234,2,left,1,0.16733566639959463,25,m,1,3,2018_Sep_17_1007,MP_PerceptionTuring2,59.95316243827992,
65,resources/videos_generated\model(vcgpdm)-dataset(walking)-mode(ELBO)-parts(1)-dyn(23)-lvm(26)_final(9).mov,resources/videos_natural\training(3).mov,False,True,left,0,64,64,64,2018-09-17 10:15:06.879841,2018-09-17 10:15:10.783064,0:00:03.903223,2,left,1,0.23402381655159843,25,m,1,3,2018_Sep_17_1007,MP_PerceptionTuring2,59.95316243827992,
66,resources/videos_generated\model(vcgpdm)-dataset(walking)-mode(ELBO)-parts(1)-dyn(25)-lvm(28)_final(6).mov,resources/videos_natural\training(26).mov,False,True,left,0,65,65,65,2018-09-17 10:15:12.134141,2018-09-17 10:15:16.054365,0:00:03.920224,2,left,1,0.0002078075394820189,25,m,1,3,2018_Sep_17_1007,MP_PerceptionTuring2,59.95316243827992,
67,resources/videos_generated\model(vcgpdm)-dataset(walking)-mode(ELBO)-parts(2)-dyn(24)-lvm(17)_final(5).mov,resources/videos_natural\training(19).mov,True,False,right,0,66,66,66,2018-09-17 10:15:17.171429,2018-09-17 10:15:21.292665,0:00:04.121236,2,left,0,0.31716911919738777,25,m,1,3,2018_Sep_17_1007,MP_PerceptionTuring2,59.95316243827992,
68,resources/videos_generated\model(vcgpdm)-dataset(walking)-mode(ELBO)-parts(2)-dyn(26)-lvm(21)_final(5).mov,resources/videos_natural\training(34).mov,False,False,right,0,67,67,67,2018-09-17 10:15:22.726747,2018-09-17 10:15:26.663972,0:00:03.937225,2,right,1,0.06691553376458614,25,m,1,3,2018_Sep_17_1007,MP_PerceptionTuring2,59.95316243827992,
69,resources/videos_generated\model(vcgpdm)-dataset(walking)-mode(ELBO)-parts(1)-dyn(23)-lvm(24)_final(3).mov,resources/videos_natural\training(47).mov,False,True,left,0,68,68,68,2018-09-17 10:15:27.848040,2018-09-17 10:15:31.784265,0:00:03.936225,2,left,1,0.21704202531054761,25,m,1,3,2018_Sep_17_1007,MP_PerceptionTuring2,59.95316243827992,
70,resources/videos_generated\model(vcgpdm)-dataset(walking)-mode(ELBO)-parts(2)-dyn(25)-lvm(22)_final(7).mov,resources/videos_natural\training(37).mov,False,True,left,0,69,69,69,2018-09-17 10:15:33.119341,2018-09-17 10:15:37.039566,0:00:03.920225,2,left,1,0.21718267186315643,25,m,1,3,2018_Sep_17_1007,MP_PerceptionTuring2,59.95316243827992,
71,resources/videos_generated\model(vcgpdm)-dataset(walking)-mode(ELBO)-parts(1)-dyn(28)-lvm(25)_final(9).mov,resources/videos_natural\training(22).mov,True,False,right,0,70,70,70,2018-09-17 10:15:38.373642,2018-09-17 10:15:42.326868,0:00:03.953226,2,left,0,0.21701582349032833,25,m,1,3,2018_Sep_17_1007,MP_PerceptionTuring2,59.95316243827992,
72,resources/videos_generated\model(vcgpdm)-dataset(walking)-mode(ELBO)-parts(2)-dyn(23)-lvm(22)_final(9).mov,resources/videos_natural\training(17).mov,True,True,left,0,71,71,71,2018-09-17 10:15:43.661944,2018-09-17 10:15:47.632172,0:00:03.970228,2,left,1,0.25042254199797753,25,m,1,3,2018_Sep_17_1007,MP_PerceptionTuring2,59.95316243827992,
73,resources/videos_generated\model(vcgpdm)-dataset(walking)-mode(ELBO)-parts(2)-dyn(22)-lvm(21)_final(1).mov,resources/videos_natural\training(27).mov,True,False,right,0,72,72,72,2018-09-17 10:15:48.999250,2018-09-17 10:15:52.919474,0:00:03.920224,2,left,0,0.3841358519212008,25,m,1,3,2018_Sep_17_1007,MP_PerceptionTuring2,59.95316243827992,
74,resources/videos_generated\model(vcgpdm)-dataset(walking)-mode(ELBO)-parts(1)-dyn(25)-lvm(23)_final(7).mov,resources/videos_natural\training(38).mov,False,True,left,0,73,73,73,2018-09-17 10:15:54.420560,2018-09-17 10:15:58.374786,0:00:03.954226,2,left,1,0.21706190255372348,25,m,1,3,2018_Sep_17_1007,MP_PerceptionTuring2,59.95316243827992,
75,resources/videos_generated\model(vcgpdm)-dataset(walking)-mode(ELBO)-parts(1)-dyn(22)-lvm(23)_final(4)_fail.mov,resources/videos_natural\training(10).mov,False,False,right,0,74,74,74,2018-09-17 10:15:59.708862,2018-09-17 10:16:03.629087,0:00:03.920225,2,right,1,0.2337217426920688,25,m,1,3,2018_Sep_17_1007,MP_PerceptionTuring2,59.95316243827992,
76,resources/videos_generated\model(vcgpdm)-dataset(walking)-mode(ELBO)-parts(1)-dyn(22)-lvm(25)_final(4).mov,resources/videos_natural\training(21).mov,True,False,right,0,75,75,75,2018-09-17 10:16:04.980164,2018-09-17 10:16:08.883387,0:00:03.903223,2,right,1,0.2337542690893315,25,m,1,3,2018_Sep_17_1007,MP_PerceptionTuring2,59.95316243827992,
77,resources/videos_generated\model(vcgpdm)-dataset(walking)-mode(ELBO)-parts(1)-dyn(28)-lvm(25)_final(7).mov,resources/videos_natural\training(30).mov,False,True,left,0,76,76,76,2018-09-17 10:16:10.234464,2018-09-17 10:16:14.154689,0:00:03.920225,2,left,1,0.01688601907062548,25,m,1,3,2018_Sep_17_1007,MP_PerceptionTuring2,59.95316243827992,
78,resources/videos_generated\model(vcgpdm)-dataset(walking)-mode(ELBO)-parts(1)-dyn(25)-lvm(22)_final(4).mov,resources/videos_natural\training(42).mov,True,True,left,0,77,77,77,2018-09-17 10:16:15.288753,2018-09-17 10:16:19.208978,0:00:03.920225,2,left,1,0.2003656208025859,25,m,1,3,2018_Sep_17_1007,MP_PerceptionTuring2,59.95316243827992,
79,resources/videos_generated\model(vcgpdm)-dataset(walking)-mode(ELBO)-parts(1)-dyn(27)-lvm(24)_final(9).mov,resources/videos_natural\training(42).mov,False,True,left,0,78,78,78,2018-09-17 10:16:20.527053,2018-09-17 10:16:24.430276,0:00:03.903223,2,left,1,0.2170751540479614,25,m,1,3,2018_Sep_17_1007,MP_PerceptionTuring2,59.95316243827992,
80,resources/videos_generated\model(vcgpdm)-dataset(walking)-mode(ELBO)-parts(2)-dyn(27)-lvm(20)_final(7).mov,resources/videos_natural\training(14).mov,False,False,right,0,79,79,79,2018-09-17 10:16:25.764353,2018-09-17 10:16:29.667576,0:00:03.903223,2,right,1,0.31731157277135935,25,m,1,3,2018_Sep_17_1007,MP_PerceptionTuring2,59.95316243827992,
81,resources/videos_generated\model(vcgpdm)-dataset(walking)-mode(ELBO)-parts(1)-dyn(26)-lvm(22)_final(7).mov,resources/videos_natural\training(30).mov,False,False,right,0,80,80,80,2018-09-17 10:16:31.102658,2018-09-17 10:16:35.055884,0:00:03.953226,2,right,1,0.16708238213777804,25,m,1,3,2018_Sep_17_1007,MP_PerceptionTuring2,59.95316243827992,
82,resources/videos_generated\model(dmp)-dataset(walking)-npsi(80)_final(0).mov,resources/videos_natural\training(11).mov,False,False,right,0,81,81,81,2018-09-17 10:16:36.339957,2018-09-17 10:16:40.260182,0:00:03.920225,2,right,1,0.2003427318559261,25,m,1,3,2018_Sep_17_1007,MP_PerceptionTuring2,59.95316243827992,
83,resources/videos_generated\model(vcgpdm)-dataset(walking)-mode(ELBO)-parts(1)-dyn(24)-lvm(27)_final(0).mov,resources/videos_natural\training(37).mov,False,True,left,0,82,82,82,2018-09-17 10:16:41.578257,2018-09-17 10:16:45.498481,0:00:03.920224,2,left,1,0.7676449683467581,25,m,1,3,2018_Sep_17_1007,MP_PerceptionTuring2,59.95316243827992,
84,resources/videos_generated\model(vcgpdm)-dataset(walking)-mode(ELBO)-parts(1)-dyn(24)-lvm(25)_final(0).mov,resources/videos_natural\training(45).mov,True,True,left,0,83,83,83,2018-09-17 10:16:47.383589,2018-09-17 10:16:51.286812,0:00:03.903223,2,left,1,0.18378709665739734,25,m,1,3,2018_Sep_17_1007,MP_PerceptionTuring2,59.95316243827992,
85,resources/videos_generated\model(vcgpdm)-dataset(walking)-mode(ELBO)-parts(1)-dyn(25)-lvm(24)_final(5).mov,resources/videos_natural\training(6).mov,False,True,left,0,84,84,84,2018-09-17 10:16:52.587887,2018-09-17 10:16:56.508111,0:00:03.920224,2,left,1,0.1503198429090844,25,m,1,3,2018_Sep_17_1007,MP_PerceptionTuring2,59.95316243827992,
86,resources/videos_generated\model(tmp)-dataset(walking)-numprim(15)_final(8).mov,resources/videos_natural\training(7).mov,True,False,right,0,85,85,85,2018-09-17 10:16:57.775184,2018-09-17 10:17:01.712409,0:00:03.937225,2,left,0,0.23371933332873596,25,m,1,3,2018_Sep_17_1007,MP_PerceptionTuring2,59.95316243827992,
87,resources/videos_generated\model(tmp)-dataset(walking)-numprim(14)_final(2).mov,resources/videos_natural\training(34).mov,True,True,left,0,86,86,86,2018-09-17 10:17:03.063486,2018-09-17 10:17:06.950708,0:00:03.887222,2,left,1,0.00022407073902286356,25,m,1,3,2018_Sep_17_1007,MP_PerceptionTuring2,59.95316243827992,
88,resources/videos_generated\model(vcgpdm)-dataset(walking)-mode(ELBO)-parts(1)-dyn(25)-lvm(22)_final(6).mov,resources/videos_natural\training(15).mov,False,True,left,0,87,87,87,2018-09-17 10:17:08.067772,2018-09-17 10:17:11.987996,0:00:03.920224,2,left,1,0.2003885097492457,25,m,1,3,2018_Sep_17_1007,MP_PerceptionTuring2,59.95316243827992,
89,resources/videos_generated\model(vcgpdm)-dataset(walking)-mode(ELBO)-parts(2)-dyn(26)-lvm(17)_final(3).mov,resources/videos_natural\training(0).mov,False,False,right,0,88,88,88,2018-09-17 10:17:13.306072,2018-09-17 10:17:17.192294,0:00:03.886222,2,left,0,0.3006077617619667,25,m,1,3,2018_Sep_17_1007,MP_PerceptionTuring2,59.95316243827992,
90,resources/videos_generated\model(vcgpdm)-dataset(walking)-mode(ELBO)-parts(2)-dyn(25)-lvm(20)_final(1).mov,resources/videos_natural\training(48).mov,True,True,left,0,89,89,89,2018-09-17 10:17:18.610375,2018-09-17 10:17:22.530599,0:00:03.920224,2,left,1,0.23374914919349976,25,m,1,3,2018_Sep_17_1007,MP_PerceptionTuring2,59.95316243827992,
91,resources/videos_generated\model(vcgpdm)-dataset(walking)-mode(ELBO)-parts(1)-dyn(23)-lvm(24)_final(9).mov,resources/videos_natural\training(31).mov,True,True,left,0,90,90,90,2018-09-17 10:18:04.750014,2018-09-17 10:18:08.670238,0:00:03.920224,3,left,1,0.2337473421712275,25,m,1,3,2018_Sep_17_1007,MP_PerceptionTuring2,59.95316243827992,
92,resources/videos_generated\model(dmp)-dataset(walking)-npsi(100)_final(0).mov,resources/videos_natural\training(41).mov,False,False,right,0,91,91,91,2018-09-17 10:18:10.021316,2018-09-17 10:18:13.958541,0:00:03.937225,3,left,0,0.20039724368962197,25,m,1,3,2018_Sep_17_1007,MP_PerceptionTuring2,59.95316243827992,
93,resources/videos_generated\model(vcgpdm)-dataset(walking)-mode(ELBO)-parts(1)-dyn(23)-lvm(22)_final(7).mov,resources/videos_natural\training(29).mov,False,True,left,0,92,92,92,2018-09-17 10:18:15.275616,2018-09-17 10:18:19.178840,0:00:03.903224,3,right,0,0.2004195302943117,25,m,1,3,2018_Sep_17_1007,MP_PerceptionTuring2,59.95316243827992,
94,resources/videos_generated\model(tmp)-dataset(walking)-numprim(12)_final(6).mov,resources/videos_natural\training(14).mov,True,False,right,0,93,93,93,2018-09-17 10:18:20.496915,2018-09-17 10:18:24.384137,0:00:03.887222,3,left,0,0.2004604894618751,25,m,1,3,2018_Sep_17_1007,MP_PerceptionTuring2,59.95316243827992,
95,resources/videos_generated\model(vcgpdm)-dataset(walking)-mode(ELBO)-parts(2)-dyn(28)-lvm(23)_final(3).mov,resources/videos_natural\training(1).mov,True,True,left,0,94,94,94,2018-09-17 10:18:25.701213,2018-09-17 10:18:29.605436,0:00:03.904223,3,left,1,0.5339172022477214,25,m,1,3,2018_Sep_17_1007,MP_PerceptionTuring2,59.95316243827992,
96,resources/videos_generated\model(vcgpdm)-dataset(walking)-mode(ELBO)-parts(2)-dyn(28)-lvm(23)_final(9).mov,resources/videos_natural\training(44).mov,True,False,right,0,95,95,95,2018-09-17 10:18:31.256530,2018-09-17 10:18:35.159754,0:00:03.903224,3,right,1,0.20041561508060113,25,m,1,3,2018_Sep_17_1007,MP_PerceptionTuring2,59.95316243827992,
97,resources/videos_generated\model(vcgpdm)-dataset(walking)-mode(ELBO)-parts(2)-dyn(26)-lvm(17)_final(9).mov,resources/videos_natural\training(27).mov,False,False,right,0,96,96,96,2018-09-17 10:18:36.477829,2018-09-17 10:18:40.398053,0:00:03.920224,3,right,1,0.18264204699516995,25,m,1,3,2018_Sep_17_1007,MP_PerceptionTuring2,59.95316243827992,
98,resources/videos_generated\model(vcgpdm)-dataset(walking)-mode(ELBO)-parts(1)-dyn(28)-lvm(25)_final(1).mov,resources/videos_natural\training(15).mov,True,True,left,0,97,97,97,2018-09-17 10:18:41.699128,2018-09-17 10:18:45.619352,0:00:03.920224,3,left,1,0.3338545588148918,25,m,1,3,2018_Sep_17_1007,MP_PerceptionTuring2,59.95316243827992,
99,resources/videos_generated\model(vcgpdm)-dataset(walking)-mode(ELBO)-parts(1)-dyn(27)-lvm(22)_final(7).mov,resources/videos_natural\training(19).mov,False,False,right,0,98,98,98,2018-09-17 10:18:47.070435,2018-09-17 10:18:50.973658,0:00:03.903223,3,left,0,0.2004535625446806,25,m,1,3,2018_Sep_17_1007,MP_PerceptionTuring2,59.95316243827992,
100,resources/videos_generated\model(dmp)-dataset(walking)-npsi(70)_final(2).mov,resources/videos_natural\training(35).mov,False,True,left,0,99,99,99,2018-09-17 10:18:52.290733,2018-09-17 10:18:56.227959,0:00:03.937226,3,right,0,0.3004900041560177,25,m,1,3,2018_Sep_17_1007,MP_PerceptionTuring2,59.95316243827992,
101,resources/videos_generated\model(vcgpdm)-dataset(walking)-mode(ELBO)-parts(2)-dyn(23)-lvm(22)_final(3).mov,resources/videos_natural\training(36).mov,True,True,left,0,100,100,100,2018-09-17 10:18:57.646040,2018-09-17 10:19:01.549263,0:00:03.903223,3,left,1,0.31704834988795483,25,m,1,3,2018_Sep_17_1007,MP_PerceptionTuring2,59.95316243827992,
102,resources/videos_generated\model(vcgpdm)-dataset(walking)-mode(ELBO)-parts(1)-dyn(22)-lvm(27)_final(2)_hip-corrected.mov,resources/videos_natural\training(29).mov,False,True,left,0,101,101,101,2018-09-17 10:19:02.983345,2018-09-17 10:19:06.887568,0:00:03.904223,3,left,1,0.11698570645603468,25,m,1,3,2018_Sep_17_1007,MP_PerceptionTuring2,59.95316243827992,
103,resources/videos_generated\model(vcgpdm)-dataset(walking)-mode(ELBO)-parts(1)-dyn(28)-lvm(23)_final(3)_fail.mov,resources/videos_natural\training(33).mov,False,True,left,0,102,102,102,2018-09-17 10:19:08.121639,2018-09-17 10:19:12.224874,0:00:04.103235,3,left,1,0.23389642149413703,25,m,1,3,2018_Sep_17_1007,MP_PerceptionTuring2,59.95316243827992,
104,resources/videos_generated\model(vcgpdm)-dataset(walking)-mode(ELBO)-parts(2)-dyn(27)-lvm(18)_final(5).mov,resources/videos_natural\training(6).mov,False,False,right,0,103,103,103,2018-09-17 10:19:13.575951,2018-09-17 10:19:17.496175,0:00:03.920224,3,right,1,0.2506405893300325,25,m,1,3,2018_Sep_17_1007,MP_PerceptionTuring2,59.95316243827992,
105,resources/videos_generated\model(vcgpdm)-dataset(walking)-mode(ELBO)-parts(2)-dyn(26)-lvm(21)_final(7).mov,resources/videos_natural\training(7).mov,False,False,right,0,104,104,104,2018-09-17 10:19:18.864253,2018-09-17 10:19:22.784478,0:00:03.920225,3,left,0,0.5340641733782832,25,m,1,3,2018_Sep_17_1007,MP_PerceptionTuring2,59.95316243827992,
106,resources/videos_generated\model(tmp)-dataset(walking)-numprim(13)_final(2).mov,resources/videos_natural\training(8).mov,False,False,right,0,105,105,105,2018-09-17 10:19:24.435572,2018-09-17 10:19:28.338795,0:00:03.903223,3,left,0,0.4506023406956956,25,m,1,3,2018_Sep_17_1007,MP_PerceptionTuring2,59.95316243827992,
107,resources/videos_generated\model(vcgpdm)-dataset(walking)-mode(ELBO)-parts(1)-dyn(22)-lvm(27)_final(4)_fail.mov,resources/videos_natural\training(45).mov,False,False,right,0,106,106,106,2018-09-17 10:19:29.906885,2018-09-17 10:19:33.810108,0:00:03.903223,3,right,1,0.23376029249629937,25,m,1,3,2018_Sep_17_1007,MP_PerceptionTuring2,59.95316243827992,
108,resources/videos_generated\model(vcgpdm)-dataset(walking)-mode(ELBO)-parts(1)-dyn(26)-lvm(22)_final(0).mov,resources/videos_natural\training(11).mov,True,True,left,0,107,107,107,2018-09-17 10:19:35.161185,2018-09-17 10:19:39.198416,0:00:04.037231,3,left,1,0.25035267047769594,25,m,1,3,2018_Sep_17_1007,MP_PerceptionTuring2,59.95316243827992,
109,resources/videos_generated\model(vcgpdm)-dataset(walking)-mode(ELBO)-parts(2)-dyn(27)-lvm(22)_final(1).mov,resources/videos_natural\training(10).mov,True,True,left,0,108,108,108,2018-09-17 10:19:40.566495,2018-09-17 10:19:44.486719,0:00:03.920224,3,left,1,0.20038670272697345,25,m,1,3,2018_Sep_17_1007,MP_PerceptionTuring2,59.95316243827992,
110,resources/videos_generated\model(vcgpdm)-dataset(walking)-mode(ELBO)-parts(1)-dyn(25)-lvm(24)_final(7).mov,resources/videos_natural\training(21).mov,True,False,right,0,109,109,109,2018-09-17 10:19:45.803794,2018-09-17 10:19:49.924030,0:00:04.120236,3,left,0,0.23378769899863983,25,m,1,3,2018_Sep_17_1007,MP_PerceptionTuring2,59.95316243827992,
111,resources/videos_generated\model(dmp)-dataset(walking)-npsi(80)_final(6).mov,resources/videos_natural\training(23).mov,False,False,right,0,110,110,110,2018-09-17 10:19:51.275107,2018-09-17 10:19:55.195331,0:00:03.920224,3,right,1,0.2838476318975154,25,m,1,3,2018_Sep_17_1007,MP_PerceptionTuring2,59.95316243827992,
112,resources/videos_generated\model(vcgpdm)-dataset(walking)-mode(ELBO)-parts(2)-dyn(22)-lvm(23)_final(5).mov,resources/videos_natural\training(35).mov,True,False,right,0,111,111,111,2018-09-17 10:19:56.596411,2018-09-17 10:20:00.516636,0:00:03.920225,3,right,1,0.25043639583418553,25,m,1,3,2018_Sep_17_1007,MP_PerceptionTuring2,59.95316243827992,
113,resources/videos_generated\model(vcgpdm)-dataset(walking)-mode(ELBO)-parts(1)-dyn(24)-lvm(25)_final(2).mov,resources/videos_natural\training(25).mov,True,False,right,0,112,112,112,2018-09-17 10:20:01.884714,2018-09-17 10:20:05.921945,0:00:04.037231,3,right,1,0.23374372812759248,25,m,1,3,2018_Sep_17_1007,MP_PerceptionTuring2,59.95316243827992,
114,resources/videos_generated\model(vcgpdm)-dataset(walking)-mode(ELBO)-parts(2)-dyn(27)-lvm(22)_final(7).mov,resources/videos_natural\training(33).mov,True,False,right,0,113,113,113,2018-09-17 10:20:07.273022,2018-09-17 10:20:11.360256,0:00:04.087234,3,right,1,0.05027767906085501,25,m,1,3,2018_Sep_17_1007,MP_PerceptionTuring2,59.95316243827992,
115,resources/videos_generated\model(dmp)-dataset(walking)-npsi(80)_final(4).mov,resources/videos_natural\training(6).mov,True,False,right,0,114,114,114,2018-09-17 10:20:12.527323,2018-09-17 10:20:16.447547,0:00:03.920224,3,left,0,0.05031231365046551,25,m,1,3,2018_Sep_17_1007,MP_PerceptionTuring2,59.95316243827992,
116,resources/videos_generated\model(vcgpdm)-dataset(walking)-mode(ELBO)-parts(1)-dyn(27)-lvm(28)_final(9).mov,resources/videos_natural\training(44).mov,True,True,left,0,115,115,115,2018-09-17 10:20:17.614614,2018-09-17 10:20:21.551839,0:00:03.937225,3,left,1,0.3340729073179318,25,m,1,3,2018_Sep_17_1007,MP_PerceptionTuring2,59.95316243827992,
117,resources/videos_generated\model(vcgpdm)-dataset(walking)-mode(ELBO)-parts(1)-dyn(23)-lvm(28)_final(8).mov,resources/videos_natural\training(21).mov,True,False,right,0,116,116,116,2018-09-17 10:20:23.002922,2018-09-17 10:20:27.040153,0:00:04.037231,3,left,0,0.30040537528839195,25,m,1,3,2018_Sep_17_1007,MP_PerceptionTuring2,59.95316243827992,
118,resources/videos_generated\model(vcgpdm)-dataset(walking)-mode(ELBO)-parts(1)-dyn(28)-lvm(27)_final(9).mov,resources/videos_natural\training(30).mov,False,False,right,0,117,117,117,2018-09-17 10:20:28.457234,2018-09-17 10:20:32.511466,0:00:04.054232,3,right,1,0.25065263614487776,25,m,1,3,2018_Sep_17_1007,MP_PerceptionTuring2,59.95316243827992,
119,resources/videos_generated\model(vcgpdm)-dataset(walking)-mode(ELBO)-parts(1)-dyn(22)-lvm(28)_final(0).mov,resources/videos_natural\training(41).mov,False,True,left,0,118,118,118,2018-09-17 10:20:33.878544,2018-09-17 10:20:37.782767,0:00:03.904223,3,left,1,0.2504541648841041,25,m,1,3,2018_Sep_17_1007,MP_PerceptionTuring2,59.95316243827992,
120,resources/videos_generated\model(dmp)-dataset(walking)-npsi(90)_final(6).mov,resources/videos_natural\training(19).mov,False,False,right,0,119,119,119,2018-09-17 10:20:39.149845,2018-09-17 10:20:43.087071,0:00:03.937226,3,right,1,0.20045868243960285,25,m,1,3,2018_Sep_17_1007,MP_PerceptionTuring2,59.95316243827992,
121,resources/videos_generated\model(vcgpdm)-dataset(walking)-mode(ELBO)-parts(1)-dyn(26)-lvm(27)_final(3).mov,resources/videos_natural\training(3).mov,True,False,right,0,120,120,120,2018-09-17 10:20:44.405146,2018-09-17 10:20:48.308369,0:00:03.903223,3,right,1,0.01698811581809423,25,m,1,3,2018_Sep_17_1007,MP_PerceptionTuring2,59.95316243827992,
122,resources/videos_generated\model(dmp)-dataset(walking)-npsi(100)_final(8).mov,resources/videos_natural\training(27).mov,False,False,right,0,121,121,121,2018-09-17 10:20:49.442434,2018-09-17 10:20:53.379659,0:00:03.937225,3,right,1,0.23378920484992705,25,m,1,3,2018_Sep_17_1007,MP_PerceptionTuring2,59.95316243827992,
123,resources/videos_generated\model(vcgpdm)-dataset(walking)-mode(ELBO)-parts(1)-dyn(27)-lvm(28)_final(3).mov,resources/videos_natural\training(5).mov,False,False,right,0,122,122,122,2018-09-17 10:20:54.730737,2018-09-17 10:20:58.616959,0:00:03.886222,3,right,1,0.08358862539807888,25,m,1,3,2018_Sep_17_1007,MP_PerceptionTuring2,59.95316243827992,
124,resources/videos_generated\model(vcgpdm)-dataset(walking)-mode(ELBO)-parts(2)-dyn(26)-lvm(23)_final(7).mov,resources/videos_natural\training(28).mov,True,True,left,0,123,123,123,2018-09-17 10:20:59.818028,2018-09-17 10:21:03.738252,0:00:03.920224,3,left,1,0.08352959601052135,25,m,1,3,2018_Sep_17_1007,MP_PerceptionTuring2,59.95316243827992,
125,resources/videos_generated\model(vcgpdm)-dataset(walking)-mode(ELBO)-parts(2)-dyn(28)-lvm(19)_final(3).mov,resources/videos_natural\training(40).mov,False,True,left,0,124,124,124,2018-09-17 10:21:04.939320,2018-09-17 10:21:08.859545,0:00:03.920225,3,left,1,0.20035839271349687,25,m,1,3,2018_Sep_17_1007,MP_PerceptionTuring2,59.95316243827992,
126,resources/videos_generated\model(vcgpdm)-dataset(walking)-mode(ELBO)-parts(1)-dyn(24)-lvm(25)_final(8).mov,resources/videos_natural\training(35).mov,False,True,left,0,125,125,125,2018-09-17 10:21:10.176620,2018-09-17 10:21:14.096844,0:00:03.920224,3,left,1,0.3173769267377793,25,m,1,3,2018_Sep_17_1007,MP_PerceptionTuring2,59.95316243827992,
127,resources/videos_generated\model(vcgpdm)-dataset(walking)-mode(ELBO)-parts(1)-dyn(28)-lvm(27)_final(7).mov,resources/videos_natural\training(24).mov,True,True,left,0,126,126,126,2018-09-17 10:21:15.531926,2018-09-17 10:21:19.435150,0:00:03.903224,3,left,1,0.3005276504500216,25,m,1,3,2018_Sep_17_1007,MP_PerceptionTuring2,59.95316243827992,
128,resources/videos_generated\model(vcgpdm)-dataset(walking)-mode(ELBO)-parts(2)-dyn(28)-lvm(17)_final(5).mov,resources/videos_natural\training(28).mov,False,True,left,0,127,127,127,2018-09-17 10:21:20.853231,2018-09-17 10:21:24.756454,0:00:03.903223,3,left,1,0.25048157138644456,25,m,1,3,2018_Sep_17_1007,MP_PerceptionTuring2,59.95316243827992,
129,resources/videos_generated\model(tmp)-dataset(walking)-numprim(15)_final(2).mov,resources/videos_natural\training(1).mov,False,False,right,0,128,128,128,2018-09-17 10:21:26.124532,2018-09-17 10:21:30.160763,0:00:04.036231,3,left,0,0.2504616941432687,25,m,1,3,2018_Sep_17_1007,MP_PerceptionTuring2,59.95316243827992,
130,resources/videos_generated\model(vcgpdm)-dataset(walking)-mode(ELBO)-parts(1)-dyn(24)-lvm(27)_final(8).mov,resources/videos_natural\training(9).mov,True,True,left,0,129,129,129,2018-09-17 10:21:31.528841,2018-09-17 10:21:35.632076,0:00:04.103235,3,left,1,0.417279347544536,25,m,1,3,2018_Sep_17_1007,MP_PerceptionTuring2,59.95316243827992,
131,resources/videos_generated\model(vcgpdm)-dataset(walking)-mode(ELBO)-parts(2)-dyn(28)-lvm(17)_final(7).mov,resources/videos_natural\training(7).mov,False,False,right,0,130,130,130,2018-09-17 10:21:37.167164,2018-09-17 10:21:41.087388,0:00:03.920224,3,right,1,0.6174193917559023,25,m,1,3,2018_Sep_17_1007,MP_PerceptionTuring2,59.95316243827992,
132,resources/videos_generated\model(vcgpdm)-dataset(walking)-mode(ELBO)-parts(1)-dyn(23)-lvm(28)_final(6)_hip-corrected.mov,resources/videos_natural\training(22).mov,True,False,right,0,131,131,131,2018-09-17 10:21:42.822487,2018-09-17 10:21:46.775713,0:00:03.953226,3,right,1,0.41726730073060025,25,m,1,3,2018_Sep_17_1007,MP_PerceptionTuring2,59.95316243827992,
133,resources/videos_generated\model(vcgpdm)-dataset(walking)-mode(ELBO)-parts(1)-dyn(25)-lvm(23)_final(0).mov,resources/videos_natural\training(5).mov,True,False,right,0,132,132,132,2018-09-17 10:21:48.309801,2018-09-17 10:21:52.314030,0:00:04.004229,3,right,1,0.8008405664404563,25,m,1,3,2018_Sep_17_1007,MP_PerceptionTuring2,59.95316243827992,
134,resources/videos_generated\model(vcgpdm)-dataset(walking)-mode(ELBO)-parts(1)-dyn(28)-lvm(23)_final(9).mov,resources/videos_natural\training(25).mov,True,True,left,0,133,133,133,2018-09-17 10:21:54.232140,2018-09-17 10:21:58.318374,0:00:04.086234,3,left,1,0.9678139249126616,25,m,1,3,2018_Sep_17_1007,MP_PerceptionTuring2,59.95316243827992,
135,resources/videos_generated\model(vcgpdm)-dataset(walking)-mode(ELBO)-parts(1)-dyn(27)-lvm(22)_final(9).mov,resources/videos_natural\training(13).mov,False,False,right,0,134,134,134,2018-09-17 10:22:00.403493,2018-09-17 10:22:04.323717,0:00:03.920224,3,left,0,0.7175799155511413,25,m,1,3,2018_Sep_17_1007,MP_PerceptionTuring2,59.95316243827992,
136,resources/videos_generated\model(vcgpdm)-dataset(walking)-mode(ELBO)-parts(2)-dyn(25)-lvm(22)_final(3).mov,resources/videos_natural\training(23).mov,True,True,left,0,135,135,135,2018-09-17 10:22:49.329291,2018-09-17 10:22:53.333520,0:00:04.004229,4,left,1,0.18368319288765633,25,m,1,3,2018_Sep_17_1007,MP_PerceptionTuring2,59.95316243827992,
137,resources/videos_generated\model(vcgpdm)-dataset(walking)-mode(ELBO)-parts(1)-dyn(23)-lvm(22)_final(5)_fail.mov,resources/videos_natural\training(48).mov,True,False,right,0,136,136,136,2018-09-17 10:22:54.634595,2018-09-17 10:22:58.570820,0:00:03.936225,4,right,1,0.20036682548379758,25,m,1,3,2018_Sep_17_1007,MP_PerceptionTuring2,59.95316243827992,
138,resources/videos_generated\model(vcgpdm)-dataset(walking)-mode(ELBO)-parts(2)-dyn(23)-lvm(20)_final(7).mov,resources/videos_natural\training(17).mov,False,True,left,0,137,137,137,2018-09-17 10:22:59.888895,2018-09-17 10:23:03.792118,0:00:03.903223,4,left,1,0.3838123949672081,25,m,1,3,2018_Sep_17_1007,MP_PerceptionTuring2,59.95316243827992,
139,resources/videos_generated\model(vcgpdm)-dataset(walking)-mode(ELBO)-parts(2)-dyn(23)-lvm(22)_final(7).mov,resources/videos_natural\training(32).mov,True,True,left,0,138,138,138,2018-09-17 10:23:05.293204,2018-09-17 10:23:09.246430,0:00:03.953226,4,left,1,0.20040597762908874,25,m,1,3,2018_Sep_17_1007,MP_PerceptionTuring2,59.95316243827992,
140,resources/videos_generated\model(vcgpdm)-dataset(walking)-mode(ELBO)-parts(1)-dyn(25)-lvm(22)_final(8).mov,resources/videos_natural\training(18).mov,False,True,left,0,139,139,139,2018-09-17 10:23:10.564506,2018-09-17 10:23:14.534733,0:00:03.970227,4,left,1,0.31724109891092667,25,m,1,3,2018_Sep_17_1007,MP_PerceptionTuring2,59.95316243827992,
141,resources/videos_generated\model(vcgpdm)-dataset(walking)-mode(ELBO)-parts(1)-dyn(26)-lvm(25)_final(5).mov,resources/videos_natural\training(12).mov,True,False,right,0,140,140,140,2018-09-17 10:23:15.968815,2018-09-17 10:23:20.056049,0:00:04.087234,4,right,1,0.3003833898528683,25,m,1,3,2018_Sep_17_1007,MP_PerceptionTuring2,59.95316243827992,
142,resources/videos_generated\model(tmp)-dataset(walking)-numprim(11)_final(0).mov,resources/videos_natural\training(41).mov,True,True,left,0,141,141,141,2018-09-17 10:23:21.474130,2018-09-17 10:23:25.510361,0:00:04.036231,4,left,1,0.4673501225761356,25,m,1,3,2018_Sep_17_1007,MP_PerceptionTuring2,59.95316243827992,
143,resources/videos_generated\model(tmp)-dataset(walking)-numprim(11)_final(8).mov,resources/videos_natural\training(37).mov,False,False,right,0,142,142,142,2018-09-17 10:23:27.095451,2018-09-17 10:23:31.049678,0:00:03.954227,4,left,0,0.31742872803715727,25,m,1,3,2018_Sep_17_1007,MP_PerceptionTuring2,59.95316243827992,
144,resources/videos_generated\model(dmp)-dataset(walking)-npsi(70)_final(4).mov,resources/videos_natural\training(24).mov,False,False,right,0,143,143,143,2018-09-17 10:23:32.483760,2018-09-17 10:23:36.386983,0:00:03.903223,4,left,0,0.28380366102646803,25,m,1,3,2018_Sep_17_1007,MP_PerceptionTuring2,59.95316243827992,
145,resources/videos_generated\model(vcgpdm)-dataset(walking)-mode(ELBO)-parts(2)-dyn(24)-lvm(21)_final(3).mov,resources/videos_natural\training(47).mov,True,False,right,0,144,144,144,2018-09-17 10:23:37.788063,2018-09-17 10:23:41.675285,0:00:03.887222,4,left,0,0.05027225799494772,25,m,1,3,2018_Sep_17_1007,MP_PerceptionTuring2,59.95316243827992,
146,resources/videos_generated\model(vcgpdm)-dataset(walking)-mode(ELBO)-parts(1)-dyn(23)-lvm(24)_final(7).mov,resources/videos_natural\training(4).mov,True,False,right,0,145,145,145,2018-09-17 10:23:42.842352,2018-09-17 10:23:46.762576,0:00:03.920224,4,right,1,0.5506505279518024,25,m,1,3,2018_Sep_17_1007,MP_PerceptionTuring2,59.95316243827992,
147,resources/videos_generated\model(vcgpdm)-dataset(walking)-mode(ELBO)-parts(2)-dyn(22)-lvm(19)_final(1).mov,resources/videos_natural\training(14).mov,False,False,right,0,146,146,146,2018-09-17 10:23:48.430672,2018-09-17 10:23:52.533906,0:00:04.103234,4,right,1,0.11700166848368099,25,m,1,3,2018_Sep_17_1007,MP_PerceptionTuring2,59.95316243827992,
148,resources/videos_generated\model(dmp)-dataset(walking)-npsi(90)_final(4).mov,resources/videos_natural\training(10).mov,False,False,right,0,147,147,147,2018-09-17 10:23:53.768977,2018-09-17 10:23:57.638198,0:00:03.869221,4,left,0,0.23380366102628614,25,m,1,3,2018_Sep_17_1007,MP_PerceptionTuring2,59.95316243827992,
149,resources/videos_generated\model(vcgpdm)-dataset(walking)-mode(ELBO)-parts(1)-dyn(24)-lvm(23)_final(8).mov,resources/videos_natural\training(41).mov,False,False,right,0,148,148,148,2018-09-17 10:23:58.989276,2018-09-17 10:24:02.909500,0:00:03.920224,4,right,1,0.2837916142125323,25,m,1,3,2018_Sep_17_1007,MP_PerceptionTuring2,59.95316243827992,
150,resources/videos_generated\model(vcgpdm)-dataset(walking)-mode(ELBO)-parts(2)-dyn(24)-lvm(19)_final(5).mov,resources/videos_natural\training(38).mov,False,True,left,0,149,149,149,2018-09-17 10:24:04.310580,2018-09-17 10:24:08.430816,0:00:04.120236,4,right,0,0.21710677693499747,25,m,1,3,2018_Sep_17_1007,MP_PerceptionTuring2,59.95316243827992,
151,resources/videos_generated\model(vcgpdm)-dataset(walking)-mode(ELBO)-parts(1)-dyn(24)-lvm(25)_final(4).mov,resources/videos_natural\training(18).mov,True,True,left,0,150,150,150,2018-09-17 10:24:09.765892,2018-09-17 10:24:13.769121,0:00:04.003229,4,left,1,0.23378438612417085,25,m,1,3,2018_Sep_17_1007,MP_PerceptionTuring2,59.95316243827992,
152,resources/videos_generated\model(vcgpdm)-dataset(walking)-mode(ELBO)-parts(2)-dyn(26)-lvm(21)_final(9).mov,resources/videos_natural\training(42).mov,False,False,right,0,151,151,151,2018-09-17 10:24:15.120198,2018-09-17 10:24:19.107426,0:00:03.987228,4,right,1,0.21707184117531142,25,m,1,3,2018_Sep_17_1007,MP_PerceptionTuring2,59.95316243827992,
153,resources/videos_generated\model(dmp)-dataset(walking)-npsi(50)_final(8).mov,resources/videos_natural\training(8).mov,True,True,left,0,152,152,152,2018-09-17 10:24:20.441503,2018-09-17 10:24:24.394729,0:00:03.953226,4,left,1,0.2505917997341385,25,m,1,3,2018_Sep_17_1007,MP_PerceptionTuring2,59.95316243827992,
154,resources/videos_generated\model(dmp)-dataset(walking)-npsi(100)_final(4).mov,resources/videos_natural\training(23).mov,False,True,left,0,153,153,153,2018-09-17 10:24:25.762807,2018-09-17 10:24:29.716033,0:00:03.953226,4,right,0,0.4673368710809882,25,m,1,3,2018_Sep_17_1007,MP_PerceptionTuring2,59.95316243827992,
155,resources/videos_generated\model(vcgpdm)-dataset(walking)-mode(ELBO)-parts(2)-dyn(24)-lvm(19)_final(3).mov,resources/videos_natural\training(17).mov,True,False,right,0,154,154,154,2018-09-17 10:24:31.301124,2018-09-17 10:24:35.388357,0:00:04.087233,4,right,1,0.23374493280880415,25,m,1,3,2018_Sep_17_1007,MP_PerceptionTuring2,59.95316243827992,
156,resources/videos_generated\model(vcgpdm)-dataset(walking)-mode(ELBO)-parts(2)-dyn(26)-lvm(23)_final(3).mov,resources/videos_natural\training(40).mov,False,False,right,0,155,155,155,2018-09-17 10:24:36.739435,2018-09-17 10:24:40.692661,0:00:03.953226,4,right,1,0.06698058655911154,25,m,1,3,2018_Sep_17_1007,MP_PerceptionTuring2,59.95316243827992,
157,resources/videos_generated\model(vcgpdm)-dataset(walking)-mode(ELBO)-parts(2)-dyn(22)-lvm(23)_final(3).mov,resources/videos_natural\training(9).mov,False,True,left,0,156,156,156,2018-09-17 10:24:41.876729,2018-09-17 10:24:45.829955,0:00:03.953226,4,left,1,0.13362325998878077,25,m,1,3,2018_Sep_17_1007,MP_PerceptionTuring2,59.95316243827992,
158,resources/videos_generated\model(vcgpdm)-dataset(walking)-mode(ELBO)-parts(2)-dyn(23)-lvm(20)_final(9).mov,resources/videos_natural\training(17).mov,True,True,left,0,157,157,157,2018-09-17 10:24:47.081026,2018-09-17 10:24:51.084255,0:00:04.003229,4,left,1,0.2504833784087168,25,m,1,3,2018_Sep_17_1007,MP_PerceptionTuring2,59.95316243827992,
159,resources/videos_generated\model(vcgpdm)-dataset(walking)-mode(ELBO)-parts(2)-dyn(26)-lvm(23)_final(9).mov,resources/videos_natural\training(16).mov,True,False,right,0,158,158,158,2018-09-17 10:24:52.452333,2018-09-17 10:24:56.355557,0:00:03.903224,4,right,1,0.16713719513973047,25,m,1,3,2018_Sep_17_1007,MP_PerceptionTuring2,59.95316243827992,
160,resources/videos_generated\model(dmp)-dataset(walking)-npsi(70)_final(6).mov,resources/videos_natural\training(11).mov,False,False,right,0,159,159,159,2018-09-17 10:24:57.640630,2018-09-17 10:25:01.560854,0:00:03.920224,4,right,1,0.23380817858196679,25,m,1,3,2018_Sep_17_1007,MP_PerceptionTuring2,59.95316243827992,
161,resources/videos_generated\model(vcgpdm)-dataset(walking)-mode(ELBO)-parts(2)-dyn(28)-lvm(21)_final(1).mov,resources/videos_natural\training(25).mov,False,False,right,0,160,160,160,2018-09-17 10:25:02.911932,2018-09-17 10:25:06.965164,0:00:04.053232,4,right,1,0.2503885097485181,25,m,1,3,2018_Sep_17_1007,MP_PerceptionTuring2,59.95316243827992,
162,resources/videos_generated\model(vcgpdm)-dataset(walking)-mode(ELBO)-parts(1)-dyn(23)-lvm(28)_final(2).mov,resources/videos_natural\training(4).mov,True,False,right,0,161,161,161,2018-09-17 10:25:08.333242,2018-09-17 10:25:12.253466,0:00:03.920224,4,right,1,0.2172052596388312,25,m,1,3,2018_Sep_17_1007,MP_PerceptionTuring2,59.95316243827992,
163,resources/videos_generated\model(vcgpdm)-dataset(walking)-mode(ELBO)-parts(2)-dyn(26)-lvm(21)_final(3).mov,resources/videos_natural\training(8).mov,False,True,left,0,162,162,162,2018-09-17 10:25:13.587542,2018-09-17 10:25:17.507767,0:00:03.920225,4,left,1,0.2339467169422278,25,m,1,3,2018_Sep_17_1007,MP_PerceptionTuring2,59.95316243827992,
164,resources/videos_generated\model(vcgpdm)-dataset(walking)-mode(ELBO)-parts(1)-dyn(23)-lvm(27)_final(2).mov,resources/videos_natural\training(8).mov,True,False,right,0,163,163,163,2018-09-17 10:25:18.858844,2018-09-17 10:25:22.779068,0:00:03.920224,4,right,1,0.20026292171405657,25,m,1,3,2018_Sep_17_1007,MP_PerceptionTuring2,59.95316243827992,
165,resources/videos_generated\model(vcgpdm)-dataset(walking)-mode(ELBO)-parts(1)-dyn(28)-lvm(27)_final(1).mov,resources/videos_natural\training(37).mov,False,True,left,0,164,164,164,2018-09-17 10:25:24.097143,2018-09-17 10:25:28.150375,0:00:04.053232,4,right,0,0.016836325962685805,25,m,1,3,2018_Sep_17_1007,MP_PerceptionTuring2,59.95316243827992,
166,resources/videos_generated\model(vcgpdm)-dataset(walking)-mode(ELBO)-parts(1)-dyn(26)-lvm(25)_final(7).mov,resources/videos_natural\training(0).mov,False,True,left,0,165,165,165,2018-09-17 10:25:29.284440,2018-09-17 10:25:33.371674,0:00:04.087234,4,left,1,0.31741336834966205,25,m,1,3,2018_Sep_17_1007,MP_PerceptionTuring2,59.95316243827992,
167,resources/videos_generated\model(vcgpdm)-dataset(walking)-mode(ELBO)-parts(1)-dyn(27)-lvm(28)_final(5).mov,resources/videos_natural\training(29).mov,False,False,right,0,166,166,166,2018-09-17 10:25:34.805756,2018-09-17 10:25:38.792984,0:00:03.987228,4,left,0,0.20036050090675417,25,m,1,3,2018_Sep_17_1007,MP_PerceptionTuring2,59.95316243827992,
168,resources/videos_generated\model(vcgpdm)-dataset(walking)-mode(ELBO)-parts(2)-dyn(24)-lvm(23)_final(3).mov,resources/videos_natural\training(16).mov,False,True,left,0,167,167,167,2018-09-17 10:25:40.111059,2018-09-17 10:25:44.030284,0:00:03.919225,4,left,1,0.11695709527248255,25,m,1,3,2018_Sep_17_1007,MP_PerceptionTuring2,59.95316243827992,
169,resources/videos_generated\model(vcgpdm)-dataset(walking)-mode(ELBO)-parts(2)-dyn(22)-lvm(21)_final(7).mov,resources/videos_natural\training(3).mov,True,False,right,0,168,168,168,2018-09-17 10:25:45.265354,2018-09-17 10:25:49.201579,0:00:03.936225,4,right,1,0.23376752058447892,25,m,1,3,2018_Sep_17_1007,MP_PerceptionTuring2,59.95316243827992,
170,resources/videos_generated\model(vcgpdm)-dataset(walking)-mode(ELBO)-parts(1)-dyn(27)-lvm(28)_final(1).mov,resources/videos_natural\training(14).mov,True,True,left,0,169,169,169,2018-09-17 10:25:50.552657,2018-09-17 10:25:54.606889,0:00:04.054232,4,left,1,0.2003454423893345,25,m,1,3,2018_Sep_17_1007,MP_PerceptionTuring2,59.95316243827992,
171,resources/videos_generated\model(vcgpdm)-dataset(walking)-mode(ELBO)-parts(2)-dyn(23)-lvm(20)_final(3).mov,resources/videos_natural\training(5).mov,False,True,left,0,170,170,170,2018-09-17 10:25:55.923964,2018-09-17 10:25:59.961195,0:00:04.037231,4,left,1,0.06698088772918709,25,m,1,3,2018_Sep_17_1007,MP_PerceptionTuring2,59.95316243827992,
172,resources/videos_generated\model(vcgpdm)-dataset(walking)-mode(ELBO)-parts(2)-dyn(25)-lvm(22)_final(5).mov,resources/videos_natural\training(19).mov,False,True,left,0,171,171,171,2018-09-17 10:26:01.145262,2018-09-17 10:26:05.032485,0:00:03.887223,4,left,1,0.2505523464178623,25,m,1,3,2018_Sep_17_1007,MP_PerceptionTuring2,59.95316243827992,
173,resources/videos_generated\model(vcgpdm)-dataset(walking)-mode(ELBO)-parts(1)-dyn(28)-lvm(23)_final(5).mov,resources/videos_natural\training(48).mov,False,False,right,0,172,172,172,2018-09-17 10:26:06.399563,2018-09-17 10:26:10.336788,0:00:03.937225,4,right,1,0.3504339864712165,25,m,1,3,2018_Sep_17_1007,MP_PerceptionTuring2,59.95316243827992,
174,resources/videos_generated\model(vcgpdm)-dataset(walking)-mode(ELBO)-parts(1)-dyn(22)-lvm(25)_final(6).mov,resources/videos_natural\training(31).mov,True,True,left,0,173,173,173,2018-09-17 10:26:11.804872,2018-09-17 10:26:15.741097,0:00:03.936225,4,left,1,0.3005427089674413,25,m,1,3,2018_Sep_17_1007,MP_PerceptionTuring2,59.95316243827992,
175,resources/videos_generated\model(vcgpdm)-dataset(walking)-mode(ELBO)-parts(2)-dyn(24)-lvm(23)_final(1).mov,resources/videos_natural\training(0).mov,False,True,left,0,174,174,174,2018-09-17 10:26:17.160178,2018-09-17 10:26:21.079403,0:00:03.919225,4,left,1,0.11693209813256544,25,m,1,3,2018_Sep_17_1007,MP_PerceptionTuring2,59.95316243827992,
176,resources/videos_generated\model(vcgpdm)-dataset(walking)-mode(ELBO)-parts(1)-dyn(25)-lvm(22)_final(2).mov,resources/videos_natural\training(13).mov,False,False,right,0,175,175,175,2018-09-17 10:26:22.313473,2018-09-17 10:26:26.233697,0:00:03.920224,4,right,1,0.20043037242703576,25,m,1,3,2018_Sep_17_1007,MP_PerceptionTuring2,59.95316243827992,
177,resources/videos_generated\model(vcgpdm)-dataset(walking)-mode(ELBO)-parts(2)-dyn(25)-lvm(20)_final(7).mov,resources/videos_natural\training(45).mov,True,True,left,0,176,176,176,2018-09-17 10:26:27.551773,2018-09-17 10:26:31.522000,0:00:03.970227,4,left,1,0.20039573783742526,25,m,1,3,2018_Sep_17_1007,MP_PerceptionTuring2,59.95316243827992,
178,resources/videos_generated\model(vcgpdm)-dataset(walking)-mode(ELBO)-parts(2)-dyn(28)-lvm(23)_final(5).mov,resources/videos_natural\training(15).mov,False,True,left,0,177,177,177,2018-09-17 10:26:32.839075,2018-09-17 10:26:36.776300,0:00:03.937225,4,left,1,0.20035568218099797,25,m,1,3,2018_Sep_17_1007,MP_PerceptionTuring2,59.95316243827992,
179,resources/videos_generated\model(vcgpdm)-dataset(walking)-mode(ELBO)-parts(2)-dyn(25)-lvm(22)_final(9).mov,resources/videos_natural\training(22).mov,False,False,right,0,178,178,178,2018-09-17 10:26:38.094376,2018-09-17 10:26:42.013600,0:00:03.919224,4,left,0,0.26697847836749133,25,m,1,3,2018_Sep_17_1007,MP_PerceptionTuring2,59.95316243827992,
180,resources/videos_generated\model(vcgpdm)-dataset(walking)-mode(ELBO)-parts(2)-dyn(28)-lvm(21)_final(5).mov,resources/videos_natural\training(2).mov,False,False,right,0,179,179,179,2018-09-17 10:26:43.398679,2018-09-17 10:26:47.301903,0:00:03.903224,4,left,0,0.33395183683842333,25,m,1,3,2018_Sep_17_1007,MP_PerceptionTuring2,59.95316243827992,
181,resources/videos_generated\model(vcgpdm)-dataset(walking)-mode(ELBO)-parts(1)-dyn(23)-lvm(22)_final(3)_fail.mov,resources/videos_natural\training(13).mov,True,False,right,0,180,180,180,2018-09-17 10:27:27.186184,2018-09-17 10:27:31.106408,0:00:03.920224,5,right,1,0.23356904932552425,25,m,1,3,2018_Sep_17_1007,MP_PerceptionTuring2,59.95316243827992,
182,resources/videos_generated\model(vcgpdm)-dataset(walking)-mode(ELBO)-parts(1)-dyn(27)-lvm(26)_final(9).mov,resources/videos_natural\training(47).mov,False,False,right,0,181,181,181,2018-09-17 10:27:32.457485,2018-09-17 10:27:36.561720,0:00:04.104235,5,right,1,0.16705075925074198,25,m,1,3,2018_Sep_17_1007,MP_PerceptionTuring2,59.95316243827992,
183,resources/videos_generated\model(vcgpdm)-dataset(walking)-mode(ELBO)-parts(2)-dyn(28)-lvm(19)_final(7).mov,resources/videos_natural\training(34).mov,False,False,right,0,182,182,182,2018-09-17 10:27:37.845793,2018-09-17 10:27:41.749017,0:00:03.903224,5,left,0,0.18367385660712898,25,m,1,3,2018_Sep_17_1007,MP_PerceptionTuring2,59.95316243827992,
184,resources/videos_generated\model(vcgpdm)-dataset(walking)-mode(ELBO)-parts(2)-dyn(28)-lvm(21)_final(3).mov,resources/videos_natural\training(20).mov,True,True,left,0,183,183,183,2018-09-17 10:27:43.050091,2018-09-17 10:27:47.120324,0:00:04.070233,5,left,1,0.21719381516595604,25,m,1,3,2018_Sep_17_1007,MP_PerceptionTuring2,59.95316243827992,
185,resources/videos_generated\model(vcgpdm)-dataset(walking)-mode(ELBO)-parts(1)-dyn(27)-lvm(22)_final(1).mov,resources/videos_natural\training(48).mov,True,True,left,0,184,184,184,2018-09-17 10:27:48.454400,2018-09-17 10:27:52.341623,0:00:03.887223,5,left,1,0.1836503653203181,25,m,1,3,2018_Sep_17_1007,MP_PerceptionTuring2,59.95316243827992,
186,resources/videos_generated\model(vcgpdm)-dataset(walking)-mode(ELBO)-parts(1)-dyn(28)-lvm(24)_final(2).mov,resources/videos_natural\training(39).mov,False,True,left,0,185,185,185,2018-09-17 10:27:53.642697,2018-09-17 10:27:57.679928,0:00:04.037231,5,left,1,0.03350249067898403,25,m,1,3,2018_Sep_17_1007,MP_PerceptionTuring2,59.95316243827992,
187,resources/videos_generated\model(vcgpdm)-dataset(walking)-mode(ELBO)-parts(1)-dyn(22)-lvm(23)_final(8).mov,resources/videos_natural\training(29).mov,False,True,left,0,186,186,186,2018-09-17 10:27:58.829994,2018-09-17 10:28:02.734217,0:00:03.904223,5,left,1,0.30066558646831254,25,m,1,3,2018_Sep_17_1007,MP_PerceptionTuring2,59.95316243827992,
188,resources/videos_generated\model(vcgpdm)-dataset(walking)-mode(ELBO)-parts(1)-dyn(23)-lvm(28)_final(0).mov,resources/videos_natural\training(40).mov,True,False,right,0,187,187,187,2018-09-17 10:28:04.151298,2018-09-17 10:28:08.071522,0:00:03.920224,5,left,0,0.05029966449637868,25,m,1,3,2018_Sep_17_1007,MP_PerceptionTuring2,59.95316243827992,
189,resources/videos_generated\model(vcgpdm)-dataset(walking)-mode(ELBO)-parts(2)-dyn(23)-lvm(18)_final(1).mov,resources/videos_natural\training(13).mov,False,False,right,0,188,188,188,2018-09-17 10:28:09.239589,2018-09-17 10:28:13.125811,0:00:03.886222,5,right,1,0.1837605936671025,25,m,1,3,2018_Sep_17_1007,MP_PerceptionTuring2,59.95316243827992,
190,resources/videos_generated\model(tmp)-dataset(walking)-numprim(15)_final(6).mov,resources/videos_natural\training(24).mov,False,False,right,0,189,189,189,2018-09-17 10:28:14.426886,2018-09-17 10:28:18.347110,0:00:03.920224,5,left,0,0.28381480432926764,25,m,1,3,2018_Sep_17_1007,MP_PerceptionTuring2,59.95316243827992,
191,resources/videos_generated\model(vcgpdm)-dataset(walking)-mode(ELBO)-parts(2)-dyn(22)-lvm(19)_final(7).mov,resources/videos_natural\training(24).mov,True,False,right,0,190,190,190,2018-09-17 10:28:19.748190,2018-09-17 10:28:23.685415,0:00:03.937225,5,right,1,0.25057493419353705,25,m,1,3,2018_Sep_17_1007,MP_PerceptionTuring2,59.95316243827992,
192,resources/videos_generated\model(vcgpdm)-dataset(walking)-mode(ELBO)-parts(1)-dyn(26)-lvm(27)_final(9).mov,resources/videos_natural\training(32).mov,True,True,left,0,191,191,191,2018-09-17 10:28:25.052494,2018-09-17 10:28:28.956717,0:00:03.904223,5,right,0,0.21697908070746053,25,m,1,3,2018_Sep_17_1007,MP_PerceptionTuring2,59.95316243827992,
193,resources/videos_generated\model(vcgpdm)-dataset(walking)-mode(ELBO)-parts(1)-dyn(28)-lvm(25)_final(3).mov,resources/videos_natural\training(12).mov,True,False,right,0,192,192,192,2018-09-17 10:28:30.290793,2018-09-17 10:28:34.278021,0:00:03.987228,5,right,1,0.28374764334239444,25,m,1,3,2018_Sep_17_1007,MP_PerceptionTuring2,59.95316243827992,
194,resources/videos_generated\model(vcgpdm)-dataset(walking)-mode(ELBO)-parts(2)-dyn(27)-lvm(22)_final(3).mov,resources/videos_natural\training(9).mov,False,False,right,0,193,193,193,2018-09-17 10:28:35.679101,2018-09-17 10:28:39.615326,0:00:03.936225,5,right,1,0.3507122678729502,25,m,1,3,2018_Sep_17_1007,MP_PerceptionTuring2,59.95316243827992,
195,resources/videos_generated\model(vcgpdm)-dataset(walking)-mode(ELBO)-parts(1)-dyn(22)-lvm(22)_final(0).mov,resources/videos_natural\training(9).mov,False,True,left,0,194,194,194,2018-09-17 10:28:41.083410,2018-09-17 10:28:44.970633,0:00:03.887223,5,left,1,0.2672787452038392,25,m,1,3,2018_Sep_17_1007,MP_PerceptionTuring2,59.95316243827992,
196,resources/videos_generated\model(vcgpdm)-dataset(walking)-mode(ELBO)-parts(2)-dyn(24)-lvm(19)_final(7).mov,resources/videos_natural\training(10).mov,False,False,right,0,195,195,195,2018-09-17 10:28:46.354712,2018-09-17 10:28:50.408944,0:00:04.054232,5,left,0,0.25044211807016836,25,m,1,3,2018_Sep_17_1007,MP_PerceptionTuring2,59.95316243827992,
197,resources/videos_generated\model(vcgpdm)-dataset(walking)-mode(ELBO)-parts(1)-dyn(28)-lvm(27)_final(5).mov,resources/videos_natural\training(5).mov,True,True,left,0,196,196,196,2018-09-17 10:28:51.776022,2018-09-17 10:28:55.696246,0:00:03.920224,5,left,1,0.2507402767150779,25,m,1,3,2018_Sep_17_1007,MP_PerceptionTuring2,59.95316243827992,
198,resources/videos_generated\model(tmp)-dataset(walking)-numprim(13)_final(0).mov,resources/videos_natural\training(30).mov,False,True,left,0,197,197,197,2018-09-17 10:28:57.064324,2018-09-17 10:29:01.017551,0:00:03.953227,5,left,1,0.23385245062308968,25,m,1,3,2018_Sep_17_1007,MP_PerceptionTuring2,59.95316243827992,
199,resources/videos_generated\model(vcgpdm)-dataset(walking)-mode(ELBO)-parts(2)-dyn(23)-lvm(18)_final(7).mov,resources/videos_natural\training(47).mov,False,False,right,0,198,198,198,2018-09-17 10:29:02.368628,2018-09-17 10:29:06.288852,0:00:03.920224,5,left,0,0.2671902011215934,25,m,1,3,2018_Sep_17_1007,MP_PerceptionTuring2,59.95316243827992,
200,resources/videos_generated\model(vcgpdm)-dataset(walking)-mode(ELBO)-parts(1)-dyn(25)-lvm(26)_final(4)_fail.mov,resources/videos_natural\training(7).mov,False,False,right,0,199,199,199,2018-09-17 10:29:07.672931,2018-09-17 10:29:11.593155,0:00:03.920224,5,right,1,0.1671380986508666,25,m,1,3,2018_Sep_17_1007,MP_PerceptionTuring2,59.95316243827992,
201,resources/videos_generated\model(dmp)-dataset(walking)-npsi(70)_final(8).mov,resources/videos_natural\training(36).mov,False,True,left,0,200,200,200,2018-09-17 10:29:12.877229,2018-09-17 10:29:16.881458,0:00:04.004229,5,right,0,0.21716701100467617,25,m,1,3,2018_Sep_17_1007,MP_PerceptionTuring2,59.95316243827992,
202,resources/videos_generated\model(vcgpdm)-dataset(walking)-mode(ELBO)-parts(1)-dyn(26)-lvm(23)_final(9).mov,resources/videos_natural\training(22).mov,False,True,left,0,201,201,201,2018-09-17 10:29:18.215534,2018-09-17 10:29:22.118758,0:00:03.903224,5,right,0,0.1671076804459517,25,m,1,3,2018_Sep_17_1007,MP_PerceptionTuring2,59.95316243827992,
203,resources/videos_generated\model(vcgpdm)-dataset(walking)-mode(ELBO)-parts(2)-dyn(24)-lvm(23)_final(9).mov,resources/videos_natural\training(43).mov,True,False,right,0,202,202,202,2018-09-17 10:29:23.403831,2018-09-17 10:29:27.290053,0:00:03.886222,5,right,1,0.0001704624173726188,25,m,1,3,2018_Sep_17_1007,MP_PerceptionTuring2,59.95316243827992,
204,resources/videos_generated\model(vcgpdm)-dataset(walking)-mode(ELBO)-parts(1)-dyn(24)-lvm(27)_final(6).mov,resources/videos_natural\training(9).mov,True,True,left,0,203,203,203,2018-09-17 10:29:28.408117,2018-09-17 10:29:32.278339,0:00:03.870222,5,left,1,0.06703329137053515,25,m,1,3,2018_Sep_17_1007,MP_PerceptionTuring2,59.95316243827992,
205,resources/videos_generated\model(vcgpdm)-dataset(walking)-mode(ELBO)-parts(1)-dyn(22)-lvm(22)_final(8).mov,resources/videos_natural\training(29).mov,True,False,right,0,204,204,204,2018-09-17 10:29:33.462406,2018-09-17 10:29:37.532639,0:00:04.070233,5,right,1,0.28377685686609766,25,m,1,3,2018_Sep_17_1007,MP_PerceptionTuring2,59.95316243827992,
206,resources/videos_generated\model(vcgpdm)-dataset(walking)-mode(ELBO)-parts(1)-dyn(28)-lvm(23)_final(7).mov,resources/videos_natural\training(46).mov,False,True,left,0,205,205,205,2018-09-17 10:29:38.933719,2018-09-17 10:29:42.836943,0:00:03.903224,5,left,1,0.20030629024404334,25,m,1,3,2018_Sep_17_1007,MP_PerceptionTuring2,59.95316243827992,
207,resources/videos_generated\model(dmp)-dataset(walking)-npsi(60)_final(8).mov,resources/videos_natural\training(21).mov,True,True,left,0,206,206,206,2018-09-17 10:29:44.155018,2018-09-17 10:29:48.108244,0:00:03.953226,5,right,0,0.30052313289434096,25,m,1,3,2018_Sep_17_1007,MP_PerceptionTuring2,59.95316243827992,
208,resources/videos_generated\model(vcgpdm)-dataset(walking)-mode(ELBO)-parts(1)-dyn(23)-lvm(26)_final(1)_hip-corrected.mov,resources/videos_natural\training(6).mov,True,False,right,0,207,207,207,2018-09-17 10:29:49.526325,2018-09-17 10:29:53.446549,0:00:03.920224,5,right,1,0.30056800727652444,25,m,1,3,2018_Sep_17_1007,MP_PerceptionTuring2,59.95316243827992,
209,resources/videos_generated\model(vcgpdm)-dataset(walking)-mode(ELBO)-parts(2)-dyn(22)-lvm(19)_final(3).mov,resources/videos_natural\training(14).mov,True,True,left,0,208,208,208,2018-09-17 10:29:54.863630,2018-09-17 10:29:58.800856,0:00:03.937226,5,left,1,0.21704383233191038,25,m,1,3,2018_Sep_17_1007,MP_PerceptionTuring2,59.95316243827992,
210,resources/videos_generated\model(vcgpdm)-dataset(walking)-mode(ELBO)-parts(1)-dyn(25)-lvm(24)_final(3).mov,resources/videos_natural\training(34).mov,False,False,right,0,209,209,209,2018-09-17 10:30:00.134932,2018-09-17 10:30:04.072157,0:00:03.937225,5,left,0,0.0002755708683253033,25,m,1,3,2018_Sep_17_1007,MP_PerceptionTuring2,59.95316243827992,
211,resources/videos_generated\model(vcgpdm)-dataset(walking)-mode(ELBO)-parts(1)-dyn(22)-lvm(25)_final(0).mov,resources/videos_natural\training(2).mov,False,True,left,0,210,210,210,2018-09-17 10:30:05.189221,2018-09-17 10:30:09.143447,0:00:03.954226,5,left,1,0.23385696817877033,25,m,1,3,2018_Sep_17_1007,MP_PerceptionTuring2,59.95316243827992,
212,resources/videos_generated\model(vcgpdm)-dataset(walking)-mode(ELBO)-parts(2)-dyn(22)-lvm(21)_final(3).mov,resources/videos_natural\training(40).mov,False,True,left,0,211,211,211,2018-09-17 10:30:10.494524,2018-09-17 10:30:14.414749,0:00:03.920225,5,left,1,0.3005842704751558,25,m,1,3,2018_Sep_17_1007,MP_PerceptionTuring2,59.95316243827992,
213,resources/videos_generated\model(vcgpdm)-dataset(walking)-mode(ELBO)-parts(2)-dyn(28)-lvm(17)_final(9).mov,resources/videos_natural\training(23).mov,True,True,left,0,212,212,212,2018-09-17 10:30:15.831830,2018-09-17 10:30:19.887062,0:00:04.055232,5,left,1,0.4676946614545159,25,m,1,3,2018_Sep_17_1007,MP_PerceptionTuring2,59.95316243827992,
214,resources/videos_generated\model(vcgpdm)-dataset(walking)-mode(ELBO)-parts(1)-dyn(25)-lvm(26)_final(0).mov,resources/videos_natural\training(17).mov,False,True,left,0,213,213,213,2018-09-17 10:30:21.470152,2018-09-17 10:30:25.540385,0:00:04.070233,5,right,0,0.06695799878343678,25,m,1,3,2018_Sep_17_1007,MP_PerceptionTuring2,59.95316243827992,
215,resources/videos_generated\model(tmp)-dataset(walking)-numprim(13)_final(6).mov,resources/videos_natural\training(4).mov,True,False,right,0,214,214,214,2018-09-17 10:30:26.725453,2018-09-17 10:30:30.628676,0:00:03.903223,5,left,0,0.06714111035398673,25,m,1,3,2018_Sep_17_1007,MP_PerceptionTuring2,59.95316243827992,
216,resources/videos_generated\model(tmp)-dataset(walking)-numprim(14)_final(4).mov,resources/videos_natural\training(1).mov,False,True,left,0,215,215,215,2018-09-17 10:30:31.812744,2018-09-17 10:30:35.715967,0:00:03.903223,5,left,1,0.4505442148183647,25,m,1,3,2018_Sep_17_1007,MP_PerceptionTuring2,59.95316243827992,
217,resources/videos_generated\model(dmp)-dataset(walking)-npsi(50)_final(6).mov,resources/videos_natural\training(13).mov,False,True,left,0,216,216,216,2018-09-17 10:30:37.284057,2018-09-17 10:30:41.404292,0:00:04.120235,5,left,1,0.06682849553362757,25,m,1,3,2018_Sep_17_1007,MP_PerceptionTuring2,59.95316243827992,
218,resources/videos_generated\model(vcgpdm)-dataset(walking)-mode(ELBO)-parts(1)-dyn(22)-lvm(23)_final(6)_fail.mov,resources/videos_natural\training(46).mov,False,False,right,0,217,217,217,2018-09-17 10:30:42.588360,2018-09-17 10:30:46.508584,0:00:03.920224,5,right,1,0.20028129310503573,25,m,1,3,2018_Sep_17_1007,MP_PerceptionTuring2,59.95316243827992,
219,resources/videos_generated\model(vcgpdm)-dataset(walking)-mode(ELBO)-parts(1)-dyn(28)-lvm(27)_final(3).mov,resources/videos_natural\training(4).mov,True,False,right,0,218,218,218,2018-09-17 10:30:47.826660,2018-09-17 10:30:51.779886,0:00:03.953226,5,right,1,0.233647052446031,25,m,1,3,2018_Sep_17_1007,MP_PerceptionTuring2,59.95316243827992,
220,resources/videos_generated\model(vcgpdm)-dataset(walking)-mode(ELBO)-parts(2)-dyn(25)-lvm(18)_final(7).mov,resources/videos_natural\training(44).mov,True,False,right,0,219,219,219,2018-09-17 10:30:53.130963,2018-09-17 10:30:57.168194,0:00:04.037231,5,right,1,0.2171790578186119,25,m,1,3,2018_Sep_17_1007,MP_PerceptionTuring2,59.95316243827992,
221,resources/videos_generated\model(vcgpdm)-dataset(walking)-mode(ELBO)-parts(2)-dyn(26)-lvm(23)_final(1).mov,resources/videos_natural\training(32).mov,True,True,left,0,220,220,220,2018-09-17 10:30:58.502270,2018-09-17 10:31:02.606505,0:00:04.104235,5,left,1,0.20037917346780887,25,m,1,3,2018_Sep_17_1007,MP_PerceptionTuring2,59.95316243827992,
222,resources/videos_generated\model(vcgpdm)-dataset(walking)-mode(ELBO)-parts(1)-dyn(23)-lvm(26)_final(7).mov,resources/videos_natural\training(3).mov,False,False,right,0,221,221,221,2018-09-17 10:31:03.923580,2018-09-17 10:31:07.927809,0:00:04.004229,5,right,1,0.08372023684023588,25,m,1,3,2018_Sep_17_1007,MP_PerceptionTuring2,59.95316243827992,
223,resources/videos_generated\model(vcgpdm)-dataset(walking)-mode(ELBO)-parts(1)-dyn(26)-lvm(25)_final(3).mov,resources/videos_natural\training(33).mov,False,True,left,0,222,222,222,2018-09-17 10:31:09.127878,2018-09-17 10:31:13.065103,0:00:03.937225,5,left,1,0.4676919509211075,25,m,1,3,2018_Sep_17_1007,MP_PerceptionTuring2,59.95316243827992,
224,resources/videos_generated\model(vcgpdm)-dataset(walking)-mode(ELBO)-parts(2)-dyn(25)-lvm(18)_final(5).mov,resources/videos_natural\training(2).mov,False,True,left,0,223,223,223,2018-09-17 10:31:14.649194,2018-09-17 10:31:18.586419,0:00:03.937225,5,left,1,0.11692547238635598,25,m,1,3,2018_Sep_17_1007,MP_PerceptionTuring2,59.95316243827992,
225,resources/videos_generated\model(vcgpdm)-dataset(walking)-mode(ELBO)-parts(2)-dyn(22)-lvm(19)_final(9).mov,resources/videos_natural\training(8).mov,False,False,right,0,224,224,224,2018-09-17 10:31:19.820490,2018-09-17 10:31:23.890722,0:00:04.070232,5,right,1,0.250415313909798,25,m,1,3,2018_Sep_17_1007,MP_PerceptionTuring2,59.95316243827992,
226,resources/videos_generated\model(vcgpdm)-dataset(walking)-mode(ELBO)-parts(2)-dyn(23)-lvm(18)_final(5).mov,resources/videos_natural\training(26).mov,True,False,right,0,225,225,225,2018-09-17 10:31:58.387696,2018-09-17 10:32:02.340922,0:00:03.953226,6,left,0,0.3505917997335928,25,m,1,3,2018_Sep_17_1007,MP_PerceptionTuring2,59.95316243827992,
227,resources/videos_generated\model(vcgpdm)-dataset(walking)-mode(ELBO)-parts(2)-dyn(26)-lvm(19)_final(7).mov,resources/videos_natural\training(43).mov,False,False,right,0,226,226,226,2018-09-17 10:32:03.809006,2018-09-17 10:32:07.712229,0:00:03.903223,6,right,1,0.20035086345524178,25,m,1,3,2018_Sep_17_1007,MP_PerceptionTuring2,59.95316243827992,
228,resources/videos_generated\model(vcgpdm)-dataset(walking)-mode(ELBO)-parts(2)-dyn(28)-lvm(17)_final(3).mov,resources/videos_natural\training(34).mov,False,True,left,0,227,227,227,2018-09-17 10:32:09.030304,2018-09-17 10:32:12.933528,0:00:03.903224,6,left,1,0.167047446376273,25,m,1,3,2018_Sep_17_1007,MP_PerceptionTuring2,59.95316243827992,
229,resources/videos_generated\model(vcgpdm)-dataset(walking)-mode(ELBO)-parts(1)-dyn(22)-lvm(25)_final(2).mov,resources/videos_natural\training(46).mov,False,True,left,0,228,228,228,2018-09-17 10:32:14.217601,2018-09-17 10:32:18.137825,0:00:03.920224,6,left,1,0.2171146073642376,25,m,1,3,2018_Sep_17_1007,MP_PerceptionTuring2,59.95316243827992,
230,resources/videos_generated\model(tmp)-dataset(walking)-numprim(13)_final(8).mov,resources/videos_natural\training(16).mov,False,True,left,0,229,229,229,2018-09-17 10:32:19.471902,2018-09-17 10:32:23.576136,0:00:04.104234,6,right,0,0.21706852830175194,25,m,1,3,2018_Sep_17_1007,MP_PerceptionTuring2,59.95316243827992,
231,resources/videos_generated\model(vcgpdm)-dataset(walking)-mode(ELBO)-parts(2)-dyn(25)-lvm(18)_final(3).mov,resources/videos_natural\training(31).mov,False,True,left,0,230,230,230,2018-09-17 10:32:24.910213,2018-09-17 10:32:28.930443,0:00:04.020230,6,left,1,0.30038037814938434,25,m,1,3,2018_Sep_17_1007,MP_PerceptionTuring2,59.95316243827992,
232,resources/videos_generated\model(vcgpdm)-dataset(walking)-mode(ELBO)-parts(2)-dyn(27)-lvm(20)_final(5).mov,resources/videos_natural\training(14).mov,False,True,left,0,231,231,231,2018-09-17 10:32:30.348524,2018-09-17 10:32:34.268748,0:00:03.920224,6,left,1,0.21707425053773477,25,m,1,3,2018_Sep_17_1007,MP_PerceptionTuring2,59.95316243827992,
233,resources/videos_generated\model(vcgpdm)-dataset(walking)-mode(ELBO)-parts(2)-dyn(26)-lvm(19)_final(1).mov,resources/videos_natural\training(46).mov,True,False,right,0,232,232,232,2018-09-17 10:32:35.602824,2018-09-17 10:32:39.573051,0:00:03.970227,6,right,1,0.0503592962249968,25,m,1,3,2018_Sep_17_1007,MP_PerceptionTuring2,59.95316243827992,
234,resources/videos_generated\model(vcgpdm)-dataset(walking)-mode(ELBO)-parts(1)-dyn(27)-lvm(26)_final(1).mov,resources/videos_natural\training(20).mov,False,False,right,0,233,233,233,2018-09-17 10:32:40.741118,2018-09-17 10:32:44.794350,0:00:04.053232,6,right,1,0.36723326848095894,25,m,1,3,2018_Sep_17_1007,MP_PerceptionTuring2,59.95316243827992,
235,resources/videos_generated\model(vcgpdm)-dataset(walking)-mode(ELBO)-parts(1)-dyn(23)-lvm(22)_final(1)_fail.mov,resources/videos_natural\training(33).mov,True,True,left,0,234,234,234,2018-09-17 10:32:46.279435,2018-09-17 10:32:50.198659,0:00:03.919224,6,left,1,0.2504273607237337,25,m,1,3,2018_Sep_17_1007,MP_PerceptionTuring2,59.95316243827992,
236,resources/videos_generated\model(vcgpdm)-dataset(walking)-mode(ELBO)-parts(2)-dyn(26)-lvm(19)_final(5).mov,resources/videos_natural\training(23).mov,True,False,right,0,235,235,235,2018-09-17 10:32:51.566737,2018-09-17 10:32:55.469961,0:00:03.903224,6,left,0,0.16714351971768338,25,m,1,3,2018_Sep_17_1007,MP_PerceptionTuring2,59.95316243827992,
237,resources/videos_generated\model(vcgpdm)-dataset(walking)-mode(ELBO)-parts(2)-dyn(24)-lvm(23)_final(7).mov,resources/videos_natural\training(17).mov,False,False,right,0,236,236,236,2018-09-17 10:32:56.754034,2018-09-17 10:33:00.691259,0:00:03.937225,6,right,1,0.25042555370146147,25,m,1,3,2018_Sep_17_1007,MP_PerceptionTuring2,59.95316243827992,
238,resources/videos_generated\model(vcgpdm)-dataset(walking)-mode(ELBO)-parts(1)-dyn(25)-lvm(28)_final(0).mov,resources/videos_natural\training(15).mov,False,True,left,0,237,237,237,2018-09-17 10:33:02.059337,2018-09-17 10:33:06.045565,0:00:03.986228,6,left,1,0.20043940753748757,25,m,1,3,2018_Sep_17_1007,MP_PerceptionTuring2,59.95316243827992,
239,resources/videos_generated\model(vcgpdm)-dataset(walking)-mode(ELBO)-parts(1)-dyn(26)-lvm(27)_final(1).mov,resources/videos_natural\training(48).mov,False,False,right,0,238,238,238,2018-09-17 10:33:07.363641,2018-09-17 10:33:11.266864,0:00:03.903223,6,right,1,0.20040838699242158,25,m,1,3,2018_Sep_17_1007,MP_PerceptionTuring2,59.95316243827992,
240,resources/videos_generated\model(vcgpdm)-dataset(walking)-mode(ELBO)-parts(1)-dyn(22)-lvm(22)_final(6).mov,resources/videos_natural\training(25).mov,True,False,right,0,239,239,239,2018-09-17 10:33:12.584939,2018-09-17 10:33:16.555167,0:00:03.970228,6,right,1,0.33386600328867644,25,m,1,3,2018_Sep_17_1007,MP_PerceptionTuring2,59.95316243827992,
241,resources/videos_generated\model(vcgpdm)-dataset(walking)-mode(ELBO)-parts(2)-dyn(25)-lvm(18)_final(1).mov,resources/videos_natural\training(7).mov,True,False,right,0,240,240,240,2018-09-17 10:33:18.006250,2018-09-17 10:33:21.909473,0:00:03.903223,6,left,0,0.23370608183358854,25,m,1,3,2018_Sep_17_1007,MP_PerceptionTuring2,59.95316243827992,
242,resources/videos_generated\model(vcgpdm)-dataset(walking)-mode(ELBO)-parts(2)-dyn(27)-lvm(18)_final(7).mov,resources/videos_natural\training(32).mov,True,False,right,0,241,241,241,2018-09-17 10:33:23.260550,2018-09-17 10:33:27.163773,0:00:03.903223,6,right,1,0.567381745462626,25,m,1,3,2018_Sep_17_1007,MP_PerceptionTuring2,59.95316243827992,
243,resources/videos_generated\model(vcgpdm)-dataset(walking)-mode(ELBO)-parts(2)-dyn(27)-lvm(22)_final(9).mov,resources/videos_natural\training(31).mov,False,True,left,0,242,242,242,2018-09-17 10:33:28.848870,2018-09-17 10:33:32.719091,0:00:03.870221,6,left,1,0.317077262240673,25,m,1,3,2018_Sep_17_1007,MP_PerceptionTuring2,59.95316243827992,
244,resources/videos_generated\model(vcgpdm)-dataset(walking)-mode(ELBO)-parts(2)-dyn(24)-lvm(17)_final(9).mov,resources/videos_natural\training(26).mov,True,False,right,0,243,243,243,2018-09-17 10:33:34.153173,2018-09-17 10:33:38.107399,0:00:03.954226,6,right,1,0.18371150290022342,25,m,1,3,2018_Sep_17_1007,MP_PerceptionTuring2,59.95316243827992,
245,resources/videos_generated\model(tmp)-dataset(walking)-numprim(11)_final(4).mov,resources/videos_natural\training(44).mov,False,False,right,0,244,244,244,2018-09-17 10:33:39.408474,2018-09-17 10:33:43.361700,0:00:03.953226,6,right,1,0.1338166113509942,25,m,1,3,2018_Sep_17_1007,MP_PerceptionTuring2,59.95316243827992,
246,resources/videos_generated\model(vcgpdm)-dataset(walking)-mode(ELBO)-parts(2)-dyn(23)-lvm(18)_final(9).mov,resources/videos_natural\training(1).mov,False,True,left,0,245,245,245,2018-09-17 10:33:44.612771,2018-09-17 10:33:48.582998,0:00:03.970227,6,left,1,0.3671817683516565,25,m,1,3,2018_Sep_17_1007,MP_PerceptionTuring2,59.95316243827992,
247,resources/videos_generated\model(vcgpdm)-dataset(walking)-mode(ELBO)-parts(1)-dyn(24)-lvm(27)_final(4).mov,resources/videos_natural\training(12).mov,False,True,left,0,246,246,246,2018-09-17 10:33:50.067083,2018-09-17 10:33:54.037310,0:00:03.970227,6,left,1,0.23391027533034503,25,m,1,3,2018_Sep_17_1007,MP_PerceptionTuring2,59.95316243827992,
248,resources/videos_generated\model(vcgpdm)-dataset(walking)-mode(ELBO)-parts(2)-dyn(22)-lvm(21)_final(5).mov,resources/videos_natural\training(34).mov,False,True,left,0,247,247,247,2018-09-17 10:33:55.388388,2018-09-17 10:33:59.308612,0:00:03.920224,6,left,1,0.21703178551797464,25,m,1,3,2018_Sep_17_1007,MP_PerceptionTuring2,59.95316243827992,
249,resources/videos_generated\model(tmp)-dataset(walking)-numprim(11)_final(2).mov,resources/videos_natural\training(19).mov,True,False,right,0,248,248,248,2018-09-17 10:34:00.642688,2018-09-17 10:34:04.546911,0:00:03.904223,6,left,0,0.2172447129551074,25,m,1,3,2018_Sep_17_1007,MP_PerceptionTuring2,59.95316243827992,
250,resources/videos_generated\model(vcgpdm)-dataset(walking)-mode(ELBO)-parts(2)-dyn(26)-lvm(19)_final(9).mov,resources/videos_natural\training(0).mov,False,True,left,0,249,249,249,2018-09-17 10:34:05.880988,2018-09-17 10:34:09.968222,0:00:04.087234,6,left,1,0.5006300483682935,25,m,1,3,2018_Sep_17_1007,MP_PerceptionTuring2,59.95316243827992,
251,resources/videos_generated\model(vcgpdm)-dataset(walking)-mode(ELBO)-parts(1)-dyn(26)-lvm(23)_final(7).mov,resources/videos_natural\training(25).mov,True,True,left,0,250,250,250,2018-09-17 10:34:11.586314,2018-09-17 10:34:15.489537,0:00:03.903223,6,left,1,0.2338172136924186,25,m,1,3,2018_Sep_17_1007,MP_PerceptionTuring2,59.95316243827992,
252,resources/videos_generated\model(vcgpdm)-dataset(walking)-mode(ELBO)-parts(1)-dyn(23)-lvm(26)_final(3)_hip-corrected.mov,resources/videos_natural\training(18).mov,True,True,left,0,251,251,251,2018-09-17 10:34:16.840615,2018-09-17 10:34:20.927848,0:00:04.087233,6,left,1,0.21713237641506566,25,m,1,3,2018_Sep_17_1007,MP_PerceptionTuring2,59.95316243827992,
253,resources/videos_generated\model(vcgpdm)-dataset(walking)-mode(ELBO)-parts(2)-dyn(22)-lvm(23)_final(9).mov,resources/videos_natural\training(1).mov,True,True,left,0,252,252,252,2018-09-17 10:34:22.261925,2018-09-17 10:34:26.148147,0:00:03.886222,6,left,1,0.2505171094881007,25,m,1,3,2018_Sep_17_1007,MP_PerceptionTuring2,59.95316243827992,
254,resources/videos_generated\model(vcgpdm)-dataset(walking)-mode(ELBO)-parts(2)-dyn(24)-lvm(21)_final(5).mov,resources/videos_natural\training(21).mov,True,True,left,0,253,253,253,2018-09-17 10:34:27.516225,2018-09-17 10:34:31.403448,0:00:03.887223,6,left,1,0.2171956221882283,25,m,1,3,2018_Sep_17_1007,MP_PerceptionTuring2,59.95316243827992,
255,resources/videos_generated\model(vcgpdm)-dataset(walking)-mode(ELBO)-parts(2)-dyn(28)-lvm(19)_final(9).mov,resources/videos_natural\training(11).mov,False,True,left,0,254,254,254,2018-09-17 10:34:32.737524,2018-09-17 10:34:36.674749,0:00:03.937225,6,left,1,0.20029544811131927,25,m,1,3,2018_Sep_17_1007,MP_PerceptionTuring2,59.95316243827992,
256,resources/videos_generated\model(vcgpdm)-dataset(walking)-mode(ELBO)-parts(2)-dyn(28)-lvm(19)_final(1).mov,resources/videos_natural\training(7).mov,True,True,left,0,255,255,255,2018-09-17 10:34:37.991824,2018-09-17 10:34:41.996053,0:00:04.004229,6,left,1,0.20034092483365384,25,m,1,3,2018_Sep_17_1007,MP_PerceptionTuring2,59.95316243827992,
257,resources/videos_generated\model(tmp)-dataset(walking)-numprim(12)_final(0).mov,resources/videos_natural\training(37).mov,False,True,left,0,256,256,256,2018-09-17 10:34:43.313129,2018-09-17 10:34:47.400363,0:00:04.087234,6,left,1,0.20043398647158028,25,m,1,3,2018_Sep_17_1007,MP_PerceptionTuring2,59.95316243827992,
258,resources/videos_generated\model(vcgpdm)-dataset(walking)-mode(ELBO)-parts(2)-dyn(27)-lvm(18)_final(3).mov,resources/videos_natural\training(35).mov,False,False,right,0,257,257,257,2018-09-17 10:34:48.718438,2018-09-17 10:34:52.621661,0:00:03.903223,6,right,1,0.16706280606467772,25,m,1,3,2018_Sep_17_1007,MP_PerceptionTuring2,59.95316243827992,
259,resources/videos_generated\model(vcgpdm)-dataset(walking)-mode(ELBO)-parts(2)-dyn(22)-lvm(17)_final(7).mov,resources/videos_natural\training(6).mov,False,True,left,0,258,258,258,2018-09-17 10:34:53.905735,2018-09-17 10:34:57.808958,0:00:03.903223,6,right,0,0.08370276896039286,25,m,1,3,2018_Sep_17_1007,MP_PerceptionTuring2,59.95316243827992,
260,resources/videos_generated\model(dmp)-dataset(walking)-npsi(60)_final(0).mov,resources/videos_natural\training(20).mov,True,True,left,0,259,259,259,2018-09-17 10:34:59.010027,2018-09-17 10:35:02.913250,0:00:03.903223,6,right,0,0.21707665990015812,25,m,1,3,2018_Sep_17_1007,MP_PerceptionTuring2,59.95316243827992,
261,resources/videos_generated\model(vcgpdm)-dataset(walking)-mode(ELBO)-parts(1)-dyn(23)-lvm(28)_final(4)_hip-corrected.mov,resources/videos_natural\training(38).mov,True,True,left,0,260,260,260,2018-09-17 10:35:04.248326,2018-09-17 10:35:08.151549,0:00:03.903223,6,left,1,0.317212186557299,25,m,1,3,2018_Sep_17_1007,MP_PerceptionTuring2,59.95316243827992,
262,resources/videos_generated\model(vcgpdm)-dataset(walking)-mode(ELBO)-parts(2)-dyn(28)-lvm(19)_final(5).mov,resources/videos_natural\training(2).mov,False,False,right,0,261,261,261,2018-09-17 10:35:09.585631,2018-09-17 10:35:13.539858,0:00:03.954227,6,right,1,0.11696131165717816,25,m,1,3,2018_Sep_17_1007,MP_PerceptionTuring2,59.95316243827992,
263,resources/videos_generated\model(vcgpdm)-dataset(walking)-mode(ELBO)-parts(1)-dyn(22)-lvm(27)_final(8)_fail.mov,resources/videos_natural\training(20).mov,False,False,right,0,262,262,262,2018-09-17 10:35:14.773928,2018-09-17 10:35:18.694152,0:00:03.920224,6,right,1,0.21711310151204088,25,m,1,3,2018_Sep_17_1007,MP_PerceptionTuring2,59.95316243827992,
264,resources/videos_generated\model(vcgpdm)-dataset(walking)-mode(ELBO)-parts(1)-dyn(26)-lvm(27)_final(7).mov,resources/videos_natural\training(11).mov,True,True,left,0,263,263,263,2018-09-17 10:35:20.028229,2018-09-17 10:35:23.931452,0:00:03.903223,6,left,1,0.0501855209340647,25,m,1,3,2018_Sep_17_1007,MP_PerceptionTuring2,59.95316243827992,
265,resources/videos_generated\model(vcgpdm)-dataset(walking)-mode(ELBO)-parts(1)-dyn(27)-lvm(28)_final(7).mov,resources/videos_natural\training(28).mov,True,True,left,0,264,264,264,2018-09-17 10:35:25.099519,2018-09-17 10:35:29.002742,0:00:03.903223,6,left,1,0.26713297875539865,25,m,1,3,2018_Sep_17_1007,MP_PerceptionTuring2,59.95316243827992,
266,resources/videos_generated\model(tmp)-dataset(walking)-numprim(12)_final(4).mov,resources/videos_natural\training(5).mov,False,True,left,0,265,265,265,2018-09-17 10:35:30.387821,2018-09-17 10:35:34.274044,0:00:03.886223,6,left,1,0.16708238213686855,25,m,1,3,2018_Sep_17_1007,MP_PerceptionTuring2,59.95316243827992,
267,resources/videos_generated\model(dmp)-dataset(walking)-npsi(90)_final(8).mov,resources/videos_natural\training(12).mov,False,False,right,0,266,266,266,2018-09-17 10:35:35.558117,2018-09-17 10:35:39.462340,0:00:03.904223,6,right,1,0.08378348261339852,25,m,1,3,2018_Sep_17_1007,MP_PerceptionTuring2,59.95316243827992,
268,resources/videos_generated\model(vcgpdm)-dataset(walking)-mode(ELBO)-parts(1)-dyn(25)-lvm(26)_final(2).mov,resources/videos_natural\training(39).mov,True,True,left,0,267,267,267,2018-09-17 10:35:40.663409,2018-09-17 10:35:44.582633,0:00:03.919224,6,right,0,0.483941295875411,25,m,1,3,2018_Sep_17_1007,MP_PerceptionTuring2,59.95316243827992,
269,resources/videos_generated\model(vcgpdm)-dataset(walking)-mode(ELBO)-parts(2)-dyn(27)-lvm(18)_final(1).mov,resources/videos_natural\training(8).mov,False,False,right,0,268,268,268,2018-09-17 10:35:46.184725,2018-09-17 10:35:50.087948,0:00:03.903223,6,right,1,0.3338157078405857,25,m,1,3,2018_Sep_17_1007,MP_PerceptionTuring2,59.95316243827992,
270,resources/videos_generated\model(vcgpdm)-dataset(walking)-mode(ELBO)-parts(1)-dyn(22)-lvm(28)_final(7).mov,resources/videos_natural\training(9).mov,True,False,right,0,269,269,269,2018-09-17 10:35:51.539031,2018-09-17 10:35:55.642266,0:00:04.103235,6,right,1,0.18367235075493227,25,m,1,3,2018_Sep_17_1007,MP_PerceptionTuring2,59.95316243827992,
271,resources/videos_generated\model(vcgpdm)-dataset(walking)-mode(ELBO)-parts(1)-dyn(27)-lvm(26)_final(3).mov,resources/videos_natural\training(3).mov,False,True,left,0,270,270,270,2018-09-17 10:36:29.388196,2018-09-17 10:36:33.291419,0:00:03.903223,7,left,1,0.3339162987376767,25,m,1,3,2018_Sep_17_1007,MP_PerceptionTuring2,59.95316243827992,
272,resources/videos_generated\model(dmp)-dataset(walking)-npsi(50)_final(2).mov,resources/videos_natural\training(24).mov,True,True,left,0,271,271,271,2018-09-17 10:36:34.742502,2018-09-17 10:36:38.729730,0:00:03.987228,7,left,1,0.25041290454737464,25,m,1,3,2018_Sep_17_1007,MP_PerceptionTuring2,59.95316243827992,
273,resources/videos_generated\model(vcgpdm)-dataset(walking)-mode(ELBO)-parts(2)-dyn(27)-lvm(18)_final(9).mov,resources/videos_natural\training(2).mov,False,True,left,0,272,272,272,2018-09-17 10:36:40.097808,2018-09-17 10:36:44.018033,0:00:03.920225,7,left,1,0.21711008980946644,25,m,1,3,2018_Sep_17_1007,MP_PerceptionTuring2,59.95316243827992,
274,resources/videos_generated\model(vcgpdm)-dataset(walking)-mode(ELBO)-parts(2)-dyn(28)-lvm(23)_final(7).mov,resources/videos_natural\training(6).mov,True,True,left,0,273,273,273,2018-09-17 10:36:45.352109,2018-09-17 10:36:49.255332,0:00:03.903223,7,left,1,0.20045446605581674,25,m,1,3,2018_Sep_17_1007,MP_PerceptionTuring2,59.95316243827992,
275,resources/videos_generated\model(vcgpdm)-dataset(walking)-mode(ELBO)-parts(2)-dyn(24)-lvm(17)_final(1).mov,resources/videos_natural\training(43).mov,False,True,left,0,274,274,274,2018-09-17 10:36:50.573408,2018-09-17 10:36:54.593638,0:00:04.020230,7,left,1,0.21725404923472524,25,m,1,3,2018_Sep_17_1007,MP_PerceptionTuring2,59.95316243827992,
276,resources/videos_generated\model(vcgpdm)-dataset(walking)-mode(ELBO)-parts(1)-dyn(22)-lvm(23)_final(2).mov,resources/videos_natural\training(33).mov,True,True,left,0,275,275,275,2018-09-17 10:36:55.927714,2018-09-17 10:37:00.014948,0:00:04.087234,7,left,1,0.21708840554401831,25,m,1,3,2018_Sep_17_1007,MP_PerceptionTuring2,59.95316243827992,
277,resources/videos_generated\model(vcgpdm)-dataset(walking)-mode(ELBO)-parts(2)-dyn(24)-lvm(19)_final(1).mov,resources/videos_natural\training(20).mov,True,False,right,0,276,276,276,2018-09-17 10:37:01.349024,2018-09-17 10:37:05.269248,0:00:03.920224,7,right,1,0.6006661888104645,25,m,1,3,2018_Sep_17_1007,MP_PerceptionTuring2,59.95316243827992,
278,resources/videos_generated\model(vcgpdm)-dataset(walking)-mode(ELBO)-parts(2)-dyn(23)-lvm(20)_final(5).mov,resources/videos_natural\training(39).mov,False,False,right,0,277,277,277,2018-09-17 10:37:06.987346,2018-09-17 10:37:11.091581,0:00:04.104235,7,right,1,0.2005890892005482,25,m,1,3,2018_Sep_17_1007,MP_PerceptionTuring2,59.95316243827992,
279,resources/videos_generated\model(vcgpdm)-dataset(walking)-mode(ELBO)-parts(2)-dyn(27)-lvm(20)_final(9).mov,resources/videos_natural\training(24).mov,True,False,right,0,278,278,278,2018-09-17 10:37:12.408657,2018-09-17 10:37:16.312880,0:00:03.904223,7,left,0,0.1837895060198207,25,m,1,3,2018_Sep_17_1007,MP_PerceptionTuring2,59.95316243827992,
280,resources/videos_generated\model(vcgpdm)-dataset(walking)-mode(ELBO)-parts(2)-dyn(22)-lvm(23)_final(1).mov,resources/videos_natural\training(19).mov,False,False,right,0,279,279,279,2018-09-17 10:37:17.612954,2018-09-17 10:37:21.533178,0:00:03.920224,7,right,1,0.0836594004304061,25,m,1,3,2018_Sep_17_1007,MP_PerceptionTuring2,59.95316243827992,
281,resources/videos_generated\model(dmp)-dataset(walking)-npsi(60)_final(6).mov,resources/videos_natural\training(4).mov,False,False,right,0,280,280,280,2018-09-17 10:37:22.734247,2018-09-17 10:37:26.621469,0:00:03.887222,7,right,1,0.1670655165971766,25,m,1,3,2018_Sep_17_1007,MP_PerceptionTuring2,59.95316243827992,
282,resources/videos_generated\model(vcgpdm)-dataset(walking)-mode(ELBO)-parts(2)-dyn(26)-lvm(21)_final(1).mov,resources/videos_natural\training(16).mov,True,False,right,0,281,281,281,2018-09-17 10:37:27.905543,2018-09-17 10:37:31.858769,0:00:03.953226,7,right,1,0.08367415777775022,25,m,1,3,2018_Sep_17_1007,MP_PerceptionTuring2,59.95316243827992,
283,resources/videos_generated\model(vcgpdm)-dataset(walking)-mode(ELBO)-parts(1)-dyn(25)-lvm(24)_final(9).mov,resources/videos_natural\training(36).mov,True,False,right,0,282,282,282,2018-09-17 10:37:33.059838,2018-09-17 10:37:36.980062,0:00:03.920224,7,right,1,0.2338283569952182,25,m,1,3,2018_Sep_17_1007,MP_PerceptionTuring2,59.95316243827992,
284,resources/videos_generated\model(vcgpdm)-dataset(walking)-mode(ELBO)-parts(2)-dyn(24)-lvm(21)_final(7).mov,resources/videos_natural\training(38).mov,False,True,left,0,283,283,283,2018-09-17 10:37:38.331139,2018-09-17 10:37:42.251363,0:00:03.920224,7,left,1,0.21691703961550957,25,m,1,3,2018_Sep_17_1007,MP_PerceptionTuring2,59.95316243827992,
285,resources/videos_generated\model(vcgpdm)-dataset(walking)-mode(ELBO)-parts(2)-dyn(27)-lvm(20)_final(3).mov,resources/videos_natural\training(5).mov,False,False,right,0,284,284,284,2018-09-17 10:37:43.585440,2018-09-17 10:37:47.489663,0:00:03.904223,7,right,1,0.15038248634118645,25,m,1,3,2018_Sep_17_1007,MP_PerceptionTuring2,59.95316243827992,
286,resources/videos_generated\model(vcgpdm)-dataset(walking)-mode(ELBO)-parts(2)-dyn(22)-lvm(23)_final(7).mov,resources/videos_natural\training(44).mov,True,False,right,0,285,285,285,2018-09-17 10:37:48.756736,2018-09-17 10:37:52.693961,0:00:03.937225,7,left,0,0.4506363729460645,25,m,1,3,2018_Sep_17_1007,MP_PerceptionTuring2,59.95316243827992,
287,resources/videos_generated\model(vcgpdm)-dataset(walking)-mode(ELBO)-parts(1)-dyn(25)-lvm(25)_final(2).mov,resources/videos_natural\training(16).mov,False,False,right,0,286,286,286,2018-09-17 10:37:54.262050,2018-09-17 10:37:58.198276,0:00:03.936226,7,right,1,0.2837964329382885,25,m,1,3,2018_Sep_17_1007,MP_PerceptionTuring2,59.95316243827992,
288,resources/videos_generated\model(vcgpdm)-dataset(walking)-mode(ELBO)-parts(1)-dyn(27)-lvm(24)_final(1).mov,resources/videos_natural\training(39).mov,False,False,right,0,287,287,287,2018-09-17 10:37:59.599356,2018-09-17 10:38:03.486578,0:00:03.887222,7,right,1,0.45054602184063697,25,m,1,3,2018_Sep_17_1007,MP_PerceptionTuring2,59.95316243827992,
289,resources/videos_generated\model(vcgpdm)-dataset(walking)-mode(ELBO)-parts(2)-dyn(25)-lvm(20)_final(9).mov,resources/videos_natural\training(10).mov,True,True,left,0,288,288,288,2018-09-17 10:38:05.054668,2018-09-17 10:38:08.957891,0:00:03.903223,7,right,0,0.2337473421712275,25,m,1,3,2018_Sep_17_1007,MP_PerceptionTuring2,59.95316243827992,
290,resources/videos_generated\model(tmp)-dataset(walking)-numprim(12)_final(8).mov,resources/videos_natural\training(3).mov,False,True,left,0,289,289,289,2018-09-17 10:38:10.308968,2018-09-17 10:38:14.196191,0:00:03.887223,7,left,1,0.28372204386232625,25,m,1,3,2018_Sep_17_1007,MP_PerceptionTuring2,59.95316243827992,
291,resources/videos_generated\model(vcgpdm)-dataset(walking)-mode(ELBO)-parts(1)-dyn(28)-lvm(24)_final(7).mov,resources/videos_natural\training(39).mov,False,False,right,0,290,290,290,2018-09-17 10:38:15.597271,2018-09-17 10:38:19.517495,0:00:03.920224,7,left,0,0.2504204338056297,25,m,1,3,2018_Sep_17_1007,MP_PerceptionTuring2,59.95316243827992,
