n_trial,mov_file_generated,mov_file_natural,mirrored,switch_stim_pos,correct_answer,trials.thisRepN,trials.thisTrialN,trials.thisN,trials.thisIndex,stimulus_onset,stimulus_off,stimulus_length,block,response.keys,response.corr,response.rt,age,gender,condition,participant,date,expName,frameRate,
1,resources/videos_generated\model(vcgpdm)-dataset(walking)-mode(ELBO)-parts(2)-dyn(22)-lvm(17)_final(6).mov,resources/videos_natural\training(16).mov,True,False,right,0,0,0,0,2018-09-17 11:22:27.226957,2018-09-17 11:22:31.897224,0:00:04.670267,1,right,1,0.41719831066552615,31,m,2,4,2018_Sep_17_1121,MP_PerceptionTuring2,59.94784021666371,
2,resources/videos_generated\model(vcgpdm)-dataset(walking)-mode(ELBO)-parts(2)-dyn(22)-lvm(21)_final(4).mov,resources/videos_natural\training(39).mov,True,True,left,0,1,1,1,2018-09-17 11:22:33.432312,2018-09-17 11:22:37.352536,0:00:03.920224,1,left,1,0.150447797694369,31,m,2,4,2018_Sep_17_1121,MP_PerceptionTuring2,59.94784021666371,
3,resources/videos_generated\model(vcgpdm)-dataset(walking)-mode(ELBO)-parts(2)-dyn(24)-lvm(23)_final(8).mov,resources/videos_natural\training(26).mov,True,False,right,0,2,2,2,2018-09-17 11:22:38.619608,2018-09-17 11:22:42.522832,0:00:03.903224,1,right,1,0.3839094604471711,31,m,2,4,2018_Sep_17_1121,MP_PerceptionTuring2,59.94784021666371,
4,resources/videos_generated\model(vcgpdm)-dataset(walking)-mode(ELBO)-parts(2)-dyn(27)-lvm(20)_final(6).mov,resources/videos_natural\training(27).mov,False,False,right,0,3,3,3,2018-09-17 11:22:44.024918,2018-09-17 11:22:47.995145,0:00:03.970227,1,right,1,0.8175580908219899,31,m,2,4,2018_Sep_17_1121,MP_PerceptionTuring2,59.94784021666371,
5,resources/videos_generated\model(tmp)-dataset(walking)-numprim(14)_final(9).mov,resources/videos_natural\training(48).mov,True,True,left,0,4,4,4,2018-09-17 11:22:49.929255,2018-09-17 11:22:54.033490,0:00:04.104235,1,right,0,0.3005064810723752,31,m,2,4,2018_Sep_17_1121,MP_PerceptionTuring2,59.94784021666371,
6,resources/videos_generated\model(dmp)-dataset(walking)-npsi(80)_final(9).mov,resources/videos_natural\training(27).mov,True,True,left,0,5,5,5,2018-09-17 11:22:55.451571,2018-09-17 11:22:59.354794,0:00:03.903223,1,right,0,0.3505417031460638,31,m,2,4,2018_Sep_17_1121,MP_PerceptionTuring2,59.94784021666371,
7,resources/videos_generated\model(vcgpdm)-dataset(walking)-mode(ELBO)-parts(2)-dyn(25)-lvm(18)_final(2).mov,resources/videos_natural\training(33).mov,True,False,right,0,6,6,6,2018-09-17 11:23:00.822878,2018-09-17 11:23:04.726102,0:00:03.903224,1,right,1,0.30046823221925933,31,m,2,4,2018_Sep_17_1121,MP_PerceptionTuring2,59.94784021666371,
8,resources/videos_generated\model(vcgpdm)-dataset(walking)-mode(ELBO)-parts(1)-dyn(27)-lvm(26)_final(2).mov,resources/videos_natural\training(46).mov,True,False,right,0,7,7,7,2018-09-17 11:23:06.144183,2018-09-17 11:23:10.063407,0:00:03.919224,1,right,1,0.28380769440423137,31,m,2,4,2018_Sep_17_1121,MP_PerceptionTuring2,59.94784021666371,
9,resources/videos_generated\model(vcgpdm)-dataset(walking)-mode(ELBO)-parts(1)-dyn(28)-lvm(23)_final(4)_fail.mov,resources/videos_natural\training(19).mov,True,True,left,0,8,8,8,2018-09-17 11:23:11.465487,2018-09-17 11:23:15.368710,0:00:03.903223,1,left,1,0.3173419998609006,31,m,2,4,2018_Sep_17_1121,MP_PerceptionTuring2,59.94784021666371,
10,resources/videos_generated\model(vcgpdm)-dataset(walking)-mode(ELBO)-parts(2)-dyn(24)-lvm(17)_final(2).mov,resources/videos_natural\training(35).mov,True,True,left,0,9,9,9,2018-09-17 11:23:16.802792,2018-09-17 11:23:20.873025,0:00:04.070233,1,left,1,0.3337603953305006,31,m,2,4,2018_Sep_17_1121,MP_PerceptionTuring2,59.94784021666371,
11,resources/videos_generated\model(vcgpdm)-dataset(walking)-mode(ELBO)-parts(1)-dyn(25)-lvm(22)_final(5).mov,resources/videos_natural\training(33).mov,False,False,right,0,10,10,10,2018-09-17 11:23:22.324108,2018-09-17 11:23:26.244332,0:00:03.920224,1,right,1,0.28364445914166936,31,m,2,4,2018_Sep_17_1121,MP_PerceptionTuring2,59.94784021666371,
12,resources/videos_generated\model(vcgpdm)-dataset(walking)-mode(ELBO)-parts(2)-dyn(22)-lvm(21)_final(0).mov,resources/videos_natural\training(31).mov,False,False,right,0,11,11,11,2018-09-17 11:23:27.645412,2018-09-17 11:23:31.565637,0:00:03.920225,1,right,1,0.300507083416619,31,m,2,4,2018_Sep_17_1121,MP_PerceptionTuring2,59.94784021666371,
13,resources/videos_generated\model(vcgpdm)-dataset(walking)-mode(ELBO)-parts(2)-dyn(28)-lvm(17)_final(2).mov,resources/videos_natural\training(4).mov,True,True,left,0,12,12,12,2018-09-17 11:23:32.983718,2018-09-17 11:23:36.869940,0:00:03.886222,1,left,1,0.3172968240502314,31,m,2,4,2018_Sep_17_1121,MP_PerceptionTuring2,59.94784021666371,
14,resources/videos_generated\model(vcgpdm)-dataset(walking)-mode(ELBO)-parts(1)-dyn(26)-lvm(25)_final(2).mov,resources/videos_natural\training(24).mov,True,True,left,0,13,13,13,2018-09-17 11:23:38.305022,2018-09-17 11:23:42.208245,0:00:03.903223,1,left,1,0.4007597366672826,31,m,2,4,2018_Sep_17_1121,MP_PerceptionTuring2,59.94784021666371,
15,resources/videos_generated\model(tmp)-dataset(walking)-numprim(12)_final(1).mov,resources/videos_natural\training(27).mov,False,True,left,0,14,14,14,2018-09-17 11:23:43.726332,2018-09-17 11:23:47.629556,0:00:03.903224,1,right,0,0.267223051951305,31,m,2,4,2018_Sep_17_1121,MP_PerceptionTuring2,59.94784021666371,
16,resources/videos_generated\model(dmp)-dataset(walking)-npsi(90)_final(3).mov,resources/videos_natural\training(22).mov,False,False,right,0,15,15,15,2018-09-17 11:23:49.013635,2018-09-17 11:23:53.100868,0:00:04.087233,1,right,1,0.384233521596002,31,m,2,4,2018_Sep_17_1121,MP_PerceptionTuring2,59.94784021666371,
17,resources/videos_generated\model(vcgpdm)-dataset(walking)-mode(ELBO)-parts(2)-dyn(25)-lvm(18)_final(4).mov,resources/videos_natural\training(33).mov,True,True,left,0,16,16,16,2018-09-17 11:23:54.601954,2018-09-17 11:23:58.505178,0:00:03.903224,1,left,1,1.184753404825642,31,m,2,4,2018_Sep_17_1121,MP_PerceptionTuring2,59.94784021666371,
18,resources/videos_generated\model(tmp)-dataset(walking)-numprim(14)_final(5).mov,resources/videos_natural\training(32).mov,False,True,left,0,17,17,17,2018-09-17 11:24:00.807309,2018-09-17 11:24:04.877542,0:00:04.070233,1,right,0,0.3338844782239221,31,m,2,4,2018_Sep_17_1121,MP_PerceptionTuring2,59.94784021666371,
19,resources/videos_generated\model(vcgpdm)-dataset(walking)-mode(ELBO)-parts(2)-dyn(27)-lvm(18)_final(8).mov,resources/videos_natural\training(25).mov,True,True,left,0,18,18,18,2018-09-17 11:24:06.328625,2018-09-17 11:24:10.332854,0:00:04.004229,1,left,1,0.26702367604002575,31,m,2,4,2018_Sep_17_1121,MP_PerceptionTuring2,59.94784021666371,
20,resources/videos_generated\model(tmp)-dataset(walking)-numprim(14)_final(1).mov,resources/videos_natural\training(26).mov,True,False,right,0,19,19,19,2018-09-17 11:24:11.716933,2018-09-17 11:24:15.637157,0:00:03.920224,1,left,0,0.2672113062404833,31,m,2,4,2018_Sep_17_1121,MP_PerceptionTuring2,59.94784021666371,
21,resources/videos_generated\model(vcgpdm)-dataset(walking)-mode(ELBO)-parts(1)-dyn(23)-lvm(24)_final(6).mov,resources/videos_natural\training(4).mov,True,False,right,0,20,20,20,2018-09-17 11:24:17.021237,2018-09-17 11:24:20.958462,0:00:03.937225,1,right,1,0.26719775349738484,31,m,2,4,2018_Sep_17_1121,MP_PerceptionTuring2,59.94784021666371,
22,resources/videos_generated\model(vcgpdm)-dataset(walking)-mode(ELBO)-parts(1)-dyn(22)-lvm(27)_final(5)_fail.mov,resources/videos_natural\training(41).mov,False,True,left,0,21,21,21,2018-09-17 11:24:22.342541,2018-09-17 11:24:26.429775,0:00:04.087234,1,left,1,0.3340974068782998,31,m,2,4,2018_Sep_17_1121,MP_PerceptionTuring2,59.94784021666371,
23,resources/videos_generated\model(vcgpdm)-dataset(walking)-mode(ELBO)-parts(1)-dyn(23)-lvm(24)_final(2).mov,resources/videos_natural\training(22).mov,False,True,left,0,22,22,22,2018-09-17 11:24:27.880858,2018-09-17 11:24:31.818083,0:00:03.937225,1,left,1,0.25051101371207096,31,m,2,4,2018_Sep_17_1121,MP_PerceptionTuring2,59.94784021666371,
24,resources/videos_generated\model(vcgpdm)-dataset(walking)-mode(ELBO)-parts(1)-dyn(25)-lvm(26)_final(3)_fail.mov,resources/videos_natural\training(14).mov,True,True,left,0,23,23,23,2018-09-17 11:24:33.185161,2018-09-17 11:24:37.255394,0:00:04.070233,1,left,1,0.4005446998082789,31,m,2,4,2018_Sep_17_1121,MP_PerceptionTuring2,59.94784021666371,
25,resources/videos_generated\model(vcgpdm)-dataset(walking)-mode(ELBO)-parts(2)-dyn(22)-lvm(21)_final(6).mov,resources/videos_natural\training(6).mov,False,True,left,0,24,24,24,2018-09-17 11:24:38.773481,2018-09-17 11:24:42.843714,0:00:04.070233,1,left,1,0.46727690151760726,31,m,2,4,2018_Sep_17_1121,MP_PerceptionTuring2,59.94784021666371,
26,resources/videos_generated\model(vcgpdm)-dataset(walking)-mode(ELBO)-parts(1)-dyn(23)-lvm(28)_final(9).mov,resources/videos_natural\training(29).mov,False,False,right,0,25,25,25,2018-09-17 11:24:44.428804,2018-09-17 11:24:48.532039,0:00:04.103235,1,left,0,0.4173196830104189,31,m,2,4,2018_Sep_17_1121,MP_PerceptionTuring2,59.94784021666371,
27,resources/videos_generated\model(vcgpdm)-dataset(walking)-mode(ELBO)-parts(2)-dyn(26)-lvm(21)_final(4).mov,resources/videos_natural\training(25).mov,False,False,right,0,26,26,26,2018-09-17 11:24:50.067127,2018-09-17 11:24:53.987351,0:00:03.920224,1,left,0,0.36763382053948135,31,m,2,4,2018_Sep_17_1121,MP_PerceptionTuring2,59.94784021666371,
28,resources/videos_generated\model(vcgpdm)-dataset(walking)-mode(ELBO)-parts(1)-dyn(23)-lvm(26)_final(2).mov,resources/videos_natural\training(21).mov,False,False,right,0,27,27,27,2018-09-17 11:24:55.471436,2018-09-17 11:24:59.558670,0:00:04.087234,1,left,0,0.3837525497980323,31,m,2,4,2018_Sep_17_1121,MP_PerceptionTuring2,59.94784021666371,
29,resources/videos_generated\model(vcgpdm)-dataset(walking)-mode(ELBO)-parts(1)-dyn(28)-lvm(25)_final(2).mov,resources/videos_natural\training(19).mov,True,True,left,0,28,28,28,2018-09-17 11:25:01.059755,2018-09-17 11:25:04.962979,0:00:03.903224,1,right,0,1.0011727640459185,31,m,2,4,2018_Sep_17_1121,MP_PerceptionTuring2,59.94784021666371,
30,resources/videos_generated\model(vcgpdm)-dataset(walking)-mode(ELBO)-parts(2)-dyn(27)-lvm(22)_final(4).mov,resources/videos_natural\training(34).mov,True,True,left,0,29,29,29,2018-09-17 11:25:07.081100,2018-09-17 11:25:11.185335,0:00:04.104235,1,left,1,0.3341365592476677,31,m,2,4,2018_Sep_17_1121,MP_PerceptionTuring2,59.94784021666371,
31,resources/videos_generated\model(vcgpdm)-dataset(walking)-mode(ELBO)-parts(1)-dyn(25)-lvm(22)_final(3).mov,resources/videos_natural\training(40).mov,True,False,right,0,30,30,30,2018-09-17 11:25:12.636418,2018-09-17 11:25:16.706650,0:00:04.070232,1,right,1,0.3672182030809381,31,m,2,4,2018_Sep_17_1121,MP_PerceptionTuring2,59.94784021666371,
32,resources/videos_generated\model(vcgpdm)-dataset(walking)-mode(ELBO)-parts(2)-dyn(28)-lvm(23)_final(0).mov,resources/videos_natural\training(7).mov,False,True,left,0,31,31,31,2018-09-17 11:25:18.190735,2018-09-17 11:25:22.277969,0:00:04.087234,1,right,0,0.2505959442362382,31,m,2,4,2018_Sep_17_1121,MP_PerceptionTuring2,59.94784021666371,
33,resources/videos_generated\model(vcgpdm)-dataset(walking)-mode(ELBO)-parts(2)-dyn(25)-lvm(22)_final(2).mov,resources/videos_natural\training(13).mov,True,False,right,0,32,32,32,2018-09-17 11:25:23.646047,2018-09-17 11:25:27.699279,0:00:04.053232,1,right,1,0.6008316565578298,31,m,2,4,2018_Sep_17_1121,MP_PerceptionTuring2,59.94784021666371,
34,resources/videos_generated\model(vcgpdm)-dataset(walking)-mode(ELBO)-parts(2)-dyn(26)-lvm(19)_final(0).mov,resources/videos_natural\training(35).mov,False,False,right,0,33,33,33,2018-09-17 11:25:29.417377,2018-09-17 11:25:33.337602,0:00:03.920225,1,right,1,0.4172443899925611,31,m,2,4,2018_Sep_17_1121,MP_PerceptionTuring2,59.94784021666371,
35,resources/videos_generated\model(vcgpdm)-dataset(walking)-mode(ELBO)-parts(2)-dyn(27)-lvm(18)_final(2).mov,resources/videos_natural\training(17).mov,False,False,right,0,34,34,34,2018-09-17 11:25:34.872689,2018-09-17 11:25:38.958923,0:00:04.086234,1,right,1,0.4672199799961163,31,m,2,4,2018_Sep_17_1121,MP_PerceptionTuring2,59.94784021666371,
36,resources/videos_generated\model(tmp)-dataset(walking)-numprim(11)_final(1).mov,resources/videos_natural\training(17).mov,False,True,left,0,35,35,35,2018-09-17 11:25:40.544014,2018-09-17 11:25:44.480239,0:00:03.936225,1,right,0,0.40056307130464575,31,m,2,4,2018_Sep_17_1121,MP_PerceptionTuring2,59.94784021666371,
37,resources/videos_generated\model(vcgpdm)-dataset(walking)-mode(ELBO)-parts(2)-dyn(28)-lvm(21)_final(4).mov,resources/videos_natural\training(13).mov,True,True,left,0,36,36,36,2018-09-17 11:25:45.998326,2018-09-17 11:25:49.935551,0:00:03.937225,1,left,1,0.31745162649474423,31,m,2,4,2018_Sep_17_1121,MP_PerceptionTuring2,59.94784021666371,
38,resources/videos_generated\model(vcgpdm)-dataset(walking)-mode(ELBO)-parts(2)-dyn(28)-lvm(23)_final(2).mov,resources/videos_natural\training(32).mov,True,True,left,0,37,37,37,2018-09-17 11:25:51.369633,2018-09-17 11:25:55.289857,0:00:03.920224,1,right,0,0.35214695028639653,31,m,2,4,2018_Sep_17_1121,MP_PerceptionTuring2,59.94784021666371,
39,resources/videos_generated\model(vcgpdm)-dataset(walking)-mode(ELBO)-parts(2)-dyn(28)-lvm(23)_final(4)_fail.mov,resources/videos_natural\training(26).mov,False,True,left,0,38,38,38,2018-09-17 11:25:56.757941,2018-09-17 11:26:00.795172,0:00:04.037231,1,left,1,0.33386429969505116,31,m,2,4,2018_Sep_17_1121,MP_PerceptionTuring2,59.94784021666371,
40,resources/videos_generated\model(vcgpdm)-dataset(walking)-mode(ELBO)-parts(1)-dyn(23)-lvm(28)_final(7).mov,resources/videos_natural\training(37).mov,True,True,left,0,39,39,39,2018-09-17 11:26:02.246255,2018-09-17 11:26:06.199481,0:00:03.953226,1,left,1,0.2671863089585713,31,m,2,4,2018_Sep_17_1121,MP_PerceptionTuring2,59.94784021666371,
41,resources/videos_generated\model(vcgpdm)-dataset(walking)-mode(ELBO)-parts(1)-dyn(28)-lvm(23)_final(8).mov,resources/videos_natural\training(31).mov,False,True,left,0,40,40,40,2018-09-17 11:26:07.583560,2018-09-17 11:26:11.503785,0:00:03.920225,1,left,1,0.2671429401802925,31,m,2,4,2018_Sep_17_1121,MP_PerceptionTuring2,59.94784021666371,
42,resources/videos_generated\model(vcgpdm)-dataset(walking)-mode(ELBO)-parts(2)-dyn(22)-lvm(19)_final(4).mov,resources/videos_natural\training(20).mov,False,True,left,0,41,41,41,2018-09-17 11:26:12.888864,2018-09-17 11:26:16.792087,0:00:03.903223,1,left,1,0.33381731685199156,31,m,2,4,2018_Sep_17_1121,MP_PerceptionTuring2,59.94784021666371,
43,resources/videos_generated\model(vcgpdm)-dataset(walking)-mode(ELBO)-parts(1)-dyn(25)-lvm(25)_final(0).mov,resources/videos_natural\training(4).mov,False,False,right,0,42,42,42,2018-09-17 11:26:18.243170,2018-09-17 11:26:22.146393,0:00:03.903223,1,right,1,0.2837974545539055,31,m,2,4,2018_Sep_17_1121,MP_PerceptionTuring2,59.94784021666371,
44,resources/videos_generated\model(vcgpdm)-dataset(walking)-mode(ELBO)-parts(1)-dyn(25)-lvm(26)_final(9).mov,resources/videos_natural\training(25).mov,False,False,right,0,43,43,43,2018-09-17 11:26:23.547474,2018-09-17 11:26:27.467698,0:00:03.920224,1,right,1,0.2671986570134095,31,m,2,4,2018_Sep_17_1121,MP_PerceptionTuring2,59.94784021666371,
45,resources/videos_generated\model(vcgpdm)-dataset(walking)-mode(ELBO)-parts(2)-dyn(26)-lvm(19)_final(2).mov,resources/videos_natural\training(38).mov,False,True,left,0,44,44,44,2018-09-17 11:26:28.851777,2018-09-17 11:26:32.806003,0:00:03.954226,1,left,1,0.28373842482790224,31,m,2,4,2018_Sep_17_1121,MP_PerceptionTuring2,59.94784021666371,
46,resources/videos_generated\model(vcgpdm)-dataset(walking)-mode(ELBO)-parts(1)-dyn(27)-lvm(22)_final(0).mov,resources/videos_natural\training(44).mov,True,False,right,0,45,45,45,2018-09-17 11:27:36.694657,2018-09-17 11:27:40.613881,0:00:03.919224,2,left,0,0.2170474836923404,31,m,2,4,2018_Sep_17_1121,MP_PerceptionTuring2,59.94784021666371,
47,resources/videos_generated\model(vcgpdm)-dataset(walking)-mode(ELBO)-parts(1)-dyn(27)-lvm(22)_final(8).mov,resources/videos_natural\training(40).mov,False,False,right,0,46,46,46,2018-09-17 11:27:41.948958,2018-09-17 11:27:45.885183,0:00:03.936225,2,right,1,0.3004652204986087,31,m,2,4,2018_Sep_17_1121,MP_PerceptionTuring2,59.94784021666371,
48,resources/videos_generated\model(vcgpdm)-dataset(walking)-mode(ELBO)-parts(1)-dyn(27)-lvm(22)_final(2).mov,resources/videos_natural\training(5).mov,False,True,left,0,47,47,47,2018-09-17 11:27:47.303264,2018-09-17 11:27:51.240489,0:00:03.937225,2,right,0,0.3838793432400962,31,m,2,4,2018_Sep_17_1121,MP_PerceptionTuring2,59.94784021666371,
49,resources/videos_generated\model(vcgpdm)-dataset(walking)-mode(ELBO)-parts(1)-dyn(28)-lvm(27)_final(6).mov,resources/videos_natural\training(25).mov,False,False,right,0,48,48,48,2018-09-17 11:27:52.742575,2018-09-17 11:27:56.661799,0:00:03.919224,2,right,1,0.25033000929715854,31,m,2,4,2018_Sep_17_1121,MP_PerceptionTuring2,59.94784021666371,
50,resources/videos_generated\model(vcgpdm)-dataset(walking)-mode(ELBO)-parts(2)-dyn(23)-lvm(22)_final(4).mov,resources/videos_natural\training(16).mov,True,False,right,0,49,49,49,2018-09-17 11:27:58.028878,2018-09-17 11:28:01.933101,0:00:03.904223,2,right,1,0.3162285667131073,31,m,2,4,2018_Sep_17_1121,MP_PerceptionTuring2,59.94784021666371,
51,resources/videos_generated\model(vcgpdm)-dataset(walking)-mode(ELBO)-parts(1)-dyn(28)-lvm(25)_final(4).mov,resources/videos_natural\training(11).mov,False,True,left,0,50,50,50,2018-09-17 11:28:03.367183,2018-09-17 11:28:07.320409,0:00:03.953226,2,right,0,0.2504453582005226,31,m,2,4,2018_Sep_17_1121,MP_PerceptionTuring2,59.94784021666371,
52,resources/videos_generated\model(vcgpdm)-dataset(walking)-mode(ELBO)-parts(1)-dyn(26)-lvm(23)_final(6)_fail.mov,resources/videos_natural\training(35).mov,False,True,left,0,51,51,51,2018-09-17 11:28:08.688487,2018-09-17 11:28:12.625712,0:00:03.937225,2,left,1,0.4339016149148165,31,m,2,4,2018_Sep_17_1121,MP_PerceptionTuring2,59.94784021666371,
53,resources/videos_generated\model(tmp)-dataset(walking)-numprim(13)_final(7).mov,resources/videos_natural\training(32).mov,True,True,left,0,52,52,52,2018-09-17 11:28:14.176801,2018-09-17 11:28:18.081024,0:00:03.904223,2,left,1,0.4338799305255634,31,m,2,4,2018_Sep_17_1121,MP_PerceptionTuring2,59.94784021666371,
54,resources/videos_generated\model(vcgpdm)-dataset(walking)-mode(ELBO)-parts(1)-dyn(23)-lvm(22)_final(0).mov,resources/videos_natural\training(36).mov,True,False,right,0,53,53,53,2018-09-17 11:28:19.632113,2018-09-17 11:28:23.585339,0:00:03.953226,2,left,0,0.33389833213914244,31,m,2,4,2018_Sep_17_1121,MP_PerceptionTuring2,59.94784021666371,
55,resources/videos_generated\model(vcgpdm)-dataset(walking)-mode(ELBO)-parts(2)-dyn(26)-lvm(21)_final(8).mov,resources/videos_natural\training(42).mov,False,False,right,0,54,54,54,2018-09-17 11:28:25.036422,2018-09-17 11:28:29.139657,0:00:04.103235,2,left,0,0.2837197521594135,31,m,2,4,2018_Sep_17_1121,MP_PerceptionTuring2,59.94784021666371,
56,resources/videos_generated\model(vcgpdm)-dataset(walking)-mode(ELBO)-parts(1)-dyn(25)-lvm(22)_final(9).mov,resources/videos_natural\training(37).mov,False,False,right,0,55,55,55,2018-09-17 11:28:30.540737,2018-09-17 11:28:34.493963,0:00:03.953226,2,right,1,0.26723841172690754,31,m,2,4,2018_Sep_17_1121,MP_PerceptionTuring2,59.94784021666371,
57,resources/videos_generated\model(tmp)-dataset(walking)-numprim(14)_final(7).mov,resources/videos_natural\training(3).mov,False,False,right,0,56,56,56,2018-09-17 11:28:35.879042,2018-09-17 11:28:39.966276,0:00:04.087234,2,right,1,0.3671453194397145,31,m,2,4,2018_Sep_17_1121,MP_PerceptionTuring2,59.94784021666371,
58,resources/videos_generated\model(vcgpdm)-dataset(walking)-mode(ELBO)-parts(2)-dyn(23)-lvm(18)_final(2).mov,resources/videos_natural\training(25).mov,False,False,right,0,57,57,57,2018-09-17 11:28:41.450361,2018-09-17 11:28:45.386586,0:00:03.936225,2,right,1,0.4006603498836512,31,m,2,4,2018_Sep_17_1121,MP_PerceptionTuring2,59.94784021666371,
59,resources/videos_generated\model(vcgpdm)-dataset(walking)-mode(ELBO)-parts(2)-dyn(25)-lvm(18)_final(8).mov,resources/videos_natural\training(17).mov,False,False,right,0,58,58,58,2018-09-17 11:28:46.904673,2018-09-17 11:28:50.824897,0:00:03.920224,2,right,1,0.2671959464647671,31,m,2,4,2018_Sep_17_1121,MP_PerceptionTuring2,59.94784021666371,
60,resources/videos_generated\model(vcgpdm)-dataset(walking)-mode(ELBO)-parts(1)-dyn(26)-lvm(27)_final(2).mov,resources/videos_natural\training(40).mov,False,False,right,0,59,59,59,2018-09-17 11:28:52.209977,2018-09-17 11:28:56.130201,0:00:03.920224,2,right,1,0.30046431698247034,31,m,2,4,2018_Sep_17_1121,MP_PerceptionTuring2,59.94784021666371,
61,resources/videos_generated\model(vcgpdm)-dataset(walking)-mode(ELBO)-parts(1)-dyn(22)-lvm(27)_final(1)_fail.mov,resources/videos_natural\training(30).mov,False,False,right,0,60,60,60,2018-09-17 11:28:57.547282,2018-09-17 11:29:01.634516,0:00:04.087234,2,right,1,0.33385586687711566,31,m,2,4,2018_Sep_17_1121,MP_PerceptionTuring2,59.94784021666371,
62,resources/videos_generated\model(vcgpdm)-dataset(walking)-mode(ELBO)-parts(2)-dyn(28)-lvm(17)_final(4).mov,resources/videos_natural\training(3).mov,True,True,left,0,61,61,61,2018-09-17 11:29:03.085599,2018-09-17 11:29:07.005823,0:00:03.920224,2,left,1,0.3505013460885493,31,m,2,4,2018_Sep_17_1121,MP_PerceptionTuring2,59.94784021666371,
63,resources/videos_generated\model(vcgpdm)-dataset(walking)-mode(ELBO)-parts(2)-dyn(22)-lvm(23)_final(4).mov,resources/videos_natural\training(5).mov,False,False,right,0,62,62,62,2018-09-17 11:29:08.473907,2018-09-17 11:29:12.394131,0:00:03.920224,2,right,1,0.5672633186571829,31,m,2,4,2018_Sep_17_1121,MP_PerceptionTuring2,59.94784021666371,
64,resources/videos_generated\model(vcgpdm)-dataset(walking)-mode(ELBO)-parts(2)-dyn(28)-lvm(23)_final(6).mov,resources/videos_natural\training(0).mov,True,False,right,0,63,63,63,2018-09-17 11:29:14.078227,2018-09-17 11:29:18.015453,0:00:03.937226,2,right,1,0.31711491611906695,31,m,2,4,2018_Sep_17_1121,MP_PerceptionTuring2,59.94784021666371,
65,resources/videos_generated\model(vcgpdm)-dataset(walking)-mode(ELBO)-parts(2)-dyn(24)-lvm(19)_final(0).mov,resources/videos_natural\training(8).mov,True,False,right,0,64,64,64,2018-09-17 11:29:19.449535,2018-09-17 11:29:23.369759,0:00:03.920224,2,left,0,0.2837200533315354,31,m,2,4,2018_Sep_17_1121,MP_PerceptionTuring2,59.94784021666371,
66,resources/videos_generated\model(vcgpdm)-dataset(walking)-mode(ELBO)-parts(1)-dyn(25)-lvm(22)_final(7).mov,resources/videos_natural\training(10).mov,False,False,right,0,65,65,65,2018-09-17 11:29:24.770839,2018-09-17 11:29:28.708064,0:00:03.937225,2,right,1,0.383991379250574,31,m,2,4,2018_Sep_17_1121,MP_PerceptionTuring2,59.94784021666371,
67,resources/videos_generated\model(vcgpdm)-dataset(walking)-mode(ELBO)-parts(2)-dyn(26)-lvm(23)_final(8).mov,resources/videos_natural\training(44).mov,False,True,left,0,66,66,66,2018-09-17 11:29:30.209150,2018-09-17 11:29:34.112373,0:00:03.903223,2,right,0,0.8175990502237482,31,m,2,4,2018_Sep_17_1121,MP_PerceptionTuring2,59.94784021666371,
68,resources/videos_generated\model(vcgpdm)-dataset(walking)-mode(ELBO)-parts(2)-dyn(25)-lvm(22)_final(6).mov,resources/videos_natural\training(46).mov,True,False,right,0,67,67,67,2018-09-17 11:29:36.047484,2018-09-17 11:29:40.134718,0:00:04.087234,2,right,1,0.5009476379225362,31,m,2,4,2018_Sep_17_1121,MP_PerceptionTuring2,59.94784021666371,
69,resources/videos_generated\model(vcgpdm)-dataset(walking)-mode(ELBO)-parts(1)-dyn(22)-lvm(23)_final(1).mov,resources/videos_natural\training(23).mov,True,True,left,0,68,68,68,2018-09-17 11:29:41.752810,2018-09-17 11:29:45.856045,0:00:04.103235,2,left,1,0.25039446012044664,31,m,2,4,2018_Sep_17_1121,MP_PerceptionTuring2,59.94784021666371,
70,resources/videos_generated\model(vcgpdm)-dataset(walking)-mode(ELBO)-parts(1)-dyn(25)-lvm(24)_final(8).mov,resources/videos_natural\training(40).mov,True,False,right,0,69,69,69,2018-09-17 11:29:47.224123,2018-09-17 11:29:51.327358,0:00:04.103235,2,right,1,0.4005787322522565,31,m,2,4,2018_Sep_17_1121,MP_PerceptionTuring2,59.94784021666371,
71,resources/videos_generated\model(vcgpdm)-dataset(walking)-mode(ELBO)-parts(1)-dyn(25)-lvm(28)_final(3).mov,resources/videos_natural\training(30).mov,True,False,right,0,70,70,70,2018-09-17 11:29:52.845445,2018-09-17 11:29:56.915677,0:00:04.070232,2,right,1,0.2671983558414013,31,m,2,4,2018_Sep_17_1121,MP_PerceptionTuring2,59.94784021666371,
72,resources/videos_generated\model(vcgpdm)-dataset(walking)-mode(ELBO)-parts(1)-dyn(23)-lvm(26)_final(4)_hip-corrected.mov,resources/videos_natural\training(21).mov,True,True,left,0,71,71,71,2018-09-17 11:29:58.299757,2018-09-17 11:30:02.236982,0:00:03.937225,2,left,1,0.36734620121137596,31,m,2,4,2018_Sep_17_1121,MP_PerceptionTuring2,59.94784021666371,
73,resources/videos_generated\model(vcgpdm)-dataset(walking)-mode(ELBO)-parts(1)-dyn(27)-lvm(28)_final(6).mov,resources/videos_natural\training(4).mov,True,True,left,0,72,72,72,2018-09-17 11:30:03.721067,2018-09-17 11:30:07.641291,0:00:03.920224,2,left,1,0.26721461913325584,31,m,2,4,2018_Sep_17_1121,MP_PerceptionTuring2,59.94784021666371,
74,resources/videos_generated\model(vcgpdm)-dataset(walking)-mode(ELBO)-parts(1)-dyn(27)-lvm(22)_final(4).mov,resources/videos_natural\training(47).mov,True,True,left,0,73,73,73,2018-09-17 11:30:09.026370,2018-09-17 11:30:13.129605,0:00:04.103235,2,left,1,0.3838796444122181,31,m,2,4,2018_Sep_17_1121,MP_PerceptionTuring2,59.94784021666371,
75,resources/videos_generated\model(vcgpdm)-dataset(walking)-mode(ELBO)-parts(1)-dyn(27)-lvm(22)_final(6).mov,resources/videos_natural\training(42).mov,False,True,left,0,74,74,74,2018-09-17 11:30:14.630691,2018-09-17 11:30:18.567916,0:00:03.937225,2,right,0,0.2671829960656851,31,m,2,4,2018_Sep_17_1121,MP_PerceptionTuring2,59.94784021666371,
76,resources/videos_generated\model(vcgpdm)-dataset(walking)-mode(ELBO)-parts(2)-dyn(25)-lvm(22)_final(8).mov,resources/videos_natural\training(5).mov,False,True,left,0,75,75,75,2018-09-17 11:30:19.951995,2018-09-17 11:30:23.872219,0:00:03.920224,2,right,0,0.283748062334098,31,m,2,4,2018_Sep_17_1121,MP_PerceptionTuring2,59.94784021666371,
77,resources/videos_generated\model(tmp)-dataset(walking)-numprim(15)_final(1).mov,resources/videos_natural\training(21).mov,False,True,left,0,76,76,76,2018-09-17 11:30:25.273299,2018-09-17 11:30:29.193524,0:00:03.920225,2,right,0,0.2838727475716496,31,m,2,4,2018_Sep_17_1121,MP_PerceptionTuring2,59.94784021666371,
78,resources/videos_generated\model(dmp)-dataset(walking)-npsi(80)_final(7).mov,resources/videos_natural\training(28).mov,False,True,left,0,77,77,77,2018-09-17 11:30:30.594604,2018-09-17 11:30:34.514828,0:00:03.920224,2,right,0,0.0836821658849658,31,m,2,4,2018_Sep_17_1121,MP_PerceptionTuring2,59.94784021666371,
79,resources/videos_generated\model(vcgpdm)-dataset(walking)-mode(ELBO)-parts(2)-dyn(26)-lvm(17)_final(4).mov,resources/videos_natural\training(38).mov,True,False,right,0,78,78,78,2018-09-17 11:30:35.715897,2018-09-17 11:30:39.619120,0:00:03.903223,2,right,1,0.3004525712717623,31,m,2,4,2018_Sep_17_1121,MP_PerceptionTuring2,59.94784021666371,
80,resources/videos_generated\model(vcgpdm)-dataset(walking)-mode(ELBO)-parts(2)-dyn(24)-lvm(19)_final(8).mov,resources/videos_natural\training(24).mov,True,True,left,0,79,79,79,2018-09-17 11:30:41.037201,2018-09-17 11:30:44.973426,0:00:03.936225,2,left,1,0.3339730228128701,31,m,2,4,2018_Sep_17_1121,MP_PerceptionTuring2,59.94784021666371,
81,resources/videos_generated\model(vcgpdm)-dataset(walking)-mode(ELBO)-parts(2)-dyn(25)-lvm(20)_final(0).mov,resources/videos_natural\training(24).mov,False,True,left,0,80,80,80,2018-09-17 11:30:46.425509,2018-09-17 11:30:50.344733,0:00:03.919224,2,left,1,0.30044534314197335,31,m,2,4,2018_Sep_17_1121,MP_PerceptionTuring2,59.94784021666371,
82,resources/videos_generated\model(vcgpdm)-dataset(walking)-mode(ELBO)-parts(2)-dyn(28)-lvm(17)_final(6).mov,resources/videos_natural\training(45).mov,False,False,right,0,81,81,81,2018-09-17 11:30:51.762815,2018-09-17 11:30:55.683039,0:00:03.920224,2,right,1,0.3172347826034638,31,m,2,4,2018_Sep_17_1121,MP_PerceptionTuring2,59.94784021666371,
83,resources/videos_generated\model(vcgpdm)-dataset(walking)-mode(ELBO)-parts(2)-dyn(24)-lvm(23)_final(6).mov,resources/videos_natural\training(1).mov,False,True,left,0,82,82,82,2018-09-17 11:30:57.117121,2018-09-17 11:31:01.037345,0:00:03.920224,2,left,1,1.2847407254812424,31,m,2,4,2018_Sep_17_1121,MP_PerceptionTuring2,59.94784021666371,
84,resources/videos_generated\model(vcgpdm)-dataset(walking)-mode(ELBO)-parts(2)-dyn(24)-lvm(21)_final(6).mov,resources/videos_natural\training(20).mov,True,False,right,0,83,83,83,2018-09-17 11:31:03.439482,2018-09-17 11:31:07.476713,0:00:04.037231,2,left,0,0.3671582698386828,31,m,2,4,2018_Sep_17_1121,MP_PerceptionTuring2,59.94784021666371,
85,resources/videos_generated\model(vcgpdm)-dataset(walking)-mode(ELBO)-parts(2)-dyn(22)-lvm(19)_final(0).mov,resources/videos_natural\training(14).mov,True,True,left,0,84,84,84,2018-09-17 11:31:08.960798,2018-09-17 11:31:12.998029,0:00:04.037231,2,left,1,0.23400286896526268,31,m,2,4,2018_Sep_17_1121,MP_PerceptionTuring2,59.94784021666371,
86,resources/videos_generated\model(vcgpdm)-dataset(walking)-mode(ELBO)-parts(2)-dyn(24)-lvm(21)_final(8).mov,resources/videos_natural\training(7).mov,True,False,right,0,85,85,85,2018-09-17 11:31:14.349106,2018-09-17 11:31:18.269331,0:00:03.920225,2,left,0,0.35050465898143557,31,m,2,4,2018_Sep_17_1121,MP_PerceptionTuring2,59.94784021666371,
87,resources/videos_generated\model(dmp)-dataset(walking)-npsi(60)_final(5).mov,resources/videos_natural\training(18).mov,False,False,right,0,86,86,86,2018-09-17 11:31:19.737415,2018-09-17 11:31:23.790646,0:00:04.053231,2,right,1,0.36718447180896874,31,m,2,4,2018_Sep_17_1121,MP_PerceptionTuring2,59.94784021666371,
88,resources/videos_generated\model(vcgpdm)-dataset(walking)-mode(ELBO)-parts(2)-dyn(22)-lvm(17)_final(2).mov,resources/videos_natural\training(12).mov,False,True,left,0,87,87,87,2018-09-17 11:31:25.274731,2018-09-17 11:31:29.294961,0:00:04.020230,2,right,0,0.35060946686212446,31,m,2,4,2018_Sep_17_1121,MP_PerceptionTuring2,59.94784021666371,
89,resources/videos_generated\model(tmp)-dataset(walking)-numprim(15)_final(7).mov,resources/videos_natural\training(18).mov,False,True,left,0,88,88,88,2018-09-17 11:31:30.763045,2018-09-17 11:31:34.683269,0:00:03.920224,2,right,0,0.30026463989906915,31,m,2,4,2018_Sep_17_1121,MP_PerceptionTuring2,59.94784021666371,
90,resources/videos_generated\model(vcgpdm)-dataset(walking)-mode(ELBO)-parts(1)-dyn(23)-lvm(22)_final(8)_fail.mov,resources/videos_natural\training(20).mov,True,True,left,0,89,89,89,2018-09-17 11:31:36.101351,2018-09-17 11:31:40.138581,0:00:04.037230,2,left,1,0.33396127710216206,31,m,2,4,2018_Sep_17_1121,MP_PerceptionTuring2,59.94784021666371,
91,resources/videos_generated\model(vcgpdm)-dataset(walking)-mode(ELBO)-parts(2)-dyn(27)-lvm(22)_final(0).mov,resources/videos_natural\training(42).mov,False,False,right,0,90,90,90,2018-09-17 11:33:11.249793,2018-09-17 11:33:15.187018,0:00:03.937225,3,right,1,0.2671715515270989,31,m,2,4,2018_Sep_17_1121,MP_PerceptionTuring2,59.94784021666371,
92,resources/videos_generated\model(dmp)-dataset(walking)-npsi(70)_final(7).mov,resources/videos_natural\training(48).mov,False,False,right,0,91,91,91,2018-09-17 11:33:16.571097,2018-09-17 11:33:20.508322,0:00:03.937225,3,left,0,0.33391399308698055,31,m,2,4,2018_Sep_17_1121,MP_PerceptionTuring2,59.94784021666371,
93,resources/videos_generated\model(vcgpdm)-dataset(walking)-mode(ELBO)-parts(1)-dyn(23)-lvm(28)_final(3)_hip-corrected.mov,resources/videos_natural\training(7).mov,False,False,right,0,92,92,92,2018-09-17 11:33:21.959405,2018-09-17 11:33:25.846628,0:00:03.887223,3,right,1,0.4006567358187567,31,m,2,4,2018_Sep_17_1121,MP_PerceptionTuring2,59.94784021666371,
94,resources/videos_generated\model(vcgpdm)-dataset(walking)-mode(ELBO)-parts(1)-dyn(23)-lvm(24)_final(0).mov,resources/videos_natural\training(1).mov,False,True,left,0,93,93,93,2018-09-17 11:33:27.363714,2018-09-17 11:33:31.300940,0:00:03.937226,3,left,1,0.3004381150121844,31,m,2,4,2018_Sep_17_1121,MP_PerceptionTuring2,59.94784021666371,
95,resources/videos_generated\model(vcgpdm)-dataset(walking)-mode(ELBO)-parts(1)-dyn(24)-lvm(25)_final(5).mov,resources/videos_natural\training(19).mov,False,True,left,0,94,94,94,2018-09-17 11:33:32.719021,2018-09-17 11:33:36.672247,0:00:03.953226,3,right,0,0.26720648748732856,31,m,2,4,2018_Sep_17_1121,MP_PerceptionTuring2,59.94784021666371,
96,resources/videos_generated\model(vcgpdm)-dataset(walking)-mode(ELBO)-parts(1)-dyn(26)-lvm(25)_final(4).mov,resources/videos_natural\training(29).mov,False,True,left,0,95,95,95,2018-09-17 11:33:38.056326,2018-09-17 11:33:42.010552,0:00:03.954226,3,left,1,0.2506107016677106,31,m,2,4,2018_Sep_17_1121,MP_PerceptionTuring2,59.94784021666371,
97,resources/videos_generated\model(vcgpdm)-dataset(walking)-mode(ELBO)-parts(1)-dyn(23)-lvm(24)_final(8).mov,resources/videos_natural\training(2).mov,True,False,right,0,96,96,96,2018-09-17 11:33:43.377630,2018-09-17 11:33:47.514867,0:00:04.137237,3,right,1,0.3519749810336634,31,m,2,4,2018_Sep_17_1121,MP_PerceptionTuring2,59.94784021666371,
98,resources/videos_generated\model(vcgpdm)-dataset(walking)-mode(ELBO)-parts(1)-dyn(24)-lvm(25)_final(1).mov,resources/videos_natural\training(4).mov,True,True,left,0,97,97,97,2018-09-17 11:33:48.982951,2018-09-17 11:33:52.953178,0:00:03.970227,3,left,1,0.30054653695788147,31,m,2,4,2018_Sep_17_1121,MP_PerceptionTuring2,59.94784021666371,
99,resources/videos_generated\model(vcgpdm)-dataset(walking)-mode(ELBO)-parts(1)-dyn(27)-lvm(26)_final(8).mov,resources/videos_natural\training(8).mov,True,False,right,0,98,98,98,2018-09-17 11:33:54.371259,2018-09-17 11:33:58.274482,0:00:03.903223,3,right,1,0.40047693609221824,31,m,2,4,2018_Sep_17_1121,MP_PerceptionTuring2,59.94784021666371,
100,resources/videos_generated\model(vcgpdm)-dataset(walking)-mode(ELBO)-parts(2)-dyn(26)-lvm(23)_final(0).mov,resources/videos_natural\training(46).mov,True,True,left,0,99,99,99,2018-09-17 11:33:59.792569,2018-09-17 11:34:03.878803,0:00:04.086234,3,right,0,0.3678169331587924,31,m,2,4,2018_Sep_17_1121,MP_PerceptionTuring2,59.94784021666371,
101,resources/videos_generated\model(vcgpdm)-dataset(walking)-mode(ELBO)-parts(1)-dyn(27)-lvm(24)_final(0).mov,resources/videos_natural\training(5).mov,False,False,right,0,100,100,100,2018-09-17 11:34:05.363888,2018-09-17 11:34:09.267111,0:00:03.903223,3,right,1,0.20038544001704395,31,m,2,4,2018_Sep_17_1121,MP_PerceptionTuring2,59.94784021666371,
102,resources/videos_generated\model(vcgpdm)-dataset(walking)-mode(ELBO)-parts(2)-dyn(28)-lvm(19)_final(2).mov,resources/videos_natural\training(10).mov,True,False,right,0,101,101,101,2018-09-17 11:34:10.585187,2018-09-17 11:34:14.621417,0:00:04.036230,3,right,1,0.4505458894379899,31,m,2,4,2018_Sep_17_1121,MP_PerceptionTuring2,59.94784021666371,
103,resources/videos_generated\model(tmp)-dataset(walking)-numprim(15)_final(3).mov,resources/videos_natural\training(6).mov,False,False,right,0,102,102,102,2018-09-17 11:34:16.189507,2018-09-17 11:34:20.109731,0:00:03.920224,3,left,0,1.718291474932812,31,m,2,4,2018_Sep_17_1121,MP_PerceptionTuring2,59.94784021666371,
104,resources/videos_generated\model(vcgpdm)-dataset(walking)-mode(ELBO)-parts(1)-dyn(26)-lvm(23)_final(8).mov,resources/videos_natural\training(17).mov,True,True,left,0,103,103,103,2018-09-17 11:34:22.945894,2018-09-17 11:34:26.899120,0:00:03.953226,3,left,1,0.35144672522051223,31,m,2,4,2018_Sep_17_1121,MP_PerceptionTuring2,59.94784021666371,
105,resources/videos_generated\model(vcgpdm)-dataset(walking)-mode(ELBO)-parts(1)-dyn(26)-lvm(22)_final(2).mov,resources/videos_natural\training(22).mov,True,True,left,0,104,104,104,2018-09-17 11:34:28.367204,2018-09-17 11:34:32.270427,0:00:03.903223,3,left,1,0.46732147498414633,31,m,2,4,2018_Sep_17_1121,MP_PerceptionTuring2,59.94784021666371,
106,resources/videos_generated\model(vcgpdm)-dataset(walking)-mode(ELBO)-parts(1)-dyn(28)-lvm(24)_final(0).mov,resources/videos_natural\training(0).mov,True,False,right,0,105,105,105,2018-09-17 11:34:33.854517,2018-09-17 11:34:37.841746,0:00:03.987229,3,left,0,0.3839013288013575,31,m,2,4,2018_Sep_17_1121,MP_PerceptionTuring2,59.94784021666371,
107,resources/videos_generated\model(dmp)-dataset(walking)-npsi(50)_final(1).mov,resources/videos_natural\training(48).mov,False,False,right,0,106,106,106,2018-09-17 11:34:39.342831,2018-09-17 11:34:43.313058,0:00:03.970227,3,right,1,0.3506067563137094,31,m,2,4,2018_Sep_17_1121,MP_PerceptionTuring2,59.94784021666371,
108,resources/videos_generated\model(vcgpdm)-dataset(walking)-mode(ELBO)-parts(2)-dyn(24)-lvm(17)_final(0).mov,resources/videos_natural\training(18).mov,True,False,right,0,107,107,107,2018-09-17 11:34:44.781142,2018-09-17 11:34:48.834374,0:00:04.053232,3,right,1,0.5509358771530515,31,m,2,4,2018_Sep_17_1121,MP_PerceptionTuring2,59.94784021666371,
109,resources/videos_generated\model(dmp)-dataset(walking)-npsi(100)_final(5).mov,resources/videos_natural\training(29).mov,True,True,left,0,108,108,108,2018-09-17 11:34:50.502470,2018-09-17 11:34:54.456696,0:00:03.954226,3,right,0,0.684318361768419,31,m,2,4,2018_Sep_17_1121,MP_PerceptionTuring2,59.94784021666371,
110,resources/videos_generated\model(vcgpdm)-dataset(walking)-mode(ELBO)-parts(1)-dyn(28)-lvm(24)_final(5).mov,resources/videos_natural\training(0).mov,True,True,left,0,109,109,109,2018-09-17 11:34:56.257799,2018-09-17 11:35:00.144021,0:00:03.886222,3,right,0,0.2170447731434706,31,m,2,4,2018_Sep_17_1121,MP_PerceptionTuring2,59.94784021666371,
111,resources/videos_generated\model(vcgpdm)-dataset(walking)-mode(ELBO)-parts(2)-dyn(26)-lvm(21)_final(6).mov,resources/videos_natural\training(13).mov,True,False,right,0,110,110,110,2018-09-17 11:35:01.479098,2018-09-17 11:35:05.449325,0:00:03.970227,3,right,1,0.23373211527314197,31,m,2,4,2018_Sep_17_1121,MP_PerceptionTuring2,59.94784021666371,
112,resources/videos_generated\model(vcgpdm)-dataset(walking)-mode(ELBO)-parts(2)-dyn(28)-lvm(19)_final(6).mov,resources/videos_natural\training(7).mov,True,True,left,0,111,111,111,2018-09-17 11:35:06.800402,2018-09-17 11:35:10.770629,0:00:03.970227,3,left,1,0.28377396313248937,31,m,2,4,2018_Sep_17_1121,MP_PerceptionTuring2,59.94784021666371,
113,resources/videos_generated\model(dmp)-dataset(walking)-npsi(80)_final(1).mov,resources/videos_natural\training(43).mov,False,False,right,0,112,112,112,2018-09-17 11:35:12.171709,2018-09-17 11:35:16.274944,0:00:04.103235,3,right,1,0.3171549720045732,31,m,2,4,2018_Sep_17_1121,MP_PerceptionTuring2,59.94784021666371,
114,resources/videos_generated\model(vcgpdm)-dataset(walking)-mode(ELBO)-parts(1)-dyn(27)-lvm(28)_final(8).mov,resources/videos_natural\training(27).mov,False,True,left,0,113,113,113,2018-09-17 11:35:17.710026,2018-09-17 11:35:21.713255,0:00:04.003229,3,right,0,0.26711161828484364,31,m,2,4,2018_Sep_17_1121,MP_PerceptionTuring2,59.94784021666371,
115,resources/videos_generated\model(vcgpdm)-dataset(walking)-mode(ELBO)-parts(1)-dyn(27)-lvm(24)_final(6).mov,resources/videos_natural\training(16).mov,False,True,left,0,114,114,114,2018-09-17 11:35:23.097334,2018-09-17 11:35:27.017558,0:00:03.920224,3,left,1,0.31720978532166555,31,m,2,4,2018_Sep_17_1121,MP_PerceptionTuring2,59.94784021666371,
116,resources/videos_generated\model(vcgpdm)-dataset(walking)-mode(ELBO)-parts(1)-dyn(23)-lvm(27)_final(7).mov,resources/videos_natural\training(28).mov,False,False,right,0,115,115,115,2018-09-17 11:35:28.451640,2018-09-17 11:35:32.355864,0:00:03.904224,3,left,0,0.31719864195497394,31,m,2,4,2018_Sep_17_1121,MP_PerceptionTuring2,59.94784021666371,
117,resources/videos_generated\model(vcgpdm)-dataset(walking)-mode(ELBO)-parts(2)-dyn(24)-lvm(21)_final(4).mov,resources/videos_natural\training(26).mov,False,True,left,0,116,116,116,2018-09-17 11:35:33.789946,2018-09-17 11:35:37.727171,0:00:03.937225,3,left,1,0.2671348085343652,31,m,2,4,2018_Sep_17_1121,MP_PerceptionTuring2,59.94784021666371,
118,resources/videos_generated\model(vcgpdm)-dataset(walking)-mode(ELBO)-parts(1)-dyn(22)-lvm(22)_final(5).mov,resources/videos_natural\training(23).mov,True,True,left,0,117,117,117,2018-09-17 11:35:39.111250,2018-09-17 11:35:43.031474,0:00:03.920224,3,left,1,0.23369687814079043,31,m,2,4,2018_Sep_17_1121,MP_PerceptionTuring2,59.94784021666371,
119,resources/videos_generated\model(vcgpdm)-dataset(walking)-mode(ELBO)-parts(2)-dyn(22)-lvm(19)_final(8).mov,resources/videos_natural\training(12).mov,False,False,right,0,118,118,118,2018-09-17 11:35:44.382551,2018-09-17 11:35:48.302776,0:00:03.920225,3,right,1,0.30056761900277706,31,m,2,4,2018_Sep_17_1121,MP_PerceptionTuring2,59.94784021666371,
120,resources/videos_generated\model(vcgpdm)-dataset(walking)-mode(ELBO)-parts(2)-dyn(24)-lvm(17)_final(6).mov,resources/videos_natural\training(45).mov,False,True,left,0,119,119,119,2018-09-17 11:35:49.720857,2018-09-17 11:35:53.641081,0:00:03.920224,3,left,1,0.26751549003256514,31,m,2,4,2018_Sep_17_1121,MP_PerceptionTuring2,59.94784021666371,
121,resources/videos_generated\model(vcgpdm)-dataset(walking)-mode(ELBO)-parts(1)-dyn(27)-lvm(24)_final(2).mov,resources/videos_natural\training(46).mov,True,False,right,0,120,120,120,2018-09-17 11:35:55.025160,2018-09-17 11:35:58.945384,0:00:03.920224,3,right,1,0.25059473954797795,31,m,2,4,2018_Sep_17_1121,MP_PerceptionTuring2,59.94784021666371,
122,resources/videos_generated\model(vcgpdm)-dataset(walking)-mode(ELBO)-parts(1)-dyn(28)-lvm(25)_final(0).mov,resources/videos_natural\training(30).mov,False,False,right,0,121,121,121,2018-09-17 11:36:00.313463,2018-09-17 11:36:04.216686,0:00:03.903223,3,right,1,0.30060707254438057,31,m,2,4,2018_Sep_17_1121,MP_PerceptionTuring2,59.94784021666371,
123,resources/videos_generated\model(vcgpdm)-dataset(walking)-mode(ELBO)-parts(1)-dyn(27)-lvm(26)_final(4).mov,resources/videos_natural\training(37).mov,True,True,left,0,122,122,122,2018-09-17 11:36:05.634767,2018-09-17 11:36:09.553991,0:00:03.919224,3,left,1,0.3337447343828899,31,m,2,4,2018_Sep_17_1121,MP_PerceptionTuring2,59.94784021666371,
124,resources/videos_generated\model(vcgpdm)-dataset(walking)-mode(ELBO)-parts(1)-dyn(28)-lvm(25)_final(8).mov,resources/videos_natural\training(47).mov,True,False,right,0,123,123,123,2018-09-17 11:36:11.006074,2018-09-17 11:36:14.925298,0:00:03.919224,3,left,0,0.31720165367573827,31,m,2,4,2018_Sep_17_1121,MP_PerceptionTuring2,59.94784021666371,
125,resources/videos_generated\model(vcgpdm)-dataset(walking)-mode(ELBO)-parts(2)-dyn(26)-lvm(23)_final(2).mov,resources/videos_natural\training(9).mov,True,True,left,0,124,124,124,2018-09-17 11:36:16.360380,2018-09-17 11:36:20.263604,0:00:03.903224,3,left,1,0.3338841770516865,31,m,2,4,2018_Sep_17_1121,MP_PerceptionTuring2,59.94784021666371,
126,resources/videos_generated\model(vcgpdm)-dataset(walking)-mode(ELBO)-parts(2)-dyn(28)-lvm(19)_final(4).mov,resources/videos_natural\training(9).mov,False,False,right,0,125,125,125,2018-09-17 11:36:21.714687,2018-09-17 11:36:25.617910,0:00:03.903223,3,right,1,0.3838751268310716,31,m,2,4,2018_Sep_17_1121,MP_PerceptionTuring2,59.94784021666371,
127,resources/videos_generated\model(vcgpdm)-dataset(walking)-mode(ELBO)-parts(1)-dyn(22)-lvm(23)_final(7).mov,resources/videos_natural\training(16).mov,True,False,right,0,126,126,126,2018-09-17 11:36:27.119996,2018-09-17 11:36:31.056221,0:00:03.936225,3,right,1,0.36717423195864285,31,m,2,4,2018_Sep_17_1121,MP_PerceptionTuring2,59.94784021666371,
128,resources/videos_generated\model(dmp)-dataset(walking)-npsi(70)_final(3).mov,resources/videos_natural\training(27).mov,True,True,left,0,127,127,127,2018-09-17 11:36:32.541306,2018-09-17 11:36:36.460530,0:00:03.919224,3,left,1,0.1003845666180041,31,m,2,4,2018_Sep_17_1121,MP_PerceptionTuring2,59.94784021666371,
129,resources/videos_generated\model(vcgpdm)-dataset(walking)-mode(ELBO)-parts(2)-dyn(26)-lvm(17)_final(8).mov,resources/videos_natural\training(11).mov,False,True,left,0,128,128,128,2018-09-17 11:36:37.678600,2018-09-17 11:36:41.615825,0:00:03.937225,3,right,0,0.3338266531861791,31,m,2,4,2018_Sep_17_1121,MP_PerceptionTuring2,59.94784021666371,
130,resources/videos_generated\model(vcgpdm)-dataset(walking)-mode(ELBO)-parts(2)-dyn(22)-lvm(17)_final(8).mov,resources/videos_natural\training(28).mov,True,True,left,0,129,129,129,2018-09-17 11:36:43.066908,2018-09-17 11:36:46.987132,0:00:03.920224,3,left,1,0.26723419531776926,31,m,2,4,2018_Sep_17_1121,MP_PerceptionTuring2,59.94784021666371,
131,resources/videos_generated\model(vcgpdm)-dataset(walking)-mode(ELBO)-parts(1)-dyn(23)-lvm(28)_final(5).mov,resources/videos_natural\training(40).mov,False,True,left,0,130,130,130,2018-09-17 11:36:48.371211,2018-09-17 11:36:52.308437,0:00:03.937226,3,left,1,0.28380136979080817,31,m,2,4,2018_Sep_17_1121,MP_PerceptionTuring2,59.94784021666371,
132,resources/videos_generated\model(vcgpdm)-dataset(walking)-mode(ELBO)-parts(1)-dyn(26)-lvm(23)_final(4)_fail.mov,resources/videos_natural\training(23).mov,True,True,left,0,131,131,131,2018-09-17 11:36:53.709517,2018-09-17 11:36:57.645742,0:00:03.936225,3,left,1,0.28384865380621704,31,m,2,4,2018_Sep_17_1121,MP_PerceptionTuring2,59.94784021666371,
133,resources/videos_generated\model(tmp)-dataset(walking)-numprim(13)_final(9).mov,resources/videos_natural\training(3).mov,False,True,left,0,132,132,132,2018-09-17 11:36:59.046822,2018-09-17 11:37:02.967046,0:00:03.920224,3,right,0,0.3672007351008233,31,m,2,4,2018_Sep_17_1121,MP_PerceptionTuring2,59.94784021666371,
134,resources/videos_generated\model(dmp)-dataset(walking)-npsi(60)_final(7).mov,resources/videos_natural\training(34).mov,True,True,left,0,133,133,133,2018-09-17 11:37:04.452131,2018-09-17 11:37:08.438359,0:00:03.986228,3,left,1,0.3004995541148219,31,m,2,4,2018_Sep_17_1121,MP_PerceptionTuring2,59.94784021666371,
135,resources/videos_generated\model(dmp)-dataset(walking)-npsi(60)_final(1).mov,resources/videos_natural\training(6).mov,False,True,left,0,134,134,134,2018-09-17 11:37:09.856440,2018-09-17 11:37:13.776664,0:00:03.920224,3,left,1,0.28380528502771085,31,m,2,4,2018_Sep_17_1121,MP_PerceptionTuring2,59.94784021666371,
136,resources/videos_generated\model(vcgpdm)-dataset(walking)-mode(ELBO)-parts(2)-dyn(24)-lvm(23)_final(2).mov,resources/videos_natural\training(44).mov,True,True,left,0,135,135,135,2018-09-17 11:37:46.805554,2018-09-17 11:37:50.758780,0:00:03.953226,4,left,1,0.2838468467734856,31,m,2,4,2018_Sep_17_1121,MP_PerceptionTuring2,59.94784021666371,
137,resources/videos_generated\model(tmp)-dataset(walking)-numprim(14)_final(3).mov,resources/videos_natural\training(2).mov,False,True,left,0,136,136,136,2018-09-17 11:37:52.159860,2018-09-17 11:37:56.063083,0:00:03.903223,4,left,1,0.23380710711876418,31,m,2,4,2018_Sep_17_1121,MP_PerceptionTuring2,59.94784021666371,
138,resources/videos_generated\model(vcgpdm)-dataset(walking)-mode(ELBO)-parts(2)-dyn(23)-lvm(20)_final(8).mov,resources/videos_natural\training(19).mov,True,False,right,0,137,137,137,2018-09-17 11:37:57.414160,2018-09-17 11:38:01.351386,0:00:03.937226,4,right,1,0.3172209286881298,31,m,2,4,2018_Sep_17_1121,MP_PerceptionTuring2,59.94784021666371,
139,resources/videos_generated\model(vcgpdm)-dataset(walking)-mode(ELBO)-parts(2)-dyn(26)-lvm(19)_final(6).mov,resources/videos_natural\training(43).mov,True,True,left,0,138,138,138,2018-09-17 11:38:02.785468,2018-09-17 11:38:06.755695,0:00:03.970227,4,right,0,0.31733176001034735,31,m,2,4,2018_Sep_17_1121,MP_PerceptionTuring2,59.94784021666371,
140,resources/videos_generated\model(vcgpdm)-dataset(walking)-mode(ELBO)-parts(2)-dyn(23)-lvm(20)_final(0).mov,resources/videos_natural\training(44).mov,True,True,left,0,139,139,139,2018-09-17 11:38:08.189777,2018-09-17 11:38:12.111001,0:00:03.921224,4,left,1,0.3839067498986424,31,m,2,4,2018_Sep_17_1121,MP_PerceptionTuring2,59.94784021666371,
141,resources/videos_generated\model(vcgpdm)-dataset(walking)-mode(ELBO)-parts(1)-dyn(23)-lvm(26)_final(8)_hip-corrected.mov,resources/videos_natural\training(15).mov,True,False,right,0,140,140,140,2018-09-17 11:38:13.611087,2018-09-17 11:38:17.732323,0:00:04.121236,4,right,1,0.383828143988012,31,m,2,4,2018_Sep_17_1121,MP_PerceptionTuring2,59.94784021666371,
142,resources/videos_generated\model(vcgpdm)-dataset(walking)-mode(ELBO)-parts(1)-dyn(27)-lvm(28)_final(4).mov,resources/videos_natural\training(0).mov,True,True,left,0,141,141,141,2018-09-17 11:38:19.233408,2018-09-17 11:38:23.303641,0:00:04.070233,4,right,0,0.28385678545191695,31,m,2,4,2018_Sep_17_1121,MP_PerceptionTuring2,59.94784021666371,
143,resources/videos_generated\model(vcgpdm)-dataset(walking)-mode(ELBO)-parts(1)-dyn(22)-lvm(25)_final(1).mov,resources/videos_natural\training(1).mov,False,True,left,0,142,142,142,2018-09-17 11:38:24.704721,2018-09-17 11:38:28.724951,0:00:04.020230,4,left,1,0.5007585018615828,31,m,2,4,2018_Sep_17_1121,MP_PerceptionTuring2,59.94784021666371,
144,resources/videos_generated\model(tmp)-dataset(walking)-numprim(12)_final(5).mov,resources/videos_natural\training(8).mov,False,False,right,0,143,143,143,2018-09-17 11:38:30.343044,2018-09-17 11:38:34.379275,0:00:04.036231,4,left,0,0.36718236360434275,31,m,2,4,2018_Sep_17_1121,MP_PerceptionTuring2,59.94784021666371,
145,resources/videos_generated\model(vcgpdm)-dataset(walking)-mode(ELBO)-parts(1)-dyn(22)-lvm(25)_final(5).mov,resources/videos_natural\training(31).mov,True,False,right,0,144,144,144,2018-09-17 11:38:35.864360,2018-09-17 11:38:39.901591,0:00:04.037231,4,right,1,0.28385919482843747,31,m,2,4,2018_Sep_17_1121,MP_PerceptionTuring2,59.94784021666371,
146,resources/videos_generated\model(dmp)-dataset(walking)-npsi(90)_final(9).mov,resources/videos_natural\training(47).mov,False,True,left,0,145,145,145,2018-09-17 11:38:41.302671,2018-09-17 11:38:45.205894,0:00:03.903223,4,right,0,0.26719594646488076,31,m,2,4,2018_Sep_17_1121,MP_PerceptionTuring2,59.94784021666371,
147,resources/videos_generated\model(dmp)-dataset(walking)-npsi(90)_final(5).mov,resources/videos_natural\training(14).mov,False,True,left,0,146,146,146,2018-09-17 11:38:46.589973,2018-09-17 11:38:50.610203,0:00:04.020230,4,right,0,0.3004715451120319,31,m,2,4,2018_Sep_17_1121,MP_PerceptionTuring2,59.94784021666371,
148,resources/videos_generated\model(tmp)-dataset(walking)-numprim(12)_final(9).mov,resources/videos_natural\training(10).mov,True,False,right,0,147,147,147,2018-09-17 11:38:52.028284,2018-09-17 11:38:55.931507,0:00:03.903223,4,left,0,0.3170104094103863,31,m,2,4,2018_Sep_17_1121,MP_PerceptionTuring2,59.94784021666371,
149,resources/videos_generated\model(vcgpdm)-dataset(walking)-mode(ELBO)-parts(1)-dyn(25)-lvm(24)_final(0).mov,resources/videos_natural\training(1).mov,True,True,left,0,148,148,148,2018-09-17 11:38:57.365589,2018-09-17 11:39:01.285814,0:00:03.920225,4,left,1,0.4672928636373399,31,m,2,4,2018_Sep_17_1121,MP_PerceptionTuring2,59.94784021666371,
150,resources/videos_generated\model(vcgpdm)-dataset(walking)-mode(ELBO)-parts(2)-dyn(24)-lvm(17)_final(8).mov,resources/videos_natural\training(45).mov,False,False,right,0,149,149,149,2018-09-17 11:39:02.870904,2018-09-17 11:39:06.808130,0:00:03.937226,4,right,1,0.3172043642243807,31,m,2,4,2018_Sep_17_1121,MP_PerceptionTuring2,59.94784021666371,
151,resources/videos_generated\model(vcgpdm)-dataset(walking)-mode(ELBO)-parts(1)-dyn(23)-lvm(22)_final(2).mov,resources/videos_natural\training(39).mov,True,True,left,0,150,150,150,2018-09-17 11:39:08.242212,2018-09-17 11:39:12.212439,0:00:03.970227,4,left,1,0.36722513003860513,31,m,2,4,2018_Sep_17_1121,MP_PerceptionTuring2,59.94784021666371,
152,resources/videos_generated\model(vcgpdm)-dataset(walking)-mode(ELBO)-parts(1)-dyn(23)-lvm(26)_final(0).mov,resources/videos_natural\training(0).mov,True,False,right,0,151,151,151,2018-09-17 11:39:13.696524,2018-09-17 11:39:17.666751,0:00:03.970227,4,left,0,0.3338486387474404,31,m,2,4,2018_Sep_17_1121,MP_PerceptionTuring2,59.94784021666371,
153,resources/videos_generated\model(vcgpdm)-dataset(walking)-mode(ELBO)-parts(1)-dyn(22)-lvm(28)_final(2).mov,resources/videos_natural\training(8).mov,False,True,left,0,152,152,152,2018-09-17 11:39:19.117834,2018-09-17 11:39:23.088061,0:00:03.970227,4,right,0,0.3004998552867164,31,m,2,4,2018_Sep_17_1121,MP_PerceptionTuring2,59.94784021666371,
154,resources/videos_generated\model(vcgpdm)-dataset(walking)-mode(ELBO)-parts(2)-dyn(28)-lvm(19)_final(0).mov,resources/videos_natural\training(13).mov,False,False,right,0,153,153,153,2018-09-17 11:39:24.506142,2018-09-17 11:39:28.626377,0:00:04.120235,4,right,1,0.33395706069313746,31,m,2,4,2018_Sep_17_1121,MP_PerceptionTuring2,59.94784021666371,
155,resources/videos_generated\model(vcgpdm)-dataset(walking)-mode(ELBO)-parts(2)-dyn(23)-lvm(18)_final(6).mov,resources/videos_natural\training(24).mov,False,True,left,0,154,154,154,2018-09-17 11:39:30.077460,2018-09-17 11:39:33.980684,0:00:03.903224,4,left,1,0.367256451934054,31,m,2,4,2018_Sep_17_1121,MP_PerceptionTuring2,59.94784021666371,
156,resources/videos_generated\model(dmp)-dataset(walking)-npsi(100)_final(9).mov,resources/videos_natural\training(43).mov,False,False,right,0,155,155,155,2018-09-17 11:39:35.465769,2018-09-17 11:39:39.368992,0:00:03.903223,4,right,1,0.25039265308805625,31,m,2,4,2018_Sep_17_1121,MP_PerceptionTuring2,59.94784021666371,
157,resources/videos_generated\model(vcgpdm)-dataset(walking)-mode(ELBO)-parts(2)-dyn(23)-lvm(22)_final(8).mov,resources/videos_natural\training(48).mov,True,True,left,0,156,156,156,2018-09-17 11:39:40.737070,2018-09-17 11:39:44.673295,0:00:03.936225,4,left,1,0.2504348171780748,31,m,2,4,2018_Sep_17_1121,MP_PerceptionTuring2,59.94784021666371,
158,resources/videos_generated\model(vcgpdm)-dataset(walking)-mode(ELBO)-parts(2)-dyn(26)-lvm(17)_final(0).mov,resources/videos_natural\training(15).mov,True,True,left,0,157,157,157,2018-09-17 11:39:46.041374,2018-09-17 11:39:49.978599,0:00:03.937225,4,left,1,0.30052244319222154,31,m,2,4,2018_Sep_17_1121,MP_PerceptionTuring2,59.94784021666371,
159,resources/videos_generated\model(vcgpdm)-dataset(walking)-mode(ELBO)-parts(2)-dyn(22)-lvm(19)_final(6).mov,resources/videos_natural\training(22).mov,True,True,left,0,158,158,158,2018-09-17 11:39:51.395680,2018-09-17 11:39:55.299903,0:00:03.904223,4,left,1,0.3170646203830074,31,m,2,4,2018_Sep_17_1121,MP_PerceptionTuring2,59.94784021666371,
160,resources/videos_generated\model(vcgpdm)-dataset(walking)-mode(ELBO)-parts(1)-dyn(24)-lvm(23)_final(5).mov,resources/videos_natural\training(8).mov,True,False,right,0,159,159,159,2018-09-17 11:39:56.733985,2018-09-17 11:40:00.671210,0:00:03.937225,4,right,1,0.4672781062058675,31,m,2,4,2018_Sep_17_1121,MP_PerceptionTuring2,59.94784021666371,
161,resources/videos_generated\model(vcgpdm)-dataset(walking)-mode(ELBO)-parts(2)-dyn(25)-lvm(22)_final(4).mov,resources/videos_natural\training(28).mov,False,True,left,0,160,160,160,2018-09-17 11:40:02.255301,2018-09-17 11:40:06.208527,0:00:03.953226,4,left,1,0.30053900765597064,31,m,2,4,2018_Sep_17_1121,MP_PerceptionTuring2,59.94784021666371,
162,resources/videos_generated\model(vcgpdm)-dataset(walking)-mode(ELBO)-parts(1)-dyn(27)-lvm(28)_final(0).mov,resources/videos_natural\training(34).mov,True,True,left,0,161,161,161,2018-09-17 11:40:07.626608,2018-09-17 11:40:11.596835,0:00:03.970227,4,left,1,0.35067632706204677,31,m,2,4,2018_Sep_17_1121,MP_PerceptionTuring2,59.94784021666371,
163,resources/videos_generated\model(vcgpdm)-dataset(walking)-mode(ELBO)-parts(1)-dyn(22)-lvm(22)_final(7).mov,resources/videos_natural\training(11).mov,False,False,right,0,162,162,162,2018-09-17 11:40:13.064919,2018-09-17 11:40:17.018145,0:00:03.953226,4,right,1,0.4005531326263281,31,m,2,4,2018_Sep_17_1121,MP_PerceptionTuring2,59.94784021666371,
164,resources/videos_generated\model(vcgpdm)-dataset(walking)-mode(ELBO)-parts(1)-dyn(23)-lvm(22)_final(6)_fail.mov,resources/videos_natural\training(12).mov,True,True,left,0,163,163,163,2018-09-17 11:40:18.536232,2018-09-17 11:40:22.489458,0:00:03.953226,4,left,1,0.5173910306739344,31,m,2,4,2018_Sep_17_1121,MP_PerceptionTuring2,59.94784021666371,
165,resources/videos_generated\model(vcgpdm)-dataset(walking)-mode(ELBO)-parts(2)-dyn(22)-lvm(19)_final(2).mov,resources/videos_natural\training(12).mov,False,False,right,0,164,164,164,2018-09-17 11:40:24.124552,2018-09-17 11:40:28.060777,0:00:03.936225,4,right,1,0.250261944408976,31,m,2,4,2018_Sep_17_1121,MP_PerceptionTuring2,59.94784021666371,
166,resources/videos_generated\model(tmp)-dataset(walking)-numprim(15)_final(5).mov,resources/videos_natural\training(32).mov,True,False,right,0,165,165,165,2018-09-17 11:40:29.428855,2018-09-17 11:40:33.316078,0:00:03.887223,4,left,0,0.4005531326261007,31,m,2,4,2018_Sep_17_1121,MP_PerceptionTuring2,59.94784021666371,
167,resources/videos_generated\model(vcgpdm)-dataset(walking)-mode(ELBO)-parts(1)-dyn(22)-lvm(27)_final(9)_hip-corrected.mov,resources/videos_natural\training(46).mov,True,False,right,0,166,166,166,2018-09-17 11:40:34.833164,2018-09-17 11:40:38.820392,0:00:03.987228,4,right,1,0.23364477537234052,31,m,2,4,2018_Sep_17_1121,MP_PerceptionTuring2,59.94784021666371,
168,resources/videos_generated\model(vcgpdm)-dataset(walking)-mode(ELBO)-parts(2)-dyn(22)-lvm(23)_final(0).mov,resources/videos_natural\training(44).mov,False,False,right,0,167,167,167,2018-09-17 11:40:40.171470,2018-09-17 11:40:44.108695,0:00:03.937225,4,right,1,0.25040319411050405,31,m,2,4,2018_Sep_17_1121,MP_PerceptionTuring2,59.94784021666371,
169,resources/videos_generated\model(vcgpdm)-dataset(walking)-mode(ELBO)-parts(1)-dyn(24)-lvm(27)_final(5).mov,resources/videos_natural\training(2).mov,False,False,right,0,168,168,168,2018-09-17 11:40:45.475773,2018-09-17 11:40:49.395997,0:00:03.920224,4,right,1,0.2671757679361235,31,m,2,4,2018_Sep_17_1121,MP_PerceptionTuring2,59.94784021666371,
170,resources/videos_generated\model(vcgpdm)-dataset(walking)-mode(ELBO)-parts(1)-dyn(28)-lvm(27)_final(0).mov,resources/videos_natural\training(46).mov,True,False,right,0,169,169,169,2018-09-17 11:40:50.781076,2018-09-17 11:40:54.717302,0:00:03.936226,4,right,1,0.31719171499707954,31,m,2,4,2018_Sep_17_1121,MP_PerceptionTuring2,59.94784021666371,
171,resources/videos_generated\model(vcgpdm)-dataset(walking)-mode(ELBO)-parts(2)-dyn(26)-lvm(21)_final(0).mov,resources/videos_natural\training(21).mov,False,True,left,0,170,170,170,2018-09-17 11:40:56.152384,2018-09-17 11:41:00.088609,0:00:03.936225,4,right,0,0.31722725330178037,31,m,2,4,2018_Sep_17_1121,MP_PerceptionTuring2,59.94784021666371,
172,resources/videos_generated\model(vcgpdm)-dataset(walking)-mode(ELBO)-parts(1)-dyn(22)-lvm(22)_final(1).mov,resources/videos_natural\training(6).mov,False,False,right,0,171,171,171,2018-09-17 11:41:01.523691,2018-09-17 11:41:05.443915,0:00:03.920224,4,right,1,0.2506622020919167,31,m,2,4,2018_Sep_17_1121,MP_PerceptionTuring2,59.94784021666371,
173,resources/videos_generated\model(vcgpdm)-dataset(walking)-mode(ELBO)-parts(1)-dyn(26)-lvm(27)_final(0).mov,resources/videos_natural\training(17).mov,True,False,right,0,172,172,172,2018-09-17 11:41:06.810993,2018-09-17 11:41:10.731218,0:00:03.920225,4,right,1,0.3006158065340969,31,m,2,4,2018_Sep_17_1121,MP_PerceptionTuring2,59.94784021666371,
174,resources/videos_generated\model(tmp)-dataset(walking)-numprim(13)_final(3).mov,resources/videos_natural\training(10).mov,False,False,right,0,173,173,173,2018-09-17 11:41:12.149299,2018-09-17 11:41:16.069523,0:00:03.920224,4,left,0,0.33409017874873825,31,m,2,4,2018_Sep_17_1121,MP_PerceptionTuring2,59.94784021666371,
175,resources/videos_generated\model(vcgpdm)-dataset(walking)-mode(ELBO)-parts(1)-dyn(28)-lvm(27)_final(2).mov,resources/videos_natural\training(24).mov,False,False,right,0,174,174,174,2018-09-17 11:41:17.520606,2018-09-17 11:41:21.423829,0:00:03.903223,4,right,1,0.28390828587612305,31,m,2,4,2018_Sep_17_1121,MP_PerceptionTuring2,59.94784021666371,
176,resources/videos_generated\model(vcgpdm)-dataset(walking)-mode(ELBO)-parts(2)-dyn(24)-lvm(19)_final(4).mov,resources/videos_natural\training(11).mov,False,True,left,0,175,175,175,2018-09-17 11:41:22.824909,2018-09-17 11:41:26.912143,0:00:04.087234,4,right,0,0.31719020913692475,31,m,2,4,2018_Sep_17_1121,MP_PerceptionTuring2,59.94784021666371,
177,resources/videos_generated\model(dmp)-dataset(walking)-npsi(70)_final(5).mov,resources/videos_natural\training(28).mov,True,True,left,0,176,176,176,2018-09-17 11:41:28.346225,2018-09-17 11:41:32.316452,0:00:03.970227,4,left,1,0.3505892883335946,31,m,2,4,2018_Sep_17_1121,MP_PerceptionTuring2,59.94784021666371,
178,resources/videos_generated\model(vcgpdm)-dataset(walking)-mode(ELBO)-parts(2)-dyn(23)-lvm(20)_final(6).mov,resources/videos_natural\training(37).mov,True,False,right,0,177,177,177,2018-09-17 11:41:33.784536,2018-09-17 11:41:37.704760,0:00:03.920224,4,right,1,0.26722787070434606,31,m,2,4,2018_Sep_17_1121,MP_PerceptionTuring2,59.94784021666371,
179,resources/videos_generated\model(vcgpdm)-dataset(walking)-mode(ELBO)-parts(1)-dyn(22)-lvm(27)_final(3)_fail.mov,resources/videos_natural\training(25).mov,False,True,left,0,178,178,178,2018-09-17 11:41:39.088839,2018-09-17 11:41:43.109069,0:00:04.020230,4,left,1,0.26727093831050297,31,m,2,4,2018_Sep_17_1121,MP_PerceptionTuring2,59.94784021666371,
180,resources/videos_generated\model(vcgpdm)-dataset(walking)-mode(ELBO)-parts(1)-dyn(28)-lvm(23)_final(6)_fail.mov,resources/videos_natural\training(6).mov,False,False,right,0,179,179,179,2018-09-17 11:41:44.494149,2018-09-17 11:41:48.480377,0:00:03.986228,4,right,1,0.31717063295218395,31,m,2,4,2018_Sep_17_1121,MP_PerceptionTuring2,59.94784021666371,
181,resources/videos_generated\model(vcgpdm)-dataset(walking)-mode(ELBO)-parts(2)-dyn(24)-lvm(23)_final(4).mov,resources/videos_natural\training(47).mov,True,True,left,0,180,180,180,2018-09-17 11:42:23.794396,2018-09-17 11:42:27.714621,0:00:03.920225,5,left,1,0.40050855915956163,31,m,2,4,2018_Sep_17_1121,MP_PerceptionTuring2,59.94784021666371,
182,resources/videos_generated\model(vcgpdm)-dataset(walking)-mode(ELBO)-parts(2)-dyn(25)-lvm(18)_final(6).mov,resources/videos_natural\training(10).mov,False,True,left,0,181,181,181,2018-09-17 11:42:29.232708,2018-09-17 11:42:33.185934,0:00:03.953226,5,right,0,0.33380617348529995,31,m,2,4,2018_Sep_17_1121,MP_PerceptionTuring2,59.94784021666371,
183,resources/videos_generated\model(dmp)-dataset(walking)-npsi(90)_final(7).mov,resources/videos_natural\training(47).mov,True,True,left,0,182,182,182,2018-09-17 11:42:34.637017,2018-09-17 11:42:38.607244,0:00:03.970227,5,right,0,0.2671260745441941,31,m,2,4,2018_Sep_17_1121,MP_PerceptionTuring2,59.94784021666371,
184,resources/videos_generated\model(vcgpdm)-dataset(walking)-mode(ELBO)-parts(2)-dyn(26)-lvm(17)_final(6).mov,resources/videos_natural\training(16).mov,True,True,left,0,183,183,183,2018-09-17 11:42:39.992323,2018-09-17 11:42:44.062556,0:00:04.070233,5,left,1,0.367585030663804,31,m,2,4,2018_Sep_17_1121,MP_PerceptionTuring2,59.94784021666371,
185,resources/videos_generated\model(dmp)-dataset(walking)-npsi(50)_final(7).mov,resources/videos_natural\training(10).mov,True,True,left,0,184,184,184,2018-09-17 11:42:45.546641,2018-09-17 11:42:49.516868,0:00:03.970227,5,left,1,0.28376854203497714,31,m,2,4,2018_Sep_17_1121,MP_PerceptionTuring2,59.94784021666371,
186,resources/videos_generated\model(tmp)-dataset(walking)-numprim(13)_final(1).mov,resources/videos_natural\training(29).mov,False,True,left,0,185,185,185,2018-09-17 11:42:50.917948,2018-09-17 11:42:54.855173,0:00:03.937225,5,right,0,0.4340097356885053,31,m,2,4,2018_Sep_17_1121,MP_PerceptionTuring2,59.94784021666371,
187,resources/videos_generated\model(dmp)-dataset(walking)-npsi(50)_final(3).mov,resources/videos_natural\training(16).mov,False,False,right,0,186,186,186,2018-09-17 11:42:56.406262,2018-09-17 11:43:00.309485,0:00:03.903223,5,right,1,0.4340952685565753,31,m,2,4,2018_Sep_17_1121,MP_PerceptionTuring2,59.94784021666371,
188,resources/videos_generated\model(vcgpdm)-dataset(walking)-mode(ELBO)-parts(1)-dyn(28)-lvm(23)_final(2).mov,resources/videos_natural\training(48).mov,False,False,right,0,187,187,187,2018-09-17 11:43:01.860574,2018-09-17 11:43:05.763797,0:00:03.903223,5,right,1,0.40066787918544833,31,m,2,4,2018_Sep_17_1121,MP_PerceptionTuring2,59.94784021666371,
189,resources/videos_generated\model(vcgpdm)-dataset(walking)-mode(ELBO)-parts(1)-dyn(23)-lvm(24)_final(4).mov,resources/videos_natural\training(22).mov,True,True,left,0,188,188,188,2018-09-17 11:43:07.281884,2018-09-17 11:43:11.369118,0:00:04.087234,5,left,1,0.3837889916187578,31,m,2,4,2018_Sep_17_1121,MP_PerceptionTuring2,59.94784021666371,
190,resources/videos_generated\model(vcgpdm)-dataset(walking)-mode(ELBO)-parts(2)-dyn(24)-lvm(17)_final(4).mov,resources/videos_natural\training(39).mov,True,True,left,0,189,189,189,2018-09-17 11:43:12.870203,2018-09-17 11:43:16.807429,0:00:03.937226,5,left,1,0.4171995153537864,31,m,2,4,2018_Sep_17_1121,MP_PerceptionTuring2,59.94784021666371,
191,resources/videos_generated\model(vcgpdm)-dataset(walking)-mode(ELBO)-parts(2)-dyn(27)-lvm(22)_final(8).mov,resources/videos_natural\training(30).mov,True,True,left,0,190,190,190,2018-09-17 11:43:18.341516,2018-09-17 11:43:22.278742,0:00:03.937226,5,left,1,0.2502523069028939,31,m,2,4,2018_Sep_17_1121,MP_PerceptionTuring2,59.94784021666371,
192,resources/videos_generated\model(vcgpdm)-dataset(walking)-mode(ELBO)-parts(2)-dyn(25)-lvm(20)_final(8).mov,resources/videos_natural\training(17).mov,False,True,left,0,191,191,191,2018-09-17 11:43:23.645820,2018-09-17 11:43:27.600046,0:00:03.954226,5,right,0,0.3339106801940943,31,m,2,4,2018_Sep_17_1121,MP_PerceptionTuring2,59.94784021666371,
193,resources/videos_generated\model(vcgpdm)-dataset(walking)-mode(ELBO)-parts(1)-dyn(22)-lvm(23)_final(3)_fail.mov,resources/videos_natural\training(0).mov,True,True,left,0,192,192,192,2018-09-17 11:43:29.051129,2018-09-17 11:43:33.071359,0:00:04.020230,5,left,1,0.3840317363080885,31,m,2,4,2018_Sep_17_1121,MP_PerceptionTuring2,59.94784021666371,
194,resources/videos_generated\model(vcgpdm)-dataset(walking)-mode(ELBO)-parts(2)-dyn(26)-lvm(17)_final(2).mov,resources/videos_natural\training(3).mov,False,False,right,0,193,193,193,2018-09-17 11:43:34.572445,2018-09-17 11:43:38.525671,0:00:03.953226,5,right,1,0.2839603886443456,31,m,2,4,2018_Sep_17_1121,MP_PerceptionTuring2,59.94784021666371,
195,resources/videos_generated\model(vcgpdm)-dataset(walking)-mode(ELBO)-parts(2)-dyn(23)-lvm(18)_final(8).mov,resources/videos_natural\training(25).mov,False,False,right,0,194,194,194,2018-09-17 11:43:39.926751,2018-09-17 11:43:43.829974,0:00:03.903223,5,right,1,0.6175003260186713,31,m,2,4,2018_Sep_17_1121,MP_PerceptionTuring2,59.94784021666371,
196,resources/videos_generated\model(vcgpdm)-dataset(walking)-mode(ELBO)-parts(1)-dyn(28)-lvm(23)_final(0).mov,resources/videos_natural\training(11).mov,True,False,right,0,195,195,195,2018-09-17 11:43:45.565074,2018-09-17 11:43:49.485298,0:00:03.920224,5,left,0,0.28363361694709965,31,m,2,4,2018_Sep_17_1121,MP_PerceptionTuring2,59.94784021666371,
197,resources/videos_generated\model(dmp)-dataset(walking)-npsi(100)_final(1).mov,resources/videos_natural\training(30).mov,True,True,left,0,196,196,196,2018-09-17 11:43:50.886378,2018-09-17 11:43:54.823603,0:00:03.937225,5,right,0,0.3838447084519885,31,m,2,4,2018_Sep_17_1121,MP_PerceptionTuring2,59.94784021666371,
198,resources/videos_generated\model(vcgpdm)-dataset(walking)-mode(ELBO)-parts(2)-dyn(27)-lvm(18)_final(6).mov,resources/videos_natural\training(27).mov,True,True,left,0,197,197,197,2018-09-17 11:43:56.324689,2018-09-17 11:44:00.210911,0:00:03.886222,5,left,1,0.3006733303998317,31,m,2,4,2018_Sep_17_1121,MP_PerceptionTuring2,59.94784021666371,
199,resources/videos_generated\model(tmp)-dataset(walking)-numprim(11)_final(9).mov,resources/videos_natural\training(9).mov,False,True,left,0,198,198,198,2018-09-17 11:44:01.628992,2018-09-17 11:44:05.532216,0:00:03.903224,5,right,0,0.31713840754059675,31,m,2,4,2018_Sep_17_1121,MP_PerceptionTuring2,59.94784021666371,
200,resources/videos_generated\model(vcgpdm)-dataset(walking)-mode(ELBO)-parts(1)-dyn(26)-lvm(23)_final(2).mov,resources/videos_natural\training(48).mov,False,False,right,0,199,199,199,2018-09-17 11:44:06.967298,2018-09-17 11:44:10.870521,0:00:03.903223,5,left,0,0.33382123208889425,31,m,2,4,2018_Sep_17_1121,MP_PerceptionTuring2,59.94784021666371,
201,resources/videos_generated\model(vcgpdm)-dataset(walking)-mode(ELBO)-parts(1)-dyn(25)-lvm(24)_final(2).mov,resources/videos_natural\training(32).mov,False,True,left,0,200,200,200,2018-09-17 11:44:12.321604,2018-09-17 11:44:16.241828,0:00:03.920224,5,left,1,0.28371734278289296,31,m,2,4,2018_Sep_17_1121,MP_PerceptionTuring2,59.94784021666371,
202,resources/videos_generated\model(vcgpdm)-dataset(walking)-mode(ELBO)-parts(1)-dyn(26)-lvm(25)_final(8).mov,resources/videos_natural\training(35).mov,False,False,right,0,201,201,201,2018-09-17 11:44:17.642908,2018-09-17 11:44:21.546132,0:00:03.903224,5,right,1,0.40057331115485795,31,m,2,4,2018_Sep_17_1121,MP_PerceptionTuring2,59.94784021666371,
203,resources/videos_generated\model(vcgpdm)-dataset(walking)-mode(ELBO)-parts(1)-dyn(25)-lvm(28)_final(7).mov,resources/videos_natural\training(43).mov,False,False,right,0,202,202,202,2018-09-17 11:44:23.064218,2018-09-17 11:44:26.967442,0:00:03.903224,5,right,1,0.31724743183031023,31,m,2,4,2018_Sep_17_1121,MP_PerceptionTuring2,59.94784021666371,
204,resources/videos_generated\model(vcgpdm)-dataset(walking)-mode(ELBO)-parts(2)-dyn(23)-lvm(20)_final(4).mov,resources/videos_natural\training(0).mov,True,True,left,0,203,203,203,2018-09-17 11:44:28.402524,2018-09-17 11:44:32.338749,0:00:03.936225,5,right,0,0.4172561357033828,31,m,2,4,2018_Sep_17_1121,MP_PerceptionTuring2,59.94784021666371,
205,resources/videos_generated\model(vcgpdm)-dataset(walking)-mode(ELBO)-parts(2)-dyn(27)-lvm(22)_final(2).mov,resources/videos_natural\training(31).mov,False,True,left,0,204,204,204,2018-09-17 11:44:33.873837,2018-09-17 11:44:37.810062,0:00:03.936225,5,right,0,0.3004670275308854,31,m,2,4,2018_Sep_17_1121,MP_PerceptionTuring2,59.94784021666371,
206,resources/videos_generated\model(tmp)-dataset(walking)-numprim(12)_final(3).mov,resources/videos_natural\training(2).mov,True,True,left,0,205,205,205,2018-09-17 11:44:39.228143,2018-09-17 11:44:43.115365,0:00:03.887222,5,right,0,0.3337347957044585,31,m,2,4,2018_Sep_17_1121,MP_PerceptionTuring2,59.94784021666371,
207,resources/videos_generated\model(vcgpdm)-dataset(walking)-mode(ELBO)-parts(1)-dyn(24)-lvm(25)_final(3).mov,resources/videos_natural\training(27).mov,False,False,right,0,206,206,206,2018-09-17 11:44:44.566448,2018-09-17 11:44:48.502673,0:00:03.936225,5,right,1,0.5006512846043734,31,m,2,4,2018_Sep_17_1121,MP_PerceptionTuring2,59.94784021666371,
208,resources/videos_generated\model(vcgpdm)-dataset(walking)-mode(ELBO)-parts(2)-dyn(23)-lvm(22)_final(6).mov,resources/videos_natural\training(15).mov,False,True,left,0,207,207,207,2018-09-17 11:44:50.120766,2018-09-17 11:44:54.023989,0:00:03.903223,5,left,1,0.38384380493562276,31,m,2,4,2018_Sep_17_1121,MP_PerceptionTuring2,59.94784021666371,
209,resources/videos_generated\model(vcgpdm)-dataset(walking)-mode(ELBO)-parts(2)-dyn(24)-lvm(21)_final(0).mov,resources/videos_natural\training(19).mov,False,False,right,0,208,208,208,2018-09-17 11:44:55.526075,2018-09-17 11:44:59.429298,0:00:03.903223,5,left,0,0.3004549806482828,31,m,2,4,2018_Sep_17_1121,MP_PerceptionTuring2,59.94784021666371,
210,resources/videos_generated\model(vcgpdm)-dataset(walking)-mode(ELBO)-parts(2)-dyn(26)-lvm(23)_final(6).mov,resources/videos_natural\training(42).mov,True,True,left,0,209,209,209,2018-09-17 11:45:00.847379,2018-09-17 11:45:04.917612,0:00:04.070233,5,left,1,0.26716522691344835,31,m,2,4,2018_Sep_17_1121,MP_PerceptionTuring2,59.94784021666371,
211,resources/videos_generated\model(vcgpdm)-dataset(walking)-mode(ELBO)-parts(2)-dyn(22)-lvm(17)_final(4).mov,resources/videos_natural\training(33).mov,False,True,left,0,210,210,210,2018-09-17 11:45:06.301691,2018-09-17 11:45:10.238917,0:00:03.937226,5,left,1,0.23367820547218798,31,m,2,4,2018_Sep_17_1121,MP_PerceptionTuring2,59.94784021666371,
212,resources/videos_generated\model(vcgpdm)-dataset(walking)-mode(ELBO)-parts(2)-dyn(23)-lvm(22)_final(2).mov,resources/videos_natural\training(33).mov,True,False,right,0,211,211,211,2018-09-17 11:45:11.589994,2018-09-17 11:45:15.643226,0:00:04.053232,5,right,1,0.35063717469256517,31,m,2,4,2018_Sep_17_1121,MP_PerceptionTuring2,59.94784021666371,
213,resources/videos_generated\model(vcgpdm)-dataset(walking)-mode(ELBO)-parts(1)-dyn(22)-lvm(27)_final(7)_hip-corrected.mov,resources/videos_natural\training(33).mov,True,False,right,0,212,212,212,2018-09-17 11:45:17.111310,2018-09-17 11:45:21.064536,0:00:03.953226,5,right,1,0.2672293765647282,31,m,2,4,2018_Sep_17_1121,MP_PerceptionTuring2,59.94784021666371,
214,resources/videos_generated\model(vcgpdm)-dataset(walking)-mode(ELBO)-parts(2)-dyn(27)-lvm(18)_final(4).mov,resources/videos_natural\training(18).mov,False,False,right,0,213,213,213,2018-09-17 11:45:22.448615,2018-09-17 11:45:26.385840,0:00:03.937225,5,right,1,0.28380528502771085,31,m,2,4,2018_Sep_17_1121,MP_PerceptionTuring2,59.94784021666371,
215,resources/videos_generated\model(vcgpdm)-dataset(walking)-mode(ELBO)-parts(1)-dyn(22)-lvm(23)_final(5).mov,resources/videos_natural\training(13).mov,False,False,right,0,214,214,214,2018-09-17 11:45:27.786920,2018-09-17 11:45:31.674143,0:00:03.887223,5,right,1,0.2837525799152445,31,m,2,4,2018_Sep_17_1121,MP_PerceptionTuring2,59.94784021666371,
216,resources/videos_generated\model(dmp)-dataset(walking)-npsi(90)_final(1).mov,resources/videos_natural\training(1).mov,True,False,right,0,215,215,215,2018-09-17 11:45:33.075223,2018-09-17 11:45:37.011448,0:00:03.936225,5,right,1,0.2671838995820508,31,m,2,4,2018_Sep_17_1121,MP_PerceptionTuring2,59.94784021666371,
217,resources/videos_generated\model(vcgpdm)-dataset(walking)-mode(ELBO)-parts(2)-dyn(25)-lvm(20)_final(2).mov,resources/videos_natural\training(8).mov,False,True,left,0,216,216,216,2018-09-17 11:45:38.395527,2018-09-17 11:45:42.299750,0:00:03.904223,5,right,0,0.26732514928357887,31,m,2,4,2018_Sep_17_1121,MP_PerceptionTuring2,59.94784021666371,
218,resources/videos_generated\model(vcgpdm)-dataset(walking)-mode(ELBO)-parts(2)-dyn(26)-lvm(23)_final(4).mov,resources/videos_natural\training(36).mov,False,False,right,0,217,217,217,2018-09-17 11:45:43.683830,2018-09-17 11:45:47.654057,0:00:03.970227,5,right,1,0.5006732701656347,31,m,2,4,2018_Sep_17_1121,MP_PerceptionTuring2,59.94784021666371,
219,resources/videos_generated\model(vcgpdm)-dataset(walking)-mode(ELBO)-parts(1)-dyn(24)-lvm(23)_final(9).mov,resources/videos_natural\training(38).mov,True,True,left,0,218,218,218,2018-09-17 11:45:49.272149,2018-09-17 11:45:53.359383,0:00:04.087234,5,right,0,0.2837715537557415,31,m,2,4,2018_Sep_17_1121,MP_PerceptionTuring2,59.94784021666371,
220,resources/videos_generated\model(vcgpdm)-dataset(walking)-mode(ELBO)-parts(2)-dyn(27)-lvm(20)_final(0).mov,resources/videos_natural\training(43).mov,False,True,left,0,219,219,219,2018-09-17 11:45:54.760463,2018-09-17 11:45:58.696688,0:00:03.936225,5,right,0,0.35051279062736285,31,m,2,4,2018_Sep_17_1121,MP_PerceptionTuring2,59.94784021666371,
221,resources/videos_generated\model(vcgpdm)-dataset(walking)-mode(ELBO)-parts(1)-dyn(25)-lvm(28)_final(5).mov,resources/videos_natural\training(9).mov,False,False,right,0,220,220,220,2018-09-17 11:46:00.164772,2018-09-17 11:46:04.084996,0:00:03.920224,5,right,1,0.40057812990812636,31,m,2,4,2018_Sep_17_1121,MP_PerceptionTuring2,59.94784021666371,
222,resources/videos_generated\model(vcgpdm)-dataset(walking)-mode(ELBO)-parts(2)-dyn(27)-lvm(18)_final(0).mov,resources/videos_natural\training(45).mov,False,False,right,0,221,221,221,2018-09-17 11:46:05.603083,2018-09-17 11:46:09.539308,0:00:03.936225,5,right,1,0.2838341975464118,31,m,2,4,2018_Sep_17_1121,MP_PerceptionTuring2,59.94784021666371,
223,resources/videos_generated\model(vcgpdm)-dataset(walking)-mode(ELBO)-parts(1)-dyn(23)-lvm(28)_final(1).mov,resources/videos_natural\training(14).mov,True,False,right,0,222,222,222,2018-09-17 11:46:10.941389,2018-09-17 11:46:14.877614,0:00:03.936225,5,right,1,0.23371434612090525,31,m,2,4,2018_Sep_17_1121,MP_PerceptionTuring2,59.94784021666371,
224,resources/videos_generated\model(vcgpdm)-dataset(walking)-mode(ELBO)-parts(2)-dyn(28)-lvm(21)_final(0).mov,resources/videos_natural\training(4).mov,True,False,right,0,223,223,223,2018-09-17 11:46:16.228691,2018-09-17 11:46:20.165916,0:00:03.937225,5,right,1,0.2671829960656851,31,m,2,4,2018_Sep_17_1121,MP_PerceptionTuring2,59.94784021666371,
225,resources/videos_generated\model(dmp)-dataset(walking)-npsi(60)_final(3).mov,resources/videos_natural\training(14).mov,False,True,left,0,224,224,224,2018-09-17 11:46:21.549995,2018-09-17 11:46:25.470220,0:00:03.920225,5,right,0,0.5506856031618099,31,m,2,4,2018_Sep_17_1121,MP_PerceptionTuring2,59.94784021666371,
226,resources/videos_generated\model(vcgpdm)-dataset(walking)-mode(ELBO)-parts(1)-dyn(24)-lvm(23)_final(3)_fail.mov,resources/videos_natural\training(48).mov,False,False,right,0,225,225,225,2018-09-17 11:47:00.016195,2018-09-17 11:47:04.053426,0:00:04.037231,6,right,1,0.3673537305130594,31,m,2,4,2018_Sep_17_1121,MP_PerceptionTuring2,59.94784021666371,
227,resources/videos_generated\model(vcgpdm)-dataset(walking)-mode(ELBO)-parts(1)-dyn(24)-lvm(27)_final(7).mov,resources/videos_natural\training(27).mov,True,True,left,0,226,226,226,2018-09-17 11:47:05.538511,2018-09-17 11:47:09.491737,0:00:03.953226,6,left,1,0.3004869048877481,31,m,2,4,2018_Sep_17_1121,MP_PerceptionTuring2,59.94784021666371,
228,resources/videos_generated\model(tmp)-dataset(walking)-numprim(11)_final(7).mov,resources/videos_natural\training(39).mov,False,False,right,0,227,227,227,2018-09-17 11:47:10.909819,2018-09-17 11:47:14.896047,0:00:03.986228,6,left,0,0.2838125131574998,31,m,2,4,2018_Sep_17_1121,MP_PerceptionTuring2,59.94784021666371,
229,resources/videos_generated\model(vcgpdm)-dataset(walking)-mode(ELBO)-parts(2)-dyn(22)-lvm(23)_final(6).mov,resources/videos_natural\training(38).mov,True,False,right,0,228,228,228,2018-09-17 11:47:16.297127,2018-09-17 11:47:20.384360,0:00:04.087233,6,right,1,0.3170875094601797,31,m,2,4,2018_Sep_17_1121,MP_PerceptionTuring2,59.94784021666371,
230,resources/videos_generated\model(vcgpdm)-dataset(walking)-mode(ELBO)-parts(1)-dyn(24)-lvm(27)_final(1).mov,resources/videos_natural\training(30).mov,False,False,right,0,229,229,229,2018-09-17 11:47:21.818442,2018-09-17 11:47:25.738667,0:00:03.920225,6,right,1,0.33361251984342744,31,m,2,4,2018_Sep_17_1121,MP_PerceptionTuring2,59.94784021666371,
231,resources/videos_generated\model(dmp)-dataset(walking)-npsi(100)_final(3).mov,resources/videos_natural\training(45).mov,True,False,right,0,230,230,230,2018-09-17 11:47:27.189750,2018-09-17 11:47:31.109974,0:00:03.920224,6,right,1,0.41737178577841405,31,m,2,4,2018_Sep_17_1121,MP_PerceptionTuring2,59.94784021666371,
232,resources/videos_generated\model(vcgpdm)-dataset(walking)-mode(ELBO)-parts(1)-dyn(25)-lvm(25)_final(7).mov,resources/videos_natural\training(22).mov,True,True,left,0,231,231,231,2018-09-17 11:47:32.645062,2018-09-17 11:47:36.548285,0:00:03.903223,6,right,0,0.41736787054151137,31,m,2,4,2018_Sep_17_1121,MP_PerceptionTuring2,59.94784021666371,
233,resources/videos_generated\model(vcgpdm)-dataset(walking)-mode(ELBO)-parts(2)-dyn(26)-lvm(19)_final(4).mov,resources/videos_natural\training(7).mov,False,False,right,0,232,232,232,2018-09-17 11:47:38.082373,2018-09-17 11:47:42.002597,0:00:03.920224,6,right,1,0.36724289919084185,31,m,2,4,2018_Sep_17_1121,MP_PerceptionTuring2,59.94784021666371,
234,resources/videos_generated\model(vcgpdm)-dataset(walking)-mode(ELBO)-parts(1)-dyn(23)-lvm(22)_final(4)_fail.mov,resources/videos_natural\training(12).mov,True,False,right,0,233,233,233,2018-09-17 11:47:43.487682,2018-09-17 11:47:47.390905,0:00:03.903223,6,right,1,0.41721758567791767,31,m,2,4,2018_Sep_17_1121,MP_PerceptionTuring2,59.94784021666371,
235,resources/videos_generated\model(dmp)-dataset(walking)-npsi(50)_final(9).mov,resources/videos_natural\training(41).mov,True,True,left,0,234,234,234,2018-09-17 11:47:48.925993,2018-09-17 11:47:52.896220,0:00:03.970227,6,left,1,0.3837525497979186,31,m,2,4,2018_Sep_17_1121,MP_PerceptionTuring2,59.94784021666371,
236,resources/videos_generated\model(vcgpdm)-dataset(walking)-mode(ELBO)-parts(2)-dyn(25)-lvm(20)_final(4).mov,resources/videos_natural\training(34).mov,False,False,right,0,235,235,235,2018-09-17 11:47:54.397306,2018-09-17 11:47:58.316530,0:00:03.919224,6,right,1,0.7008460827000818,31,m,2,4,2018_Sep_17_1121,MP_PerceptionTuring2,59.94784021666371,
237,resources/videos_generated\model(vcgpdm)-dataset(walking)-mode(ELBO)-parts(1)-dyn(27)-lvm(28)_final(2).mov,resources/videos_natural\training(36).mov,True,False,right,0,236,236,236,2018-09-17 11:48:00.135634,2018-09-17 11:48:04.138863,0:00:04.003229,6,right,1,0.5007386245051748,31,m,2,4,2018_Sep_17_1121,MP_PerceptionTuring2,59.94784021666371,
238,resources/videos_generated\model(vcgpdm)-dataset(walking)-mode(ELBO)-parts(2)-dyn(22)-lvm(23)_final(2).mov,resources/videos_natural\training(6).mov,True,False,right,0,237,237,237,2018-09-17 11:48:05.756956,2018-09-17 11:48:09.660179,0:00:03.903223,6,right,1,0.4672889484004372,31,m,2,4,2018_Sep_17_1121,MP_PerceptionTuring2,59.94784021666371,
239,resources/videos_generated\model(tmp)-dataset(walking)-numprim(11)_final(3).mov,resources/videos_natural\training(42).mov,False,True,left,0,238,238,238,2018-09-17 11:48:11.245270,2018-09-17 11:48:15.148493,0:00:03.903223,6,right,0,0.3995601683068344,31,m,2,4,2018_Sep_17_1121,MP_PerceptionTuring2,59.94784021666371,
240,resources/videos_generated\model(vcgpdm)-dataset(walking)-mode(ELBO)-parts(1)-dyn(26)-lvm(27)_final(8).mov,resources/videos_natural\training(20).mov,False,True,left,0,239,239,239,2018-09-17 11:48:16.666580,2018-09-17 11:48:20.619806,0:00:03.953226,6,right,0,0.483861543970761,31,m,2,4,2018_Sep_17_1121,MP_PerceptionTuring2,59.94784021666371,
241,resources/videos_generated\model(vcgpdm)-dataset(walking)-mode(ELBO)-parts(1)-dyn(25)-lvm(26)_final(5).mov,resources/videos_natural\training(28).mov,False,False,right,0,240,240,240,2018-09-17 11:48:22.220897,2018-09-17 11:48:26.291130,0:00:04.070233,6,right,1,0.6339518504159969,31,m,2,4,2018_Sep_17_1121,MP_PerceptionTuring2,59.94784021666371,
242,resources/videos_generated\model(vcgpdm)-dataset(walking)-mode(ELBO)-parts(1)-dyn(24)-lvm(25)_final(7).mov,resources/videos_natural\training(15).mov,True,False,right,0,241,241,241,2018-09-17 11:48:28.042230,2018-09-17 11:48:31.946454,0:00:03.904224,6,right,1,0.4172064423119082,31,m,2,4,2018_Sep_17_1121,MP_PerceptionTuring2,59.94784021666371,
243,resources/videos_generated\model(vcgpdm)-dataset(walking)-mode(ELBO)-parts(1)-dyn(25)-lvm(28)_final(1).mov,resources/videos_natural\training(7).mov,True,False,right,0,242,242,242,2018-09-17 11:48:33.480541,2018-09-17 11:48:37.417767,0:00:03.937226,6,right,1,0.45063985512433646,31,m,2,4,2018_Sep_17_1121,MP_PerceptionTuring2,59.94784021666371,
244,resources/videos_generated\model(vcgpdm)-dataset(walking)-mode(ELBO)-parts(1)-dyn(22)-lvm(25)_final(9).mov,resources/videos_natural\training(33).mov,True,True,left,0,243,243,243,2018-09-17 11:48:38.985856,2018-09-17 11:48:42.889079,0:00:03.903223,6,right,0,0.934374003308676,31,m,2,4,2018_Sep_17_1121,MP_PerceptionTuring2,59.94784021666371,
245,resources/videos_generated\model(vcgpdm)-dataset(walking)-mode(ELBO)-parts(2)-dyn(24)-lvm(23)_final(0).mov,resources/videos_natural\training(39).mov,True,True,left,0,244,244,244,2018-09-17 11:48:44.940197,2018-09-17 11:48:48.844420,0:00:03.904223,6,right,0,0.350723309904879,31,m,2,4,2018_Sep_17_1121,MP_PerceptionTuring2,59.94784021666371,
246,resources/videos_generated\model(vcgpdm)-dataset(walking)-mode(ELBO)-parts(1)-dyn(22)-lvm(22)_final(3).mov,resources/videos_natural\training(23).mov,False,False,right,0,245,245,245,2018-09-17 11:48:50.311504,2018-09-17 11:48:54.231728,0:00:03.920224,6,right,1,0.46723744797600375,31,m,2,4,2018_Sep_17_1121,MP_PerceptionTuring2,59.94784021666371,
247,resources/videos_generated\model(vcgpdm)-dataset(walking)-mode(ELBO)-parts(1)-dyn(25)-lvm(24)_final(4).mov,resources/videos_natural\training(23).mov,True,True,left,0,246,246,246,2018-09-17 11:48:55.816819,2018-09-17 11:48:59.804047,0:00:03.987228,6,right,0,0.4675139239375312,31,m,2,4,2018_Sep_17_1121,MP_PerceptionTuring2,59.94784021666371,
248,resources/videos_generated\model(dmp)-dataset(walking)-npsi(80)_final(5).mov,resources/videos_natural\training(26).mov,True,True,left,0,247,247,247,2018-09-17 11:49:01.388138,2018-09-17 11:49:05.308362,0:00:03.920224,6,left,1,0.7175168603657767,31,m,2,4,2018_Sep_17_1121,MP_PerceptionTuring2,59.94784021666371,
249,resources/videos_generated\model(tmp)-dataset(walking)-numprim(15)_final(9).mov,resources/videos_natural\training(15).mov,True,False,right,0,248,248,248,2018-09-17 11:49:07.143467,2018-09-17 11:49:11.079692,0:00:03.936225,6,left,0,0.5672825936699155,31,m,2,4,2018_Sep_17_1121,MP_PerceptionTuring2,59.94784021666371,
250,resources/videos_generated\model(dmp)-dataset(walking)-npsi(80)_final(3).mov,resources/videos_natural\training(6).mov,True,True,left,0,249,249,249,2018-09-17 11:49:12.764788,2018-09-17 11:49:16.735015,0:00:03.970227,6,right,0,0.3674669712117975,31,m,2,4,2018_Sep_17_1121,MP_PerceptionTuring2,59.94784021666371,
251,resources/videos_generated\model(vcgpdm)-dataset(walking)-mode(ELBO)-parts(1)-dyn(22)-lvm(22)_final(9).mov,resources/videos_natural\training(16).mov,True,False,right,0,250,250,250,2018-09-17 11:49:18.219100,2018-09-17 11:49:22.289333,0:00:04.070233,6,right,1,0.3673416836300021,31,m,2,4,2018_Sep_17_1121,MP_PerceptionTuring2,59.94784021666371,
252,resources/videos_generated\model(vcgpdm)-dataset(walking)-mode(ELBO)-parts(1)-dyn(27)-lvm(26)_final(6).mov,resources/videos_natural\training(20).mov,False,True,left,0,251,251,251,2018-09-17 11:49:23.774418,2018-09-17 11:49:27.710643,0:00:03.936225,6,left,1,0.3173034498358902,31,m,2,4,2018_Sep_17_1121,MP_PerceptionTuring2,59.94784021666371,
253,resources/videos_generated\model(tmp)-dataset(walking)-numprim(13)_final(5).mov,resources/videos_natural\training(39).mov,False,True,left,0,252,252,252,2018-09-17 11:49:29.145725,2018-09-17 11:49:33.115952,0:00:03.970227,6,right,0,0.4339856419228454,31,m,2,4,2018_Sep_17_1121,MP_PerceptionTuring2,59.94784021666371,
254,resources/videos_generated\model(vcgpdm)-dataset(walking)-mode(ELBO)-parts(2)-dyn(26)-lvm(21)_final(2).mov,resources/videos_natural\training(37).mov,True,False,right,0,253,253,253,2018-09-17 11:49:34.667041,2018-09-17 11:49:38.754275,0:00:04.087234,6,right,1,0.5174455428186775,31,m,2,4,2018_Sep_17_1121,MP_PerceptionTuring2,59.94784021666371,
255,resources/videos_generated\model(vcgpdm)-dataset(walking)-mode(ELBO)-parts(1)-dyn(23)-lvm(27)_final(0).mov,resources/videos_natural\training(36).mov,True,True,left,0,254,254,254,2018-09-17 11:49:40.388368,2018-09-17 11:49:44.291591,0:00:03.903223,6,right,0,0.5005332251525942,31,m,2,4,2018_Sep_17_1121,MP_PerceptionTuring2,59.94784021666371,
256,resources/videos_generated\model(vcgpdm)-dataset(walking)-mode(ELBO)-parts(2)-dyn(24)-lvm(21)_final(2).mov,resources/videos_natural\training(45).mov,False,False,right,0,255,255,255,2018-09-17 11:49:45.910684,2018-09-17 11:49:49.846909,0:00:03.936225,6,right,1,0.25117841102201055,31,m,2,4,2018_Sep_17_1121,MP_PerceptionTuring2,59.94784021666371,
257,resources/videos_generated\model(vcgpdm)-dataset(walking)-mode(ELBO)-parts(2)-dyn(25)-lvm(22)_final(0).mov,resources/videos_natural\training(24).mov,True,False,right,0,256,256,256,2018-09-17 11:49:51.214987,2018-09-17 11:49:55.151213,0:00:03.936226,6,right,1,0.40081063474735856,31,m,2,4,2018_Sep_17_1121,MP_PerceptionTuring2,59.94784021666371,
258,resources/videos_generated\model(vcgpdm)-dataset(walking)-mode(ELBO)-parts(1)-dyn(25)-lvm(22)_final(1).mov,resources/videos_natural\training(37).mov,True,False,right,0,257,257,257,2018-09-17 11:49:56.669299,2018-09-17 11:50:00.555522,0:00:03.886223,6,right,1,0.38370827750350145,31,m,2,4,2018_Sep_17_1121,MP_PerceptionTuring2,59.94784021666371,
259,resources/videos_generated\model(vcgpdm)-dataset(walking)-mode(ELBO)-parts(1)-dyn(26)-lvm(25)_final(6).mov,resources/videos_natural\training(41).mov,False,False,right,0,258,258,258,2018-09-17 11:50:02.057608,2018-09-17 11:50:05.977832,0:00:03.920224,6,right,1,0.4339476942418514,31,m,2,4,2018_Sep_17_1121,MP_PerceptionTuring2,59.94784021666371,
260,resources/videos_generated\model(vcgpdm)-dataset(walking)-mode(ELBO)-parts(2)-dyn(25)-lvm(18)_final(0).mov,resources/videos_natural\training(20).mov,False,True,left,0,259,259,259,2018-09-17 11:50:07.528921,2018-09-17 11:50:11.465146,0:00:03.936225,6,right,0,0.5174877069089234,31,m,2,4,2018_Sep_17_1121,MP_PerceptionTuring2,59.94784021666371,
261,resources/videos_generated\model(vcgpdm)-dataset(walking)-mode(ELBO)-parts(2)-dyn(25)-lvm(20)_final(6).mov,resources/videos_natural\training(34).mov,False,True,left,0,260,260,260,2018-09-17 11:50:13.100239,2018-09-17 11:50:17.036464,0:00:03.936225,6,right,0,0.5007145307390601,31,m,2,4,2018_Sep_17_1121,MP_PerceptionTuring2,59.94784021666371,
262,resources/videos_generated\model(vcgpdm)-dataset(walking)-mode(ELBO)-parts(2)-dyn(28)-lvm(21)_final(8).mov,resources/videos_natural\training(23).mov,False,True,left,0,261,261,261,2018-09-17 11:50:18.654557,2018-09-17 11:50:22.574781,0:00:03.920224,6,left,1,0.5339545910819652,31,m,2,4,2018_Sep_17_1121,MP_PerceptionTuring2,59.94784021666371,
263,resources/videos_generated\model(dmp)-dataset(walking)-npsi(100)_final(7).mov,resources/videos_natural\training(9).mov,True,False,right,0,262,262,262,2018-09-17 11:50:24.226876,2018-09-17 11:50:28.113098,0:00:03.886222,6,left,0,0.5339464594358105,31,m,2,4,2018_Sep_17_1121,MP_PerceptionTuring2,59.94784021666371,
264,resources/videos_generated\model(vcgpdm)-dataset(walking)-mode(ELBO)-parts(2)-dyn(23)-lvm(22)_final(0).mov,resources/videos_natural\training(47).mov,True,True,left,0,263,263,263,2018-09-17 11:50:29.764192,2018-09-17 11:50:33.684417,0:00:03.920225,6,left,1,0.3005637037658744,31,m,2,4,2018_Sep_17_1121,MP_PerceptionTuring2,59.94784021666371,
265,resources/videos_generated\model(tmp)-dataset(walking)-numprim(11)_final(5).mov,resources/videos_natural\training(12).mov,True,True,left,0,264,264,264,2018-09-17 11:50:35.102498,2018-09-17 11:50:39.155730,0:00:04.053232,6,left,1,0.400558252551491,31,m,2,4,2018_Sep_17_1121,MP_PerceptionTuring2,59.94784021666371,
266,resources/videos_generated\model(dmp)-dataset(walking)-npsi(60)_final(9).mov,resources/videos_natural\training(32).mov,True,True,left,0,265,265,265,2018-09-17 11:50:40.673816,2018-09-17 11:50:44.594041,0:00:03.920225,6,right,0,0.1336080624969327,31,m,2,4,2018_Sep_17_1121,MP_PerceptionTuring2,59.94784021666371,
267,resources/videos_generated\model(vcgpdm)-dataset(walking)-mode(ELBO)-parts(2)-dyn(27)-lvm(20)_final(8).mov,resources/videos_natural\training(19).mov,True,True,left,0,266,266,266,2018-09-17 11:50:45.845112,2018-09-17 11:50:49.865342,0:00:04.020230,6,right,0,0.3839242178787572,31,m,2,4,2018_Sep_17_1121,MP_PerceptionTuring2,59.94784021666371,
268,resources/videos_generated\model(vcgpdm)-dataset(walking)-mode(ELBO)-parts(1)-dyn(24)-lvm(25)_final(9).mov,resources/videos_natural\training(43).mov,False,False,right,0,267,267,267,2018-09-17 11:50:51.366428,2018-09-17 11:50:55.269651,0:00:03.903223,6,right,1,0.5173235681299957,31,m,2,4,2018_Sep_17_1121,MP_PerceptionTuring2,59.94784021666371,
269,resources/videos_generated\model(dmp)-dataset(walking)-npsi(70)_final(9).mov,resources/videos_natural\training(5).mov,False,False,right,0,268,268,268,2018-09-17 11:50:56.904745,2018-09-17 11:51:00.824969,0:00:03.920224,6,right,1,0.28364626617394606,31,m,2,4,2018_Sep_17_1121,MP_PerceptionTuring2,59.94784021666371,
270,resources/videos_generated\model(vcgpdm)-dataset(walking)-mode(ELBO)-parts(1)-dyn(26)-lvm(23)_final(0).mov,resources/videos_natural\training(1).mov,False,False,right,0,269,269,269,2018-09-17 11:51:02.226049,2018-09-17 11:51:06.346285,0:00:04.120236,6,left,0,0.25042005974637505,31,m,2,4,2018_Sep_17_1121,MP_PerceptionTuring2,59.94784021666371,
271,resources/videos_generated\model(vcgpdm)-dataset(walking)-mode(ELBO)-parts(1)-dyn(28)-lvm(27)_final(8).mov,resources/videos_natural\training(34).mov,True,True,left,0,270,270,270,2018-09-17 11:51:39.391175,2018-09-17 11:51:43.311399,0:00:03.920224,7,left,1,0.3838380826659886,31,m,2,4,2018_Sep_17_1121,MP_PerceptionTuring2,59.94784021666371,
272,resources/videos_generated\model(vcgpdm)-dataset(walking)-mode(ELBO)-parts(1)-dyn(25)-lvm(23)_final(2).mov,resources/videos_natural\training(24).mov,False,True,left,0,271,271,271,2018-09-17 11:51:44.812485,2018-09-17 11:51:48.949722,0:00:04.137237,7,left,1,0.2337860250736412,31,m,2,4,2018_Sep_17_1121,MP_PerceptionTuring2,59.94784021666371,
273,resources/videos_generated\model(vcgpdm)-dataset(walking)-mode(ELBO)-parts(1)-dyn(25)-lvm(28)_final(9).mov,resources/videos_natural\training(31).mov,False,True,left,0,272,272,272,2018-09-17 11:51:50.300799,2018-09-17 11:51:54.221023,0:00:03.920224,7,left,1,0.3839465046121404,31,m,2,4,2018_Sep_17_1121,MP_PerceptionTuring2,59.94784021666371,
274,resources/videos_generated\model(vcgpdm)-dataset(walking)-mode(ELBO)-parts(2)-dyn(24)-lvm(19)_final(6).mov,resources/videos_natural\training(21).mov,True,False,right,0,273,273,273,2018-09-17 11:51:55.722109,2018-09-17 11:51:59.643333,0:00:03.921224,7,left,0,0.2671215569630476,31,m,2,4,2018_Sep_17_1121,MP_PerceptionTuring2,59.94784021666371,
275,resources/videos_generated\model(vcgpdm)-dataset(walking)-mode(ELBO)-parts(2)-dyn(22)-lvm(23)_final(8).mov,resources/videos_natural\training(38).mov,False,False,right,0,274,274,274,2018-09-17 11:52:01.026412,2018-09-17 11:52:04.980638,0:00:03.954226,7,right,1,0.3171137114309204,31,m,2,4,2018_Sep_17_1121,MP_PerceptionTuring2,59.94784021666371,
276,resources/videos_generated\model(vcgpdm)-dataset(walking)-mode(ELBO)-parts(1)-dyn(26)-lvm(27)_final(4).mov,resources/videos_natural\training(37).mov,True,True,left,0,275,275,275,2018-09-17 11:52:06.414720,2018-09-17 11:52:10.401949,0:00:03.987229,7,left,1,0.5006585127343897,31,m,2,4,2018_Sep_17_1121,MP_PerceptionTuring2,59.94784021666371,
277,resources/videos_generated\model(vcgpdm)-dataset(walking)-mode(ELBO)-parts(2)-dyn(23)-lvm(20)_final(2).mov,resources/videos_natural\training(35).mov,True,False,right,0,276,276,276,2018-09-17 11:52:12.020041,2018-09-17 11:52:15.989268,0:00:03.969227,7,right,1,0.2838320893420132,31,m,2,4,2018_Sep_17_1121,MP_PerceptionTuring2,59.94784021666371,
278,resources/videos_generated\model(vcgpdm)-dataset(walking)-mode(ELBO)-parts(2)-dyn(27)-lvm(22)_final(6).mov,resources/videos_natural\training(35).mov,False,False,right,0,277,277,277,2018-09-17 11:52:17.391348,2018-09-17 11:52:21.327573,0:00:03.936225,7,left,0,0.4840136358666314,31,m,2,4,2018_Sep_17_1121,MP_PerceptionTuring2,59.94784021666371,
279,resources/videos_generated\model(vcgpdm)-dataset(walking)-mode(ELBO)-parts(1)-dyn(27)-lvm(26)_final(0).mov,resources/videos_natural\training(42).mov,False,True,left,0,278,278,278,2018-09-17 11:52:22.928665,2018-09-17 11:52:26.865890,0:00:03.937225,7,left,1,0.35055284651252805,31,m,2,4,2018_Sep_17_1121,MP_PerceptionTuring2,59.94784021666371,
280,resources/videos_generated\model(vcgpdm)-dataset(walking)-mode(ELBO)-parts(1)-dyn(22)-lvm(23)_final(9).mov,resources/videos_natural\training(0).mov,False,True,left,0,279,279,279,2018-09-17 11:52:28.333974,2018-09-17 11:52:32.270199,0:00:03.936225,7,left,1,0.26713751908300765,31,m,2,4,2018_Sep_17_1121,MP_PerceptionTuring2,59.94784021666371,
281,resources/videos_generated\model(dmp)-dataset(walking)-npsi(50)_final(5).mov,resources/videos_natural\training(18).mov,False,False,right,0,280,280,280,2018-09-17 11:52:33.655279,2018-09-17 11:52:37.625506,0:00:03.970227,7,left,0,0.23373603051004466,31,m,2,4,2018_Sep_17_1121,MP_PerceptionTuring2,59.94784021666371,
282,resources/videos_generated\model(vcgpdm)-dataset(walking)-mode(ELBO)-parts(1)-dyn(25)-lvm(26)_final(7).mov,resources/videos_natural\training(29).mov,False,False,right,0,281,281,281,2018-09-17 11:52:38.976583,2018-09-17 11:52:42.896807,0:00:03.920224,7,left,0,0.33376852697665527,31,m,2,4,2018_Sep_17_1121,MP_PerceptionTuring2,59.94784021666371,
283,resources/videos_generated\model(vcgpdm)-dataset(walking)-mode(ELBO)-parts(2)-dyn(28)-lvm(21)_final(2).mov,resources/videos_natural\training(19).mov,True,True,left,0,282,282,282,2018-09-17 11:52:44.347890,2018-09-17 11:52:48.384121,0:00:04.036231,7,left,1,0.2338854118575,31,m,2,4,2018_Sep_17_1121,MP_PerceptionTuring2,59.94784021666371,
284,resources/videos_generated\model(vcgpdm)-dataset(walking)-mode(ELBO)-parts(2)-dyn(26)-lvm(19)_final(8).mov,resources/videos_natural\training(35).mov,True,True,left,0,283,283,283,2018-09-17 11:52:49.735198,2018-09-17 11:52:53.672423,0:00:03.937225,7,left,1,0.617337994272475,31,m,2,4,2018_Sep_17_1121,MP_PerceptionTuring2,59.94784021666371,
285,resources/videos_generated\model(vcgpdm)-dataset(walking)-mode(ELBO)-parts(2)-dyn(23)-lvm(18)_final(0).mov,resources/videos_natural\training(40).mov,True,True,left,0,284,284,284,2018-09-17 11:52:55.407523,2018-09-17 11:52:59.360749,0:00:03.953226,7,right,0,0.3338567703931403,31,m,2,4,2018_Sep_17_1121,MP_PerceptionTuring2,59.94784021666371,
286,resources/videos_generated\model(vcgpdm)-dataset(walking)-mode(ELBO)-parts(2)-dyn(28)-lvm(19)_final(8).mov,resources/videos_natural\training(18).mov,True,True,left,0,285,285,285,2018-09-17 11:53:00.811832,2018-09-17 11:53:04.915067,0:00:04.103235,7,left,1,0.4840154428989081,31,m,2,4,2018_Sep_17_1121,MP_PerceptionTuring2,59.94784021666371,
287,resources/videos_generated\model(vcgpdm)-dataset(walking)-mode(ELBO)-parts(2)-dyn(28)-lvm(21)_final(6).mov,resources/videos_natural\training(3).mov,True,True,left,0,286,286,286,2018-09-17 11:53:06.517158,2018-09-17 11:53:10.436382,0:00:03.919224,7,left,1,0.33381038989409717,31,m,2,4,2018_Sep_17_1121,MP_PerceptionTuring2,59.94784021666371,
288,resources/videos_generated\model(vcgpdm)-dataset(walking)-mode(ELBO)-parts(2)-dyn(22)-lvm(21)_final(8).mov,resources/videos_natural\training(26).mov,True,True,left,0,287,287,287,2018-09-17 11:53:11.888465,2018-09-17 11:53:15.858692,0:00:03.970227,7,left,1,0.383929036632253,31,m,2,4,2018_Sep_17_1121,MP_PerceptionTuring2,59.94784021666371,
289,resources/videos_generated\model(vcgpdm)-dataset(walking)-mode(ELBO)-parts(2)-dyn(24)-lvm(19)_final(2).mov,resources/videos_natural\training(14).mov,True,True,left,0,288,288,288,2018-09-17 11:53:17.359778,2018-09-17 11:53:21.246001,0:00:03.886223,7,left,1,0.30042576695723255,31,m,2,4,2018_Sep_17_1121,MP_PerceptionTuring2,59.94784021666371,
290,resources/videos_generated\model(vcgpdm)-dataset(walking)-mode(ELBO)-parts(2)-dyn(28)-lvm(17)_final(8).mov,resources/videos_natural\training(38).mov,True,True,left,0,289,289,289,2018-09-17 11:53:22.664082,2018-09-17 11:53:26.768316,0:00:04.104234,7,left,1,0.3507654739951249,31,m,2,4,2018_Sep_17_1121,MP_PerceptionTuring2,59.94784021666371,
291,resources/videos_generated\model(vcgpdm)-dataset(walking)-mode(ELBO)-parts(1)-dyn(22)-lvm(25)_final(7).mov,resources/videos_natural\training(36).mov,False,True,left,0,290,290,290,2018-09-17 11:53:28.235400,2018-09-17 11:53:32.138624,0:00:03.903224,7,left,1,0.30051611857879834,31,m,2,4,2018_Sep_17_1121,MP_PerceptionTuring2,59.94784021666371,
292,resources/videos_generated\model(vcgpdm)-dataset(walking)-mode(ELBO)-parts(1)-dyn(26)-lvm(25)_final(0).mov,resources/videos_natural\training(32).mov,False,True,left,0,291,291,291,2018-09-17 11:53:33.556705,2018-09-17 11:53:37.543933,0:00:03.987228,7,left,1,0.38414889224395665,31,m,2,4,2018_Sep_17_1121,MP_PerceptionTuring2,59.94784021666371,
