n_trial,mov_file_generated,mov_file_natural,mirrored,switch_stim_pos,correct_answer,trials.thisRepN,trials.thisTrialN,trials.thisN,trials.thisIndex,stimulus_onset,stimulus_off,stimulus_length,block,response.keys,response.corr,response.rt,age,gender,condition,participant,date,expName,frameRate,
1,resources/videos_generated\model(vcgpdm)-dataset(walking)-mode(ELBO)-parts(2)-dyn(23)-lvm(20)_final(3).mov,resources/videos_natural\training(8).mov,False,False,right,0,0,0,0,2018-09-17 15:11:45.614019,2018-09-17 15:11:50.085275,0:00:04.471256,1,right,1,8.190321647994324,37,f,1,5,2018_Sep_17_1511,MP_PerceptionTuring2,59.945297478783225,
2,resources/videos_generated\model(vcgpdm)-dataset(walking)-mode(ELBO)-parts(2)-dyn(28)-lvm(23)_final(1).mov,resources/videos_natural\training(43).mov,False,True,left,0,1,1,1,2018-09-17 15:11:59.476812,2018-09-17 15:12:03.396036,0:00:03.919224,1,right,0,1.2346407059390003,37,f,1,5,2018_Sep_17_1511,MP_PerceptionTuring2,59.945297478783225,
3,resources/videos_generated\model(vcgpdm)-dataset(walking)-mode(ELBO)-parts(2)-dyn(24)-lvm(17)_final(1).mov,resources/videos_natural\training(7).mov,True,True,left,0,2,2,2,2018-09-17 15:12:05.748171,2018-09-17 15:12:09.852405,0:00:04.104234,1,right,0,6.2389076617275805,37,f,1,5,2018_Sep_17_1511,MP_PerceptionTuring2,59.945297478783225,
4,resources/videos_generated\model(vcgpdm)-dataset(walking)-mode(ELBO)-parts(1)-dyn(25)-lvm(23)_final(0).mov,resources/videos_natural\training(16).mov,True,True,left,0,3,3,3,2018-09-17 15:12:17.208826,2018-09-17 15:12:21.312061,0:00:04.103235,1,right,0,1.7851090230094542,37,f,1,5,2018_Sep_17_1511,MP_PerceptionTuring2,59.945297478783225,
5,resources/videos_generated\model(vcgpdm)-dataset(walking)-mode(ELBO)-parts(1)-dyn(28)-lvm(24)_final(2).mov,resources/videos_natural\training(0).mov,True,False,right,0,4,4,4,2018-09-17 15:12:24.214227,2018-09-17 15:12:28.301461,0:00:04.087234,1,left,0,1.101176665461935,37,f,1,5,2018_Sep_17_1511,MP_PerceptionTuring2,59.945297478783225,
6,resources/videos_generated\model(vcgpdm)-dataset(walking)-mode(ELBO)-parts(2)-dyn(26)-lvm(23)_final(1).mov,resources/videos_natural\training(28).mov,False,True,left,0,5,5,5,2018-09-17 15:12:30.586591,2018-09-17 15:12:34.523817,0:00:03.937226,1,right,0,1.8352593061076732,37,f,1,5,2018_Sep_17_1511,MP_PerceptionTuring2,59.945297478783225,
7,resources/videos_generated\model(dmp)-dataset(walking)-npsi(80)_final(8).mov,resources/videos_natural\training(38).mov,True,False,right,0,6,6,6,2018-09-17 15:12:37.475985,2018-09-17 15:12:41.563219,0:00:04.087234,1,right,1,0.4006086616068387,37,f,1,5,2018_Sep_17_1511,MP_PerceptionTuring2,59.945297478783225,
8,resources/videos_generated\model(vcgpdm)-dataset(walking)-mode(ELBO)-parts(1)-dyn(28)-lvm(25)_final(3).mov,resources/videos_natural\training(23).mov,False,True,left,0,7,7,7,2018-09-17 15:12:43.080306,2018-09-17 15:12:47.000530,0:00:03.920224,1,left,1,0.1837525599323726,37,f,1,5,2018_Sep_17_1511,MP_PerceptionTuring2,59.945297478783225,
9,resources/videos_generated\model(dmp)-dataset(walking)-npsi(50)_final(0).mov,resources/videos_natural\training(36).mov,True,True,left,0,8,8,8,2018-09-17 15:12:48.301605,2018-09-17 15:12:52.371837,0:00:04.070232,1,left,1,0.9845102999638584,37,f,1,5,2018_Sep_17_1511,MP_PerceptionTuring2,59.945297478783225,
10,resources/videos_generated\model(dmp)-dataset(walking)-npsi(60)_final(6).mov,resources/videos_natural\training(44).mov,False,False,right,0,9,9,9,2018-09-17 15:12:54.473958,2018-09-17 15:12:58.527189,0:00:04.053231,1,right,1,0.41734188651957993,37,f,1,5,2018_Sep_17_1511,MP_PerceptionTuring2,59.945297478783225,
11,resources/videos_generated\model(vcgpdm)-dataset(walking)-mode(ELBO)-parts(2)-dyn(23)-lvm(18)_final(9).mov,resources/videos_natural\training(7).mov,False,True,left,0,10,10,10,2018-09-17 15:13:00.062277,2018-09-17 15:13:03.982501,0:00:03.920224,1,right,0,0.48404288639903825,37,f,1,5,2018_Sep_17_1511,MP_PerceptionTuring2,59.945297478783225,
12,resources/videos_generated\model(vcgpdm)-dataset(walking)-mode(ELBO)-parts(2)-dyn(22)-lvm(19)_final(3).mov,resources/videos_natural\training(46).mov,False,True,left,0,11,11,11,2018-09-17 15:13:05.583593,2018-09-17 15:13:09.503817,0:00:03.920224,1,left,1,0.7674954824719862,37,f,1,5,2018_Sep_17_1511,MP_PerceptionTuring2,59.945297478783225,
13,resources/videos_generated\model(tmp)-dataset(walking)-numprim(14)_final(4).mov,resources/videos_natural\training(22).mov,True,True,left,0,12,12,12,2018-09-17 15:13:11.388925,2018-09-17 15:13:15.442157,0:00:04.053232,1,right,0,0.8008553186361951,37,f,1,5,2018_Sep_17_1511,MP_PerceptionTuring2,59.945297478783225,
14,resources/videos_generated\model(vcgpdm)-dataset(walking)-mode(ELBO)-parts(1)-dyn(22)-lvm(27)_final(6)_fail.mov,resources/videos_natural\training(14).mov,True,True,left,0,13,13,13,2018-09-17 15:13:17.360267,2018-09-17 15:13:21.480502,0:00:04.120235,1,left,1,0.85088603782674,37,f,1,5,2018_Sep_17_1511,MP_PerceptionTuring2,59.945297478783225,
15,resources/videos_generated\model(tmp)-dataset(walking)-numprim(11)_final(6).mov,resources/videos_natural\training(45).mov,True,False,right,0,14,14,14,2018-09-17 15:13:23.448615,2018-09-17 15:13:27.602852,0:00:04.154237,1,left,0,0.5673024334419097,37,f,1,5,2018_Sep_17_1511,MP_PerceptionTuring2,59.945297478783225,
16,resources/videos_generated\model(vcgpdm)-dataset(walking)-mode(ELBO)-parts(1)-dyn(23)-lvm(27)_final(2).mov,resources/videos_natural\training(10).mov,False,True,left,0,15,15,15,2018-09-17 15:13:29.286949,2018-09-17 15:13:33.357182,0:00:04.070233,1,right,0,0.7175123479098602,37,f,1,5,2018_Sep_17_1511,MP_PerceptionTuring2,59.945297478783225,
17,resources/videos_generated\model(vcgpdm)-dataset(walking)-mode(ELBO)-parts(1)-dyn(27)-lvm(28)_final(9).mov,resources/videos_natural\training(1).mov,False,False,right,0,16,16,16,2018-09-17 15:13:35.192287,2018-09-17 15:13:39.112511,0:00:03.920224,1,right,1,0.8843630285507516,37,f,1,5,2018_Sep_17_1511,MP_PerceptionTuring2,59.945297478783225,
18,resources/videos_generated\model(vcgpdm)-dataset(walking)-mode(ELBO)-parts(1)-dyn(26)-lvm(25)_final(1).mov,resources/videos_natural\training(22).mov,True,False,right,0,17,17,17,2018-09-17 15:13:41.114625,2018-09-17 15:13:45.050850,0:00:03.936225,1,right,1,0.9176502830982827,37,f,1,5,2018_Sep_17_1511,MP_PerceptionTuring2,59.945297478783225,
19,resources/videos_generated\model(tmp)-dataset(walking)-numprim(13)_final(0).mov,resources/videos_natural\training(31).mov,True,True,left,0,18,18,18,2018-09-17 15:13:47.085967,2018-09-17 15:13:51.156200,0:00:04.070233,1,right,0,0.9176316106493232,37,f,1,5,2018_Sep_17_1511,MP_PerceptionTuring2,59.945297478783225,
20,resources/videos_generated\model(tmp)-dataset(walking)-numprim(12)_final(4).mov,resources/videos_natural\training(20).mov,False,True,left,0,19,19,19,2018-09-17 15:13:53.191316,2018-09-17 15:13:57.094539,0:00:03.903223,1,left,1,0.7493913383927975,37,f,1,5,2018_Sep_17_1511,MP_PerceptionTuring2,59.945297478783225,
21,resources/videos_generated\model(vcgpdm)-dataset(walking)-mode(ELBO)-parts(2)-dyn(27)-lvm(20)_final(7).mov,resources/videos_natural\training(16).mov,True,False,right,0,20,20,20,2018-09-17 15:13:58.962646,2018-09-17 15:14:02.882870,0:00:03.920224,1,left,0,1.5015326466691477,37,f,1,5,2018_Sep_17_1511,MP_PerceptionTuring2,59.945297478783225,
22,resources/videos_generated\model(vcgpdm)-dataset(walking)-mode(ELBO)-parts(1)-dyn(27)-lvm(24)_final(7).mov,resources/videos_natural\training(7).mov,True,False,right,0,21,21,21,2018-09-17 15:14:05.502020,2018-09-17 15:14:09.422244,0:00:03.920224,1,right,1,0.6341802192505384,37,f,1,5,2018_Sep_17_1511,MP_PerceptionTuring2,59.945297478783225,
23,resources/videos_generated\model(dmp)-dataset(walking)-npsi(70)_final(0).mov,resources/videos_natural\training(34).mov,False,True,left,0,22,22,22,2018-09-17 15:14:11.173345,2018-09-17 15:14:15.243577,0:00:04.070232,1,left,1,0.3838853752558862,37,f,1,5,2018_Sep_17_1511,MP_PerceptionTuring2,59.945297478783225,
24,resources/videos_generated\model(vcgpdm)-dataset(walking)-mode(ELBO)-parts(2)-dyn(26)-lvm(17)_final(1).mov,resources/videos_natural\training(13).mov,True,False,right,0,23,23,23,2018-09-17 15:14:16.744663,2018-09-17 15:14:20.831897,0:00:04.087234,1,right,1,0.7342121431152009,37,f,1,5,2018_Sep_17_1511,MP_PerceptionTuring2,59.945297478783225,
25,resources/videos_generated\model(vcgpdm)-dataset(walking)-mode(ELBO)-parts(1)-dyn(23)-lvm(28)_final(2).mov,resources/videos_natural\training(47).mov,True,True,left,0,24,24,24,2018-09-17 15:14:22.684003,2018-09-17 15:14:26.587226,0:00:03.903223,1,right,0,0.6506390796289452,37,f,1,5,2018_Sep_17_1511,MP_PerceptionTuring2,59.945297478783225,
26,resources/videos_generated\model(vcgpdm)-dataset(walking)-mode(ELBO)-parts(2)-dyn(25)-lvm(22)_final(1).mov,resources/videos_natural\training(46).mov,False,True,left,0,25,25,25,2018-09-17 15:14:28.355327,2018-09-17 15:14:32.341555,0:00:03.986228,1,left,1,0.7010269847007748,37,f,1,5,2018_Sep_17_1511,MP_PerceptionTuring2,59.945297478783225,
27,resources/videos_generated\model(dmp)-dataset(walking)-npsi(100)_final(4).mov,resources/videos_natural\training(47).mov,True,False,right,0,26,26,26,2018-09-17 15:14:34.159659,2018-09-17 15:14:38.046882,0:00:03.887223,1,right,1,1.4516290205999667,37,f,1,5,2018_Sep_17_1511,MP_PerceptionTuring2,59.945297478783225,
28,resources/videos_generated\model(tmp)-dataset(walking)-numprim(13)_final(6).mov,resources/videos_natural\training(18).mov,False,False,right,0,27,27,27,2018-09-17 15:14:40.616029,2018-09-17 15:14:44.519252,0:00:03.903223,1,left,0,0.45069479580774896,37,f,1,5,2018_Sep_17_1511,MP_PerceptionTuring2,59.945297478783225,
29,resources/videos_generated\model(vcgpdm)-dataset(walking)-mode(ELBO)-parts(2)-dyn(22)-lvm(23)_final(1).mov,resources/videos_natural\training(40).mov,True,False,right,0,28,28,28,2018-09-17 15:14:46.087342,2018-09-17 15:14:49.990565,0:00:03.903223,1,right,1,0.5340079508494,37,f,1,5,2018_Sep_17_1511,MP_PerceptionTuring2,59.945297478783225,
30,resources/videos_generated\model(vcgpdm)-dataset(walking)-mode(ELBO)-parts(1)-dyn(25)-lvm(24)_final(1).mov,resources/videos_natural\training(26).mov,True,False,right,0,29,29,29,2018-09-17 15:14:51.641659,2018-09-17 15:14:55.561883,0:00:03.920224,1,left,0,0.5340290326466857,37,f,1,5,2018_Sep_17_1511,MP_PerceptionTuring2,59.945297478783225,
31,resources/videos_generated\model(vcgpdm)-dataset(walking)-mode(ELBO)-parts(2)-dyn(24)-lvm(19)_final(7).mov,resources/videos_natural\training(9).mov,True,False,right,0,30,30,30,2018-09-17 15:14:57.212978,2018-09-17 15:15:01.283211,0:00:04.070233,1,left,0,0.5340010239729054,37,f,1,5,2018_Sep_17_1511,MP_PerceptionTuring2,59.945297478783225,
32,resources/videos_generated\model(vcgpdm)-dataset(walking)-mode(ELBO)-parts(1)-dyn(25)-lvm(24)_final(3).mov,resources/videos_natural\training(25).mov,False,False,right,0,31,31,31,2018-09-17 15:15:02.935305,2018-09-17 15:15:07.038540,0:00:04.103235,1,left,0,0.20043759787972704,37,f,1,5,2018_Sep_17_1511,MP_PerceptionTuring2,59.945297478783225,
33,resources/videos_generated\model(dmp)-dataset(walking)-npsi(100)_final(8).mov,resources/videos_natural\training(26).mov,False,True,left,0,32,32,32,2018-09-17 15:15:08.356615,2018-09-17 15:15:12.242838,0:00:03.886223,1,left,1,0.7176370316828979,37,f,1,5,2018_Sep_17_1511,MP_PerceptionTuring2,59.945297478783225,
34,resources/videos_generated\model(vcgpdm)-dataset(walking)-mode(ELBO)-parts(2)-dyn(27)-lvm(22)_final(1).mov,resources/videos_natural\training(40).mov,True,False,right,0,33,33,33,2018-09-17 15:15:14.077942,2018-09-17 15:15:18.015168,0:00:03.937226,1,left,0,0.41725063245394267,37,f,1,5,2018_Sep_17_1511,MP_PerceptionTuring2,59.945297478783225,
35,resources/videos_generated\model(vcgpdm)-dataset(walking)-mode(ELBO)-parts(2)-dyn(26)-lvm(23)_final(9).mov,resources/videos_natural\training(4).mov,True,True,left,0,34,34,34,2018-09-17 15:15:19.549255,2018-09-17 15:15:23.619488,0:00:04.070233,1,left,1,0.45050445729430066,37,f,1,5,2018_Sep_17_1511,MP_PerceptionTuring2,59.945297478783225,
36,resources/videos_generated\model(dmp)-dataset(walking)-npsi(70)_final(4).mov,resources/videos_natural\training(25).mov,False,False,right,0,35,35,35,2018-09-17 15:15:25.187578,2018-09-17 15:15:29.257811,0:00:04.070233,1,left,0,0.41730544512711276,37,f,1,5,2018_Sep_17_1511,MP_PerceptionTuring2,59.945297478783225,
37,resources/videos_generated\model(vcgpdm)-dataset(walking)-mode(ELBO)-parts(2)-dyn(27)-lvm(18)_final(3).mov,resources/videos_natural\training(18).mov,False,True,left,0,36,36,36,2018-09-17 15:15:30.792899,2018-09-17 15:15:34.746125,0:00:03.953226,1,left,1,0.6007291290206922,37,f,1,5,2018_Sep_17_1511,MP_PerceptionTuring2,59.945297478783225,
38,resources/videos_generated\model(vcgpdm)-dataset(walking)-mode(ELBO)-parts(2)-dyn(22)-lvm(23)_final(3).mov,resources/videos_natural\training(13).mov,True,True,left,0,37,37,37,2018-09-17 15:15:36.464223,2018-09-17 15:15:40.367446,0:00:03.903223,1,left,1,0.4672777376219983,37,f,1,5,2018_Sep_17_1511,MP_PerceptionTuring2,59.945297478783225,
39,resources/videos_generated\model(vcgpdm)-dataset(walking)-mode(ELBO)-parts(1)-dyn(22)-lvm(27)_final(8)_fail.mov,resources/videos_natural\training(42).mov,True,False,right,0,38,38,38,2018-09-17 15:15:41.952537,2018-09-17 15:15:45.888762,0:00:03.936225,1,right,1,0.8008745934225772,37,f,1,5,2018_Sep_17_1511,MP_PerceptionTuring2,59.945297478783225,
40,resources/videos_generated\model(vcgpdm)-dataset(walking)-mode(ELBO)-parts(2)-dyn(26)-lvm(23)_final(7).mov,resources/videos_natural\training(39).mov,True,False,right,0,39,39,39,2018-09-17 15:15:47.806872,2018-09-17 15:15:51.744097,0:00:03.937225,1,right,1,0.5340717985784522,37,f,1,5,2018_Sep_17_1511,MP_PerceptionTuring2,59.945297478783225,
41,resources/videos_generated\model(tmp)-dataset(walking)-numprim(15)_final(8).mov,resources/videos_natural\training(24).mov,True,False,right,0,40,40,40,2018-09-17 15:15:53.395191,2018-09-17 15:15:57.332417,0:00:03.937226,1,right,1,0.717524996988459,37,f,1,5,2018_Sep_17_1511,MP_PerceptionTuring2,59.945297478783225,
42,resources/videos_generated\model(vcgpdm)-dataset(walking)-mode(ELBO)-parts(1)-dyn(26)-lvm(27)_final(9).mov,resources/videos_natural\training(48).mov,False,False,right,0,41,41,41,2018-09-17 15:15:59.166521,2018-09-17 15:16:03.253755,0:00:04.087234,1,right,1,0.6508610408384357,37,f,1,5,2018_Sep_17_1511,MP_PerceptionTuring2,59.945297478783225,
43,resources/videos_generated\model(vcgpdm)-dataset(walking)-mode(ELBO)-parts(1)-dyn(22)-lvm(28)_final(7).mov,resources/videos_natural\training(9).mov,False,False,right,0,42,42,42,2018-09-17 15:16:05.022856,2018-09-17 15:16:08.942081,0:00:03.919225,1,left,0,0.5839962052764349,37,f,1,5,2018_Sep_17_1511,MP_PerceptionTuring2,59.945297478783225,
44,resources/videos_generated\model(vcgpdm)-dataset(walking)-mode(ELBO)-parts(1)-dyn(23)-lvm(24)_final(5).mov,resources/videos_natural\training(19).mov,False,True,left,0,43,43,43,2018-09-17 15:16:10.643178,2018-09-17 15:16:14.747413,0:00:04.104235,1,left,1,0.5340862546681819,37,f,1,5,2018_Sep_17_1511,MP_PerceptionTuring2,59.945297478783225,
45,resources/videos_generated\model(vcgpdm)-dataset(walking)-mode(ELBO)-parts(2)-dyn(26)-lvm(21)_final(3).mov,resources/videos_natural\training(48).mov,False,True,left,0,44,44,44,2018-09-17 15:16:16.398507,2018-09-17 15:16:20.301730,0:00:03.903223,1,left,1,0.7174879532585692,37,f,1,5,2018_Sep_17_1511,MP_PerceptionTuring2,59.945297478783225,
46,resources/videos_generated\model(vcgpdm)-dataset(walking)-mode(ELBO)-parts(2)-dyn(26)-lvm(19)_final(1).mov,resources/videos_natural\training(6).mov,True,True,left,0,45,45,45,2018-09-17 15:17:09.794561,2018-09-17 15:17:13.731786,0:00:03.937225,2,right,0,0.5507366582339728,37,f,1,5,2018_Sep_17_1511,MP_PerceptionTuring2,59.945297478783225,
47,resources/videos_generated\model(tmp)-dataset(walking)-numprim(11)_final(0).mov,resources/videos_natural\training(30).mov,True,True,left,0,46,46,46,2018-09-17 15:17:15.399882,2018-09-17 15:17:19.319106,0:00:03.919224,2,left,1,0.5340465004217094,37,f,1,5,2018_Sep_17_1511,MP_PerceptionTuring2,59.945297478783225,
48,resources/videos_generated\model(vcgpdm)-dataset(walking)-mode(ELBO)-parts(2)-dyn(23)-lvm(22)_final(5).mov,resources/videos_natural\training(37).mov,False,True,left,0,47,47,47,2018-09-17 15:17:20.971200,2018-09-17 15:17:25.041433,0:00:04.070233,2,left,1,0.45064841585349313,37,f,1,5,2018_Sep_17_1511,MP_PerceptionTuring2,59.945297478783225,
49,resources/videos_generated\model(vcgpdm)-dataset(walking)-mode(ELBO)-parts(1)-dyn(22)-lvm(25)_final(6).mov,resources/videos_natural\training(18).mov,False,True,left,0,48,48,48,2018-09-17 15:17:26.609523,2018-09-17 15:17:30.529747,0:00:03.920224,2,left,1,0.7175415612578036,37,f,1,5,2018_Sep_17_1511,MP_PerceptionTuring2,59.945297478783225,
50,resources/videos_generated\model(vcgpdm)-dataset(walking)-mode(ELBO)-parts(1)-dyn(25)-lvm(26)_final(4)_fail.mov,resources/videos_natural\training(28).mov,False,True,left,0,49,49,49,2018-09-17 15:17:32.363852,2018-09-17 15:17:36.268075,0:00:03.904223,2,left,1,0.7508773039392054,37,f,1,5,2018_Sep_17_1511,MP_PerceptionTuring2,59.945297478783225,
51,resources/videos_generated\model(vcgpdm)-dataset(walking)-mode(ELBO)-parts(1)-dyn(23)-lvm(28)_final(4)_hip-corrected.mov,resources/videos_natural\training(10).mov,False,False,right,0,50,50,50,2018-09-17 15:17:38.136182,2018-09-17 15:17:42.056406,0:00:03.920224,2,left,0,1.8350783038188183,37,f,1,5,2018_Sep_17_1511,MP_PerceptionTuring2,59.945297478783225,
52,resources/videos_generated\model(vcgpdm)-dataset(walking)-mode(ELBO)-parts(2)-dyn(22)-lvm(17)_final(3).mov,resources/videos_natural\training(0).mov,True,False,right,0,51,51,51,2018-09-17 15:17:45.008575,2018-09-17 15:17:48.944800,0:00:03.936225,2,left,0,0.41727050957706524,37,f,1,5,2018_Sep_17_1511,MP_PerceptionTuring2,59.945297478783225,
53,resources/videos_generated\model(vcgpdm)-dataset(walking)-mode(ELBO)-parts(1)-dyn(22)-lvm(27)_final(4)_fail.mov,resources/videos_natural\training(38).mov,True,False,right,0,52,52,52,2018-09-17 15:17:50.479888,2018-09-17 15:17:54.400112,0:00:03.920224,2,right,1,0.533931755210233,37,f,1,5,2018_Sep_17_1511,MP_PerceptionTuring2,59.945297478783225,
54,resources/videos_generated\model(vcgpdm)-dataset(walking)-mode(ELBO)-parts(1)-dyn(22)-lvm(23)_final(4)_fail.mov,resources/videos_natural\training(11).mov,False,False,right,0,53,53,53,2018-09-17 15:17:56.051207,2018-09-17 15:17:59.971431,0:00:03.920224,2,right,1,0.4672599686784906,37,f,1,5,2018_Sep_17_1511,MP_PerceptionTuring2,59.945297478783225,
55,resources/videos_generated\model(vcgpdm)-dataset(walking)-mode(ELBO)-parts(2)-dyn(27)-lvm(18)_final(7).mov,resources/videos_natural\training(29).mov,False,True,left,0,54,54,54,2018-09-17 15:18:01.556522,2018-09-17 15:18:05.476746,0:00:03.920224,2,right,0,0.5839953017709831,37,f,1,5,2018_Sep_17_1511,MP_PerceptionTuring2,59.945297478783225,
56,resources/videos_generated\model(vcgpdm)-dataset(walking)-mode(ELBO)-parts(2)-dyn(24)-lvm(19)_final(3).mov,resources/videos_natural\training(12).mov,True,False,right,0,55,55,55,2018-09-17 15:18:07.177843,2018-09-17 15:18:11.281078,0:00:04.103235,2,right,1,0.7175168654378012,37,f,1,5,2018_Sep_17_1511,MP_PerceptionTuring2,59.945297478783225,
57,resources/videos_generated\model(tmp)-dataset(walking)-numprim(14)_final(6).mov,resources/videos_natural\training(15).mov,False,True,left,0,56,56,56,2018-09-17 15:18:13.116183,2018-09-17 15:18:17.203417,0:00:04.087234,2,right,0,0.35062643055061926,37,f,1,5,2018_Sep_17_1511,MP_PerceptionTuring2,59.945297478783225,
58,resources/videos_generated\model(vcgpdm)-dataset(walking)-mode(ELBO)-parts(2)-dyn(22)-lvm(21)_final(3).mov,resources/videos_natural\training(21).mov,True,True,left,0,57,57,57,2018-09-17 15:18:18.670501,2018-09-17 15:18:22.740733,0:00:04.070232,2,right,0,0.8508794121189567,37,f,1,5,2018_Sep_17_1511,MP_PerceptionTuring2,59.945297478783225,
59,resources/videos_generated\model(vcgpdm)-dataset(walking)-mode(ELBO)-parts(2)-dyn(28)-lvm(23)_final(9).mov,resources/videos_natural\training(30).mov,True,True,left,0,58,58,58,2018-09-17 15:18:24.709846,2018-09-17 15:18:28.746077,0:00:04.036231,2,left,1,1.4349445849898075,37,f,1,5,2018_Sep_17_1511,MP_PerceptionTuring2,59.945297478783225,
60,resources/videos_generated\model(vcgpdm)-dataset(walking)-mode(ELBO)-parts(1)-dyn(28)-lvm(27)_final(7).mov,resources/videos_natural\training(7).mov,False,True,left,0,59,59,59,2018-09-17 15:18:31.298223,2018-09-17 15:18:35.235448,0:00:03.937225,2,left,1,1.034486808818201,37,f,1,5,2018_Sep_17_1511,MP_PerceptionTuring2,59.945297478783225,
61,resources/videos_generated\model(vcgpdm)-dataset(walking)-mode(ELBO)-parts(1)-dyn(25)-lvm(24)_final(5).mov,resources/videos_natural\training(35).mov,False,True,left,0,60,60,60,2018-09-17 15:18:37.386571,2018-09-17 15:18:41.523808,0:00:04.137237,2,left,1,0.717536140223956,37,f,1,5,2018_Sep_17_1511,MP_PerceptionTuring2,59.945297478783225,
62,resources/videos_generated\model(vcgpdm)-dataset(walking)-mode(ELBO)-parts(2)-dyn(25)-lvm(18)_final(1).mov,resources/videos_natural\training(23).mov,False,False,right,0,61,61,61,2018-09-17 15:18:43.358913,2018-09-17 15:18:47.262136,0:00:03.903223,2,left,0,0.7342889410913358,37,f,1,5,2018_Sep_17_1511,MP_PerceptionTuring2,59.945297478783225,
63,resources/videos_generated\model(vcgpdm)-dataset(walking)-mode(ELBO)-parts(2)-dyn(26)-lvm(17)_final(7).mov,resources/videos_natural\training(38).mov,True,True,left,0,62,62,62,2018-09-17 15:18:49.114242,2018-09-17 15:18:53.067468,0:00:03.953226,2,left,1,0.45069208529093885,37,f,1,5,2018_Sep_17_1511,MP_PerceptionTuring2,59.945297478783225,
64,resources/videos_generated\model(vcgpdm)-dataset(walking)-mode(ELBO)-parts(1)-dyn(22)-lvm(23)_final(6)_fail.mov,resources/videos_natural\training(29).mov,False,False,right,0,63,63,63,2018-09-17 15:18:54.635558,2018-09-17 15:18:58.555782,0:00:03.920224,2,right,1,0.9009336224551134,37,f,1,5,2018_Sep_17_1511,MP_PerceptionTuring2,59.945297478783225,
65,resources/videos_generated\model(dmp)-dataset(walking)-npsi(100)_final(6).mov,resources/videos_natural\training(35).mov,True,True,left,0,64,64,64,2018-09-17 15:19:00.573897,2018-09-17 15:19:04.494122,0:00:03.920225,2,right,0,0.8175614383808352,37,f,1,5,2018_Sep_17_1511,MP_PerceptionTuring2,59.945297478783225,
66,resources/videos_generated\model(vcgpdm)-dataset(walking)-mode(ELBO)-parts(1)-dyn(25)-lvm(28)_final(2).mov,resources/videos_natural\training(16).mov,True,True,left,0,65,65,65,2018-09-17 15:19:06.429232,2018-09-17 15:19:10.365457,0:00:03.936225,2,right,0,0.851038730273558,37,f,1,5,2018_Sep_17_1511,MP_PerceptionTuring2,59.945297478783225,
67,resources/videos_generated\model(vcgpdm)-dataset(walking)-mode(ELBO)-parts(1)-dyn(25)-lvm(22)_final(2).mov,resources/videos_natural\training(11).mov,False,False,right,0,66,66,66,2018-09-17 15:19:12.333570,2018-09-17 15:19:16.287796,0:00:03.954226,2,right,1,0.9844157330442158,37,f,1,5,2018_Sep_17_1511,MP_PerceptionTuring2,59.945297478783225,
68,resources/videos_generated\model(vcgpdm)-dataset(walking)-mode(ELBO)-parts(1)-dyn(22)-lvm(25)_final(2).mov,resources/videos_natural\training(41).mov,False,False,right,0,67,67,67,2018-09-17 15:19:18.388916,2018-09-17 15:19:22.493151,0:00:04.104235,2,right,1,0.8175551138417632,37,f,1,5,2018_Sep_17_1511,MP_PerceptionTuring2,59.945297478783225,
69,resources/videos_generated\model(vcgpdm)-dataset(walking)-mode(ELBO)-parts(2)-dyn(25)-lvm(22)_final(5).mov,resources/videos_natural\training(28).mov,False,False,right,0,68,68,68,2018-09-17 15:19:24.428262,2018-09-17 15:19:28.314484,0:00:03.886222,2,right,1,0.8176623298397772,37,f,1,5,2018_Sep_17_1511,MP_PerceptionTuring2,59.945297478783225,
70,resources/videos_generated\model(vcgpdm)-dataset(walking)-mode(ELBO)-parts(2)-dyn(22)-lvm(23)_final(5).mov,resources/videos_natural\training(25).mov,False,True,left,0,69,69,69,2018-09-17 15:19:30.249595,2018-09-17 15:19:34.185820,0:00:03.936225,2,left,1,0.667343091193743,37,f,1,5,2018_Sep_17_1511,MP_PerceptionTuring2,59.945297478783225,
71,resources/videos_generated\model(vcgpdm)-dataset(walking)-mode(ELBO)-parts(1)-dyn(24)-lvm(27)_final(6).mov,resources/videos_natural\training(2).mov,False,False,right,0,70,70,70,2018-09-17 15:19:35.970922,2018-09-17 15:19:39.991152,0:00:04.020230,2,right,1,0.8008995904106087,37,f,1,5,2018_Sep_17_1511,MP_PerceptionTuring2,59.945297478783225,
72,resources/videos_generated\model(vcgpdm)-dataset(walking)-mode(ELBO)-parts(2)-dyn(24)-lvm(19)_final(1).mov,resources/videos_natural\training(42).mov,True,False,right,0,71,71,71,2018-09-17 15:19:41.909262,2018-09-17 15:19:45.829486,0:00:03.920224,2,left,0,0.48404077821965075,37,f,1,5,2018_Sep_17_1511,MP_PerceptionTuring2,59.945297478783225,
73,resources/videos_generated\model(vcgpdm)-dataset(walking)-mode(ELBO)-parts(2)-dyn(25)-lvm(20)_final(3).mov,resources/videos_natural\training(27).mov,True,False,right,0,72,72,72,2018-09-17 15:19:47.430577,2018-09-17 15:19:51.534812,0:00:04.104235,2,left,0,0.4839835561979271,37,f,1,5,2018_Sep_17_1511,MP_PerceptionTuring2,59.945297478783225,
74,resources/videos_generated\model(vcgpdm)-dataset(walking)-mode(ELBO)-parts(1)-dyn(24)-lvm(27)_final(4).mov,resources/videos_natural\training(0).mov,False,False,right,0,73,73,73,2018-09-17 15:19:53.135904,2018-09-17 15:19:57.073129,0:00:03.937225,2,left,0,0.6844386218529053,37,f,1,5,2018_Sep_17_1511,MP_PerceptionTuring2,59.945297478783225,
75,resources/videos_generated\model(vcgpdm)-dataset(walking)-mode(ELBO)-parts(2)-dyn(24)-lvm(17)_final(7).mov,resources/videos_natural\training(48).mov,True,True,left,0,74,74,74,2018-09-17 15:19:58.874232,2018-09-17 15:20:02.827458,0:00:03.953226,2,right,0,0.43408655583652944,37,f,1,5,2018_Sep_17_1511,MP_PerceptionTuring2,59.945297478783225,
76,resources/videos_generated\model(vcgpdm)-dataset(walking)-mode(ELBO)-parts(2)-dyn(22)-lvm(19)_final(5).mov,resources/videos_natural\training(19).mov,False,False,right,0,75,75,75,2018-09-17 15:20:04.378547,2018-09-17 15:20:08.248768,0:00:03.870221,2,right,1,0.5674358511023456,37,f,1,5,2018_Sep_17_1511,MP_PerceptionTuring2,59.945297478783225,
77,resources/videos_generated\model(vcgpdm)-dataset(walking)-mode(ELBO)-parts(1)-dyn(23)-lvm(26)_final(3)_hip-corrected.mov,resources/videos_natural\training(33).mov,False,True,left,0,76,76,76,2018-09-17 15:20:09.933864,2018-09-17 15:20:13.870090,0:00:03.936226,2,left,1,0.500650222864806,37,f,1,5,2018_Sep_17_1511,MP_PerceptionTuring2,59.945297478783225,
78,resources/videos_generated\model(vcgpdm)-dataset(walking)-mode(ELBO)-parts(1)-dyn(23)-lvm(26)_final(9).mov,resources/videos_natural\training(2).mov,False,True,left,0,77,77,77,2018-09-17 15:20:15.488182,2018-09-17 15:20:19.408406,0:00:03.920224,2,left,1,0.5172623780267713,37,f,1,5,2018_Sep_17_1511,MP_PerceptionTuring2,59.945297478783225,
79,resources/videos_generated\model(vcgpdm)-dataset(walking)-mode(ELBO)-parts(1)-dyn(26)-lvm(25)_final(3).mov,resources/videos_natural\training(47).mov,True,True,left,0,78,78,78,2018-09-17 15:20:21.043500,2018-09-17 15:20:25.113733,0:00:04.070233,2,left,1,0.41735393326098347,37,f,1,5,2018_Sep_17_1511,MP_PerceptionTuring2,59.945297478783225,
80,resources/videos_generated\model(tmp)-dataset(walking)-numprim(15)_final(6).mov,resources/videos_natural\training(44).mov,False,False,right,0,79,79,79,2018-09-17 15:20:26.647820,2018-09-17 15:20:30.718053,0:00:04.070233,2,right,1,0.5005725213829919,37,f,1,5,2018_Sep_17_1511,MP_PerceptionTuring2,59.945297478783225,
81,resources/videos_generated\model(vcgpdm)-dataset(walking)-mode(ELBO)-parts(2)-dyn(25)-lvm(18)_final(9).mov,resources/videos_natural\training(26).mov,True,False,right,0,80,80,80,2018-09-17 15:20:32.336146,2018-09-17 15:20:36.273371,0:00:03.937225,2,right,1,1.2679586796771218,37,f,1,5,2018_Sep_17_1511,MP_PerceptionTuring2,59.945297478783225,
82,resources/videos_generated\model(vcgpdm)-dataset(walking)-mode(ELBO)-parts(1)-dyn(22)-lvm(25)_final(4).mov,resources/videos_natural\training(19).mov,False,False,right,0,81,81,81,2018-09-17 15:20:38.658507,2018-09-17 15:20:42.561731,0:00:03.903224,2,right,1,0.7508896518493202,37,f,1,5,2018_Sep_17_1511,MP_PerceptionTuring2,59.945297478783225,
83,resources/videos_generated\model(vcgpdm)-dataset(walking)-mode(ELBO)-parts(2)-dyn(27)-lvm(20)_final(5).mov,resources/videos_natural\training(40).mov,False,True,left,0,82,82,82,2018-09-17 15:20:44.429838,2018-09-17 15:20:48.334061,0:00:03.904223,2,right,0,0.4673635706542427,37,f,1,5,2018_Sep_17_1511,MP_PerceptionTuring2,59.945297478783225,
84,resources/videos_generated\model(vcgpdm)-dataset(walking)-mode(ELBO)-parts(1)-dyn(24)-lvm(25)_final(2).mov,resources/videos_natural\training(29).mov,False,False,right,0,83,83,83,2018-09-17 15:20:49.918151,2018-09-17 15:20:53.855377,0:00:03.937226,2,left,0,0.5506246235393064,37,f,1,5,2018_Sep_17_1511,MP_PerceptionTuring2,59.945297478783225,
85,resources/videos_generated\model(vcgpdm)-dataset(walking)-mode(ELBO)-parts(1)-dyn(27)-lvm(28)_final(7).mov,resources/videos_natural\training(33).mov,False,True,left,0,84,84,84,2018-09-17 15:20:55.523472,2018-09-17 15:20:59.576704,0:00:04.053232,2,right,0,0.6007652692446754,37,f,1,5,2018_Sep_17_1511,MP_PerceptionTuring2,59.945297478783225,
86,resources/videos_generated\model(tmp)-dataset(walking)-numprim(11)_final(4).mov,resources/videos_natural\training(4).mov,True,False,right,0,85,85,85,2018-09-17 15:21:01.294802,2018-09-17 15:21:05.215026,0:00:03.920224,2,right,1,0.8342091314300433,37,f,1,5,2018_Sep_17_1511,MP_PerceptionTuring2,59.945297478783225,
87,resources/videos_generated\model(vcgpdm)-dataset(walking)-mode(ELBO)-parts(2)-dyn(27)-lvm(18)_final(1).mov,resources/videos_natural\training(16).mov,False,True,left,0,86,86,86,2018-09-17 15:21:07.166138,2018-09-17 15:21:11.220370,0:00:04.054232,2,right,0,1.3179851825082096,37,f,1,5,2018_Sep_17_1511,MP_PerceptionTuring2,59.945297478783225,
88,resources/videos_generated\model(vcgpdm)-dataset(walking)-mode(ELBO)-parts(1)-dyn(23)-lvm(28)_final(0).mov,resources/videos_natural\training(45).mov,True,False,right,0,87,87,87,2018-09-17 15:21:13.655509,2018-09-17 15:21:17.575733,0:00:03.920224,2,left,0,0.6007487049753308,37,f,1,5,2018_Sep_17_1511,MP_PerceptionTuring2,59.945297478783225,
89,resources/videos_generated\model(vcgpdm)-dataset(walking)-mode(ELBO)-parts(1)-dyn(28)-lvm(23)_final(3)_fail.mov,resources/videos_natural\training(29).mov,False,False,right,0,88,88,88,2018-09-17 15:21:19.293832,2018-09-17 15:21:23.414067,0:00:04.120235,2,right,1,0.5005936031802776,37,f,1,5,2018_Sep_17_1511,MP_PerceptionTuring2,59.945297478783225,
90,resources/videos_generated\model(vcgpdm)-dataset(walking)-mode(ELBO)-parts(2)-dyn(25)-lvm(20)_final(1).mov,resources/videos_natural\training(4).mov,True,False,right,0,89,89,89,2018-09-17 15:21:25.032160,2018-09-17 15:21:28.952384,0:00:03.920224,2,left,0,0.45058065293324034,37,f,1,5,2018_Sep_17_1511,MP_PerceptionTuring2,59.945297478783225,
91,resources/videos_generated\model(vcgpdm)-dataset(walking)-mode(ELBO)-parts(2)-dyn(22)-lvm(21)_final(7).mov,resources/videos_natural\training(5).mov,False,False,right,0,90,90,90,2018-09-17 15:22:04.366410,2018-09-17 15:22:08.470644,0:00:04.104234,3,left,0,0.033613721238452854,37,f,1,5,2018_Sep_17_1511,MP_PerceptionTuring2,59.945297478783225,
92,resources/videos_generated\model(vcgpdm)-dataset(walking)-mode(ELBO)-parts(1)-dyn(26)-lvm(27)_final(5).mov,resources/videos_natural\training(31).mov,True,False,right,0,91,91,91,2018-09-17 15:22:09.620710,2018-09-17 15:22:13.740946,0:00:04.120236,3,right,1,0.4840702927356233,37,f,1,5,2018_Sep_17_1511,MP_PerceptionTuring2,59.945297478783225,
93,resources/videos_generated\model(vcgpdm)-dataset(walking)-mode(ELBO)-parts(1)-dyn(27)-lvm(26)_final(7).mov,resources/videos_natural\training(39).mov,True,False,right,0,92,92,92,2018-09-17 15:22:15.342037,2018-09-17 15:22:19.245261,0:00:03.903224,3,right,1,0.7675668594145009,37,f,1,5,2018_Sep_17_1511,MP_PerceptionTuring2,59.945297478783225,
94,resources/videos_generated\model(dmp)-dataset(walking)-npsi(100)_final(2).mov,resources/videos_natural\training(43).mov,False,False,right,0,93,93,93,2018-09-17 15:22:21.130368,2018-09-17 15:22:25.167599,0:00:04.037231,3,right,1,0.7007652692445845,37,f,1,5,2018_Sep_17_1511,MP_PerceptionTuring2,59.945297478783225,
95,resources/videos_generated\model(vcgpdm)-dataset(walking)-mode(ELBO)-parts(1)-dyn(27)-lvm(26)_final(5).mov,resources/videos_natural\training(28).mov,True,True,left,0,94,94,94,2018-09-17 15:22:26.985703,2018-09-17 15:22:31.072937,0:00:04.087234,3,left,1,0.517392181664718,37,f,1,5,2018_Sep_17_1511,MP_PerceptionTuring2,59.945297478783225,
96,resources/videos_generated\model(vcgpdm)-dataset(walking)-mode(ELBO)-parts(1)-dyn(28)-lvm(23)_final(7).mov,resources/videos_natural\training(20).mov,True,False,right,0,95,95,95,2018-09-17 15:22:32.707031,2018-09-17 15:22:36.627255,0:00:03.920224,3,right,1,0.8175939645825565,37,f,1,5,2018_Sep_17_1511,MP_PerceptionTuring2,59.945297478783225,
97,resources/videos_generated\model(vcgpdm)-dataset(walking)-mode(ELBO)-parts(2)-dyn(22)-lvm(21)_final(5).mov,resources/videos_natural\training(4).mov,True,False,right,0,96,96,96,2018-09-17 15:22:38.562366,2018-09-17 15:22:42.532593,0:00:03.970227,3,right,1,0.5506577520779956,37,f,1,5,2018_Sep_17_1511,MP_PerceptionTuring2,59.945297478783225,
98,resources/videos_generated\model(vcgpdm)-dataset(walking)-mode(ELBO)-parts(2)-dyn(26)-lvm(19)_final(5).mov,resources/videos_natural\training(27).mov,True,True,left,0,97,97,97,2018-09-17 15:22:44.200688,2018-09-17 15:22:48.120912,0:00:03.920224,3,right,0,0.6841787134080732,37,f,1,5,2018_Sep_17_1511,MP_PerceptionTuring2,59.945297478783225,
99,resources/videos_generated\model(vcgpdm)-dataset(walking)-mode(ELBO)-parts(1)-dyn(27)-lvm(22)_final(5).mov,resources/videos_natural\training(44).mov,True,True,left,0,98,98,98,2018-09-17 15:22:49.922015,2018-09-17 15:22:53.825239,0:00:03.903224,3,left,1,0.6007905674014182,37,f,1,5,2018_Sep_17_1511,MP_PerceptionTuring2,59.945297478783225,
100,resources/videos_generated\model(vcgpdm)-dataset(walking)-mode(ELBO)-parts(1)-dyn(24)-lvm(25)_final(6).mov,resources/videos_natural\training(4).mov,True,True,left,0,99,99,99,2018-09-17 15:22:55.543337,2018-09-17 15:22:59.563567,0:00:04.020230,3,left,1,0.45069720515607514,37,f,1,5,2018_Sep_17_1511,MP_PerceptionTuring2,59.945297478783225,
101,resources/videos_generated\model(vcgpdm)-dataset(walking)-mode(ELBO)-parts(1)-dyn(27)-lvm(22)_final(7).mov,resources/videos_natural\training(13).mov,False,True,left,0,100,100,100,2018-09-17 15:23:01.131656,2018-09-17 15:23:05.034880,0:00:03.903224,3,right,0,0.5840790266233853,37,f,1,5,2018_Sep_17_1511,MP_PerceptionTuring2,59.945297478783225,
102,resources/videos_generated\model(vcgpdm)-dataset(walking)-mode(ELBO)-parts(2)-dyn(24)-lvm(23)_final(9).mov,resources/videos_natural\training(29).mov,False,True,left,0,101,101,101,2018-09-17 15:23:06.736977,2018-09-17 15:23:10.657201,0:00:03.920224,3,right,0,0.4496816648595541,37,f,1,5,2018_Sep_17_1511,MP_PerceptionTuring2,59.945297478783225,
103,resources/videos_generated\model(vcgpdm)-dataset(walking)-mode(ELBO)-parts(1)-dyn(26)-lvm(25)_final(9).mov,resources/videos_natural\training(4).mov,False,True,left,0,102,102,102,2018-09-17 15:23:12.224291,2018-09-17 15:23:16.144515,0:00:03.920224,3,left,1,0.6674756053487272,37,f,1,5,2018_Sep_17_1511,MP_PerceptionTuring2,59.945297478783225,
104,resources/videos_generated\model(vcgpdm)-dataset(walking)-mode(ELBO)-parts(2)-dyn(25)-lvm(18)_final(5).mov,resources/videos_natural\training(12).mov,True,False,right,0,103,103,103,2018-09-17 15:23:17.929617,2018-09-17 15:23:21.849841,0:00:03.920224,3,right,1,0.43395765570403455,37,f,1,5,2018_Sep_17_1511,MP_PerceptionTuring2,59.945297478783225,
105,resources/videos_generated\model(vcgpdm)-dataset(walking)-mode(ELBO)-parts(2)-dyn(23)-lvm(18)_final(1).mov,resources/videos_natural\training(34).mov,True,True,left,0,104,104,104,2018-09-17 15:23:23.400930,2018-09-17 15:23:27.304153,0:00:03.903223,3,left,1,0.4004909047102956,37,f,1,5,2018_Sep_17_1511,MP_PerceptionTuring2,59.945297478783225,
106,resources/videos_generated\model(dmp)-dataset(walking)-npsi(60)_final(0).mov,resources/videos_natural\training(6).mov,True,False,right,0,105,105,105,2018-09-17 15:23:28.822240,2018-09-17 15:23:32.742464,0:00:03.920224,3,right,1,0.6841097458136574,37,f,1,5,2018_Sep_17_1511,MP_PerceptionTuring2,59.945297478783225,
107,resources/videos_generated\model(tmp)-dataset(walking)-numprim(14)_final(2).mov,resources/videos_natural\training(18).mov,True,False,right,0,106,106,106,2018-09-17 15:23:34.543567,2018-09-17 15:23:38.547797,0:00:04.004230,3,left,0,0.4339456089628584,37,f,1,5,2018_Sep_17_1511,MP_PerceptionTuring2,59.945297478783225,
108,resources/videos_generated\model(vcgpdm)-dataset(walking)-mode(ELBO)-parts(1)-dyn(28)-lvm(24)_final(7).mov,resources/videos_natural\training(34).mov,True,False,right,0,107,107,107,2018-09-17 15:23:40.098885,2018-09-17 15:23:44.119115,0:00:04.020230,3,left,0,0.31726659438641036,37,f,1,5,2018_Sep_17_1511,MP_PerceptionTuring2,59.945297478783225,
109,resources/videos_generated\model(vcgpdm)-dataset(walking)-mode(ELBO)-parts(2)-dyn(28)-lvm(21)_final(5).mov,resources/videos_natural\training(31).mov,False,True,left,0,108,108,108,2018-09-17 15:23:45.553197,2018-09-17 15:23:49.473421,0:00:03.920224,3,right,0,0.35066949765086974,37,f,1,5,2018_Sep_17_1511,MP_PerceptionTuring2,59.945297478783225,
110,resources/videos_generated\model(vcgpdm)-dataset(walking)-mode(ELBO)-parts(2)-dyn(28)-lvm(19)_final(7).mov,resources/videos_natural\training(44).mov,True,True,left,0,109,109,109,2018-09-17 15:23:50.941505,2018-09-17 15:23:54.828728,0:00:03.887223,3,left,1,0.40053638115887225,37,f,1,5,2018_Sep_17_1511,MP_PerceptionTuring2,59.945297478783225,
111,resources/videos_generated\model(vcgpdm)-dataset(walking)-mode(ELBO)-parts(2)-dyn(22)-lvm(23)_final(7).mov,resources/videos_natural\training(24).mov,False,True,left,0,110,110,110,2018-09-17 15:23:56.345815,2018-09-17 15:24:00.266039,0:00:03.920224,3,right,0,0.6174801228767137,37,f,1,5,2018_Sep_17_1511,MP_PerceptionTuring2,59.945297478783225,
112,resources/videos_generated\model(vcgpdm)-dataset(walking)-mode(ELBO)-parts(2)-dyn(23)-lvm(20)_final(7).mov,resources/videos_natural\training(10).mov,True,True,left,0,111,111,111,2018-09-17 15:24:02.001138,2018-09-17 15:24:06.021368,0:00:04.020230,3,left,1,0.5674030237321404,37,f,1,5,2018_Sep_17_1511,MP_PerceptionTuring2,59.945297478783225,
113,resources/videos_generated\model(vcgpdm)-dataset(walking)-mode(ELBO)-parts(1)-dyn(27)-lvm(22)_final(3).mov,resources/videos_natural\training(30).mov,False,False,right,0,112,112,112,2018-09-17 15:24:07.706464,2018-09-17 15:24:11.675691,0:00:03.969227,3,right,1,0.43402029875915105,37,f,1,5,2018_Sep_17_1511,MP_PerceptionTuring2,59.945297478783225,
114,resources/videos_generated\model(vcgpdm)-dataset(walking)-mode(ELBO)-parts(2)-dyn(28)-lvm(23)_final(5).mov,resources/videos_natural\training(13).mov,False,False,right,0,113,113,113,2018-09-17 15:24:13.227780,2018-09-17 15:24:17.131003,0:00:03.903223,3,right,1,0.4339088664016799,37,f,1,5,2018_Sep_17_1511,MP_PerceptionTuring2,59.945297478783225,
115,resources/videos_generated\model(vcgpdm)-dataset(walking)-mode(ELBO)-parts(2)-dyn(24)-lvm(17)_final(9).mov,resources/videos_natural\training(29).mov,True,False,right,0,114,114,114,2018-09-17 15:24:18.682092,2018-09-17 15:24:22.719323,0:00:04.037231,3,right,1,0.43389230213210794,37,f,1,5,2018_Sep_17_1511,MP_PerceptionTuring2,59.945297478783225,
116,resources/videos_generated\model(vcgpdm)-dataset(walking)-mode(ELBO)-parts(1)-dyn(23)-lvm(24)_final(9).mov,resources/videos_natural\training(48).mov,True,True,left,0,115,115,115,2018-09-17 15:24:24.270412,2018-09-17 15:24:28.290642,0:00:04.020230,3,left,1,0.500628839898809,37,f,1,5,2018_Sep_17_1511,MP_PerceptionTuring2,59.945297478783225,
117,resources/videos_generated\model(vcgpdm)-dataset(walking)-mode(ELBO)-parts(1)-dyn(22)-lvm(22)_final(2).mov,resources/videos_natural\training(24).mov,False,True,left,0,116,116,116,2018-09-17 15:24:29.908734,2018-09-17 15:24:33.844959,0:00:03.936225,3,right,0,0.7008866401638443,37,f,1,5,2018_Sep_17_1511,MP_PerceptionTuring2,59.945297478783225,
118,resources/videos_generated\model(dmp)-dataset(walking)-npsi(90)_final(8).mov,resources/videos_natural\training(24).mov,False,True,left,0,117,117,117,2018-09-17 15:24:35.663063,2018-09-17 15:24:39.583288,0:00:03.920225,3,left,1,0.5007932779183193,37,f,1,5,2018_Sep_17_1511,MP_PerceptionTuring2,59.945297478783225,
119,resources/videos_generated\model(vcgpdm)-dataset(walking)-mode(ELBO)-parts(1)-dyn(28)-lvm(27)_final(1).mov,resources/videos_natural\training(27).mov,False,False,right,0,118,118,118,2018-09-17 15:24:41.201380,2018-09-17 15:24:45.121604,0:00:03.920224,3,right,1,0.3683899530178678,37,f,1,5,2018_Sep_17_1511,MP_PerceptionTuring2,59.945297478783225,
120,resources/videos_generated\model(dmp)-dataset(walking)-npsi(80)_final(2).mov,resources/videos_natural\training(45).mov,True,True,left,0,119,119,119,2018-09-17 15:24:46.606689,2018-09-17 15:24:50.509913,0:00:03.903224,3,left,1,0.33379231417893607,37,f,1,5,2018_Sep_17_1511,MP_PerceptionTuring2,59.945297478783225,
121,resources/videos_generated\model(vcgpdm)-dataset(walking)-mode(ELBO)-parts(1)-dyn(25)-lvm(26)_final(2).mov,resources/videos_natural\training(19).mov,True,False,right,0,120,120,120,2018-09-17 15:24:51.960996,2018-09-17 15:24:55.881220,0:00:03.920224,3,left,0,0.5673852547884053,37,f,1,5,2018_Sep_17_1511,MP_PerceptionTuring2,59.945297478783225,
122,resources/videos_generated\model(vcgpdm)-dataset(walking)-mode(ELBO)-parts(2)-dyn(24)-lvm(19)_final(5).mov,resources/videos_natural\training(1).mov,False,False,right,0,121,121,121,2018-09-17 15:24:57.565316,2018-09-17 15:25:01.469539,0:00:03.904223,3,right,1,0.5005954101916359,37,f,1,5,2018_Sep_17_1511,MP_PerceptionTuring2,59.945297478783225,
123,resources/videos_generated\model(vcgpdm)-dataset(walking)-mode(ELBO)-parts(1)-dyn(26)-lvm(25)_final(5).mov,resources/videos_natural\training(10).mov,True,True,left,0,122,122,122,2018-09-17 15:25:03.087632,2018-09-17 15:25:07.190867,0:00:04.103235,3,left,1,0.46737411155299924,37,f,1,5,2018_Sep_17_1511,MP_PerceptionTuring2,59.945297478783225,
124,resources/videos_generated\model(vcgpdm)-dataset(walking)-mode(ELBO)-parts(1)-dyn(23)-lvm(24)_final(1).mov,resources/videos_natural\training(20).mov,True,True,left,0,123,123,123,2018-09-17 15:25:08.774957,2018-09-17 15:25:12.812188,0:00:04.037231,3,left,1,0.4840443922416853,37,f,1,5,2018_Sep_17_1511,MP_PerceptionTuring2,59.945297478783225,
125,resources/videos_generated\model(vcgpdm)-dataset(walking)-mode(ELBO)-parts(2)-dyn(22)-lvm(17)_final(5).mov,resources/videos_natural\training(30).mov,True,True,left,0,124,124,124,2018-09-17 15:25:14.413280,2018-09-17 15:25:18.333504,0:00:03.920224,3,right,0,0.45062703288749617,37,f,1,5,2018_Sep_17_1511,MP_PerceptionTuring2,59.945297478783225,
126,resources/videos_generated\model(vcgpdm)-dataset(walking)-mode(ELBO)-parts(1)-dyn(26)-lvm(25)_final(7).mov,resources/videos_natural\training(47).mov,False,False,right,0,125,125,125,2018-09-17 15:25:19.901594,2018-09-17 15:25:23.821818,0:00:03.920224,3,right,1,0.6840793277920056,37,f,1,5,2018_Sep_17_1511,MP_PerceptionTuring2,59.945297478783225,
127,resources/videos_generated\model(vcgpdm)-dataset(walking)-mode(ELBO)-parts(1)-dyn(27)-lvm(22)_final(9).mov,resources/videos_natural\training(36).mov,False,False,right,0,126,126,126,2018-09-17 15:25:25.622921,2018-09-17 15:25:29.527144,0:00:03.904223,3,right,1,0.6007143717620238,37,f,1,5,2018_Sep_17_1511,MP_PerceptionTuring2,59.945297478783225,
128,resources/videos_generated\model(vcgpdm)-dataset(walking)-mode(ELBO)-parts(2)-dyn(26)-lvm(21)_final(5).mov,resources/videos_natural\training(5).mov,False,True,left,0,127,127,127,2018-09-17 15:25:31.245242,2018-09-17 15:25:35.165467,0:00:03.920225,3,right,0,0.6675466811229853,37,f,1,5,2018_Sep_17_1511,MP_PerceptionTuring2,59.945297478783225,
129,resources/videos_generated\model(dmp)-dataset(walking)-npsi(50)_final(4).mov,resources/videos_natural\training(37).mov,False,False,right,0,128,128,128,2018-09-17 15:25:36.949569,2018-09-17 15:25:40.870793,0:00:03.921224,3,right,1,0.4006137814722024,37,f,1,5,2018_Sep_17_1511,MP_PerceptionTuring2,59.945297478783225,
130,resources/videos_generated\model(vcgpdm)-dataset(walking)-mode(ELBO)-parts(1)-dyn(24)-lvm(23)_final(8).mov,resources/videos_natural\training(13).mov,False,False,right,0,129,129,129,2018-09-17 15:25:42.387880,2018-09-17 15:25:46.291103,0:00:03.903223,3,right,1,0.6673316467895347,37,f,1,5,2018_Sep_17_1511,MP_PerceptionTuring2,59.945297478783225,
131,resources/videos_generated\model(vcgpdm)-dataset(walking)-mode(ELBO)-parts(1)-dyn(24)-lvm(25)_final(4).mov,resources/videos_natural\training(8).mov,True,False,right,0,130,130,130,2018-09-17 15:25:48.076205,2018-09-17 15:25:51.996429,0:00:03.920224,3,right,1,0.3337519575952683,37,f,1,5,2018_Sep_17_1511,MP_PerceptionTuring2,59.945297478783225,
132,resources/videos_generated\model(vcgpdm)-dataset(walking)-mode(ELBO)-parts(1)-dyn(22)-lvm(27)_final(0)_hip-correted.mov,resources/videos_natural\training(25).mov,True,False,right,0,131,131,131,2018-09-17 15:25:53.447512,2018-09-17 15:25:57.367737,0:00:03.920225,3,right,1,0.5673852547884053,37,f,1,5,2018_Sep_17_1511,MP_PerceptionTuring2,59.945297478783225,
133,resources/videos_generated\model(vcgpdm)-dataset(walking)-mode(ELBO)-parts(1)-dyn(28)-lvm(27)_final(9).mov,resources/videos_natural\training(18).mov,False,True,left,0,132,132,132,2018-09-17 15:25:59.051833,2018-09-17 15:26:02.972057,0:00:03.920224,3,right,0,0.4839431996147141,37,f,1,5,2018_Sep_17_1511,MP_PerceptionTuring2,59.945297478783225,
134,resources/videos_generated\model(vcgpdm)-dataset(walking)-mode(ELBO)-parts(2)-dyn(28)-lvm(21)_final(1).mov,resources/videos_natural\training(41).mov,False,False,right,0,133,133,133,2018-09-17 15:26:04.574149,2018-09-17 15:26:08.627381,0:00:04.053232,3,left,0,0.5339651849176335,37,f,1,5,2018_Sep_17_1511,MP_PerceptionTuring2,59.945297478783225,
135,resources/videos_generated\model(vcgpdm)-dataset(walking)-mode(ELBO)-parts(2)-dyn(25)-lvm(22)_final(7).mov,resources/videos_natural\training(41).mov,True,True,left,0,134,134,134,2018-09-17 15:26:10.278475,2018-09-17 15:26:14.198699,0:00:03.920224,3,right,0,1.2179400072282078,37,f,1,5,2018_Sep_17_1511,MP_PerceptionTuring2,59.945297478783225,
136,resources/videos_generated\model(vcgpdm)-dataset(walking)-mode(ELBO)-parts(1)-dyn(27)-lvm(24)_final(3).mov,resources/videos_natural\training(44).mov,False,False,right,0,135,135,135,2018-09-17 15:26:50.279763,2018-09-17 15:26:54.182986,0:00:03.903223,4,right,1,0.30057161787726727,37,f,1,5,2018_Sep_17_1511,MP_PerceptionTuring2,59.945297478783225,
137,resources/videos_generated\model(dmp)-dataset(walking)-npsi(80)_final(0).mov,resources/videos_natural\training(48).mov,False,True,left,0,136,136,136,2018-09-17 15:26:55.601067,2018-09-17 15:26:59.521292,0:00:03.920225,4,left,1,0.7340730032524334,37,f,1,5,2018_Sep_17_1511,MP_PerceptionTuring2,59.945297478783225,
138,resources/videos_generated\model(vcgpdm)-dataset(walking)-mode(ELBO)-parts(1)-dyn(22)-lvm(23)_final(8).mov,resources/videos_natural\training(32).mov,False,False,right,0,137,137,137,2018-09-17 15:27:01.372397,2018-09-17 15:27:05.492633,0:00:04.120236,4,right,1,0.917637031682716,37,f,1,5,2018_Sep_17_1511,MP_PerceptionTuring2,59.945297478783225,
139,resources/videos_generated\model(vcgpdm)-dataset(walking)-mode(ELBO)-parts(1)-dyn(23)-lvm(26)_final(7).mov,resources/videos_natural\training(34).mov,True,True,left,0,138,138,138,2018-09-17 15:27:07.527749,2018-09-17 15:27:11.564980,0:00:04.037231,4,left,1,0.4339901819057559,37,f,1,5,2018_Sep_17_1511,MP_PerceptionTuring2,59.945297478783225,
140,resources/videos_generated\model(vcgpdm)-dataset(walking)-mode(ELBO)-parts(1)-dyn(26)-lvm(22)_final(7).mov,resources/videos_natural\training(42).mov,True,True,left,0,139,139,139,2018-09-17 15:27:13.116069,2018-09-17 15:27:17.036293,0:00:03.920224,4,right,0,0.7507962896038407,37,f,1,5,2018_Sep_17_1511,MP_PerceptionTuring2,59.945297478783225,
141,resources/videos_generated\model(vcgpdm)-dataset(walking)-mode(ELBO)-parts(2)-dyn(27)-lvm(22)_final(3).mov,resources/videos_natural\training(37).mov,False,True,left,0,140,140,140,2018-09-17 15:27:18.904400,2018-09-17 15:27:22.807623,0:00:03.903223,4,right,0,0.7175563185160172,37,f,1,5,2018_Sep_17_1511,MP_PerceptionTuring2,59.945297478783225,
142,resources/videos_generated\model(vcgpdm)-dataset(walking)-mode(ELBO)-parts(2)-dyn(24)-lvm(21)_final(7).mov,resources/videos_natural\training(26).mov,False,False,right,0,141,141,141,2018-09-17 15:27:24.642728,2018-09-17 15:27:28.679959,0:00:04.037231,4,left,0,0.7176075171664706,37,f,1,5,2018_Sep_17_1511,MP_PerceptionTuring2,59.945297478783225,
143,resources/videos_generated\model(vcgpdm)-dataset(walking)-mode(ELBO)-parts(1)-dyn(26)-lvm(23)_final(5).mov,resources/videos_natural\training(0).mov,False,True,left,0,142,142,142,2018-09-17 15:27:30.515064,2018-09-17 15:27:34.551295,0:00:04.036231,4,left,1,0.8844588001447846,37,f,1,5,2018_Sep_17_1511,MP_PerceptionTuring2,59.945297478783225,
144,resources/videos_generated\model(vcgpdm)-dataset(walking)-mode(ELBO)-parts(1)-dyn(27)-lvm(24)_final(9).mov,resources/videos_natural\training(40).mov,True,True,left,0,143,143,143,2018-09-17 15:27:36.553410,2018-09-17 15:27:40.473634,0:00:03.920224,4,left,1,0.5674596434164414,37,f,1,5,2018_Sep_17_1511,MP_PerceptionTuring2,59.945297478783225,
145,resources/videos_generated\model(dmp)-dataset(walking)-npsi(50)_final(2).mov,resources/videos_natural\training(45).mov,False,False,right,0,144,144,144,2018-09-17 15:27:42.157730,2018-09-17 15:27:46.244964,0:00:04.087234,4,right,1,0.7841407661730955,37,f,1,5,2018_Sep_17_1511,MP_PerceptionTuring2,59.945297478783225,
146,resources/videos_generated\model(vcgpdm)-dataset(walking)-mode(ELBO)-parts(1)-dyn(22)-lvm(25)_final(8).mov,resources/videos_natural\training(33).mov,True,True,left,0,145,145,145,2018-09-17 15:27:48.146073,2018-09-17 15:27:52.033295,0:00:03.887222,4,left,1,0.5840025298157343,37,f,1,5,2018_Sep_17_1511,MP_PerceptionTuring2,59.945297478783225,
147,resources/videos_generated\model(vcgpdm)-dataset(walking)-mode(ELBO)-parts(1)-dyn(27)-lvm(24)_final(1).mov,resources/videos_natural\training(24).mov,False,True,left,0,146,146,146,2018-09-17 15:27:53.734392,2018-09-17 15:27:57.637616,0:00:03.903224,4,right,0,0.6675996867847971,37,f,1,5,2018_Sep_17_1511,MP_PerceptionTuring2,59.945297478783225,
148,resources/videos_generated\model(vcgpdm)-dataset(walking)-mode(ELBO)-parts(2)-dyn(22)-lvm(17)_final(9).mov,resources/videos_natural\training(15).mov,False,True,left,0,147,147,147,2018-09-17 15:27:59.422718,2018-09-17 15:28:03.325941,0:00:03.903223,4,right,0,1.1680243344176233,37,f,1,5,2018_Sep_17_1511,MP_PerceptionTuring2,59.945297478783225,
149,resources/videos_generated\model(vcgpdm)-dataset(walking)-mode(ELBO)-parts(2)-dyn(28)-lvm(19)_final(3).mov,resources/videos_natural\training(47).mov,True,False,right,0,148,148,148,2018-09-17 15:28:05.612072,2018-09-17 15:28:09.531296,0:00:03.919224,4,right,1,0.6339787375013657,37,f,1,5,2018_Sep_17_1511,MP_PerceptionTuring2,59.945297478783225,
150,resources/videos_generated\model(vcgpdm)-dataset(walking)-mode(ELBO)-parts(2)-dyn(23)-lvm(20)_final(9).mov,resources/videos_natural\training(36).mov,True,False,right,0,149,149,149,2018-09-17 15:28:11.283396,2018-09-17 15:28:15.236622,0:00:03.953226,4,right,1,0.5340468015901934,37,f,1,5,2018_Sep_17_1511,MP_PerceptionTuring2,59.945297478783225,
151,resources/videos_generated\model(vcgpdm)-dataset(walking)-mode(ELBO)-parts(1)-dyn(26)-lvm(27)_final(1).mov,resources/videos_natural\training(40).mov,False,True,left,0,150,150,150,2018-09-17 15:28:16.887717,2018-09-17 15:28:20.807941,0:00:03.920224,4,right,0,0.46729761474534826,37,f,1,5,2018_Sep_17_1511,MP_PerceptionTuring2,59.945297478783225,
152,resources/videos_generated\model(dmp)-dataset(walking)-npsi(70)_final(2).mov,resources/videos_natural\training(23).mov,False,False,right,0,151,151,151,2018-09-17 15:28:22.393032,2018-09-17 15:28:26.346258,0:00:03.953226,4,right,1,0.6173012287672464,37,f,1,5,2018_Sep_17_1511,MP_PerceptionTuring2,59.945297478783225,
153,resources/videos_generated\model(vcgpdm)-dataset(walking)-mode(ELBO)-parts(1)-dyn(24)-lvm(27)_final(0).mov,resources/videos_natural\training(20).mov,False,False,right,0,152,152,152,2018-09-17 15:28:28.081357,2018-09-17 15:28:32.134589,0:00:04.053232,4,right,1,0.5006752198532922,37,f,1,5,2018_Sep_17_1511,MP_PerceptionTuring2,59.945297478783225,
154,resources/videos_generated\model(vcgpdm)-dataset(walking)-mode(ELBO)-parts(1)-dyn(27)-lvm(22)_final(1).mov,resources/videos_natural\training(21).mov,True,True,left,0,153,153,153,2018-09-17 15:28:33.752681,2018-09-17 15:28:37.739909,0:00:03.987228,4,right,0,0.4507158776050346,37,f,1,5,2018_Sep_17_1511,MP_PerceptionTuring2,59.945297478783225,
155,resources/videos_generated\model(vcgpdm)-dataset(walking)-mode(ELBO)-parts(2)-dyn(24)-lvm(21)_final(5).mov,resources/videos_natural\training(23).mov,True,False,right,0,154,154,154,2018-09-17 15:28:39.307999,2018-09-17 15:28:43.394233,0:00:04.086234,4,left,0,0.6342070232499282,37,f,1,5,2018_Sep_17_1511,MP_PerceptionTuring2,59.945297478783225,
156,resources/videos_generated\model(vcgpdm)-dataset(walking)-mode(ELBO)-parts(2)-dyn(26)-lvm(21)_final(1).mov,resources/videos_natural\training(32).mov,False,False,right,0,155,155,155,2018-09-17 15:28:45.146333,2018-09-17 15:28:49.065557,0:00:03.919224,4,right,1,0.7174560293938157,37,f,1,5,2018_Sep_17_1511,MP_PerceptionTuring2,59.945297478783225,
157,resources/videos_generated\model(vcgpdm)-dataset(walking)-mode(ELBO)-parts(1)-dyn(27)-lvm(28)_final(5).mov,resources/videos_natural\training(37).mov,False,False,right,0,156,156,156,2018-09-17 15:28:50.900662,2018-09-17 15:28:54.837887,0:00:03.937225,4,right,1,0.450506264305659,37,f,1,5,2018_Sep_17_1511,MP_PerceptionTuring2,59.945297478783225,
158,resources/videos_generated\model(vcgpdm)-dataset(walking)-mode(ELBO)-parts(2)-dyn(28)-lvm(19)_final(5).mov,resources/videos_natural\training(21).mov,False,False,right,0,157,157,157,2018-09-17 15:28:56.405977,2018-09-17 15:29:00.325201,0:00:03.919224,4,right,1,0.6174587399109441,37,f,1,5,2018_Sep_17_1511,MP_PerceptionTuring2,59.945297478783225,
159,resources/videos_generated\model(vcgpdm)-dataset(walking)-mode(ELBO)-parts(1)-dyn(25)-lvm(22)_final(0).mov,resources/videos_natural\training(35).mov,True,False,right,0,158,158,158,2018-09-17 15:29:02.060300,2018-09-17 15:29:05.980525,0:00:03.920225,4,right,1,0.4338603782680366,37,f,1,5,2018_Sep_17_1511,MP_PerceptionTuring2,59.945297478783225,
160,resources/videos_generated\model(vcgpdm)-dataset(walking)-mode(ELBO)-parts(2)-dyn(23)-lvm(20)_final(1).mov,resources/videos_natural\training(42).mov,False,False,right,0,159,159,159,2018-09-17 15:29:07.531613,2018-09-17 15:29:11.551843,0:00:04.020230,4,right,1,0.6507697867723437,37,f,1,5,2018_Sep_17_1511,MP_PerceptionTuring2,59.945297478783225,
161,resources/videos_generated\model(vcgpdm)-dataset(walking)-mode(ELBO)-parts(2)-dyn(26)-lvm(19)_final(3).mov,resources/videos_natural\training(17).mov,True,True,left,0,160,160,160,2018-09-17 15:29:13.319944,2018-09-17 15:29:17.440180,0:00:04.120236,4,left,1,0.4841380556558761,37,f,1,5,2018_Sep_17_1511,MP_PerceptionTuring2,59.945297478783225,
162,resources/videos_generated\model(vcgpdm)-dataset(walking)-mode(ELBO)-parts(2)-dyn(26)-lvm(21)_final(7).mov,resources/videos_natural\training(41).mov,True,True,left,0,161,161,161,2018-09-17 15:29:19.042272,2018-09-17 15:29:22.978497,0:00:03.936225,4,right,0,0.53408264064592,37,f,1,5,2018_Sep_17_1511,MP_PerceptionTuring2,59.945297478783225,
163,resources/videos_generated\model(vcgpdm)-dataset(walking)-mode(ELBO)-parts(2)-dyn(28)-lvm(17)_final(1).mov,resources/videos_natural\training(39).mov,True,True,left,0,162,162,162,2018-09-17 15:29:24.629591,2018-09-17 15:29:28.549815,0:00:03.920224,4,left,1,0.6507983977835465,37,f,1,5,2018_Sep_17_1511,MP_PerceptionTuring2,59.945297478783225,
164,resources/videos_generated\model(vcgpdm)-dataset(walking)-mode(ELBO)-parts(1)-dyn(25)-lvm(28)_final(4).mov,resources/videos_natural\training(23).mov,False,True,left,0,163,163,163,2018-09-17 15:29:30.317917,2018-09-17 15:29:34.222140,0:00:03.904223,4,left,1,0.4506306469102128,37,f,1,5,2018_Sep_17_1511,MP_PerceptionTuring2,59.945297478783225,
165,resources/videos_generated\model(vcgpdm)-dataset(walking)-mode(ELBO)-parts(1)-dyn(27)-lvm(24)_final(5).mov,resources/videos_natural\training(1).mov,True,False,right,0,164,164,164,2018-09-17 15:29:35.789230,2018-09-17 15:29:39.709454,0:00:03.920224,4,right,1,0.5673340561374971,37,f,1,5,2018_Sep_17_1511,MP_PerceptionTuring2,59.945297478783225,
166,resources/videos_generated\model(tmp)-dataset(walking)-numprim(12)_final(8).mov,resources/videos_natural\training(25).mov,False,False,right,0,165,165,165,2018-09-17 15:29:41.394550,2018-09-17 15:29:45.314774,0:00:03.920224,4,right,1,0.6174503071915751,37,f,1,5,2018_Sep_17_1511,MP_PerceptionTuring2,59.945297478783225,
167,resources/videos_generated\model(vcgpdm)-dataset(walking)-mode(ELBO)-parts(1)-dyn(25)-lvm(24)_final(9).mov,resources/videos_natural\training(8).mov,True,True,left,0,166,166,166,2018-09-17 15:29:47.048874,2018-09-17 15:29:50.953097,0:00:03.904223,4,left,1,0.5340407782191505,37,f,1,5,2018_Sep_17_1511,MP_PerceptionTuring2,59.945297478783225,
168,resources/videos_generated\model(vcgpdm)-dataset(walking)-mode(ELBO)-parts(2)-dyn(22)-lvm(19)_final(1).mov,resources/videos_natural\training(30).mov,True,False,right,0,167,167,167,2018-09-17 15:29:52.604191,2018-09-17 15:29:56.524416,0:00:03.920225,4,right,1,0.6174250090348323,37,f,1,5,2018_Sep_17_1511,MP_PerceptionTuring2,59.945297478783225,
169,resources/videos_generated\model(vcgpdm)-dataset(walking)-mode(ELBO)-parts(1)-dyn(23)-lvm(28)_final(8).mov,resources/videos_natural\training(19).mov,True,True,left,0,168,168,168,2018-09-17 15:29:58.258515,2018-09-17 15:30:02.212741,0:00:03.954226,4,left,1,0.33383417660525083,37,f,1,5,2018_Sep_17_1511,MP_PerceptionTuring2,59.945297478783225,
170,resources/videos_generated\model(tmp)-dataset(walking)-numprim(12)_final(2).mov,resources/videos_natural\training(19).mov,True,True,left,0,169,169,169,2018-09-17 15:30:03.663824,2018-09-17 15:30:07.701055,0:00:04.037231,4,right,0,0.6841958800146131,37,f,1,5,2018_Sep_17_1511,MP_PerceptionTuring2,59.945297478783225,
171,resources/videos_generated\model(vcgpdm)-dataset(walking)-mode(ELBO)-parts(1)-dyn(23)-lvm(28)_final(6)_hip-corrected.mov,resources/videos_natural\training(30).mov,False,False,right,0,170,170,170,2018-09-17 15:30:09.502158,2018-09-17 15:30:13.422382,0:00:03.920224,4,left,0,0.3505421033610219,37,f,1,5,2018_Sep_17_1511,MP_PerceptionTuring2,59.945297478783225,
172,resources/videos_generated\model(tmp)-dataset(walking)-numprim(13)_final(2).mov,resources/videos_natural\training(45).mov,False,True,left,0,171,171,171,2018-09-17 15:30:14.890466,2018-09-17 15:30:18.843692,0:00:03.953226,4,right,0,1.6683438742320504,37,f,1,5,2018_Sep_17_1511,MP_PerceptionTuring2,59.945297478783225,
173,resources/videos_generated\model(vcgpdm)-dataset(walking)-mode(ELBO)-parts(1)-dyn(24)-lvm(25)_final(8).mov,resources/videos_natural\training(13).mov,False,True,left,0,172,172,172,2018-09-17 15:30:21.628851,2018-09-17 15:30:25.616079,0:00:03.987228,4,left,1,0.4673584507891064,37,f,1,5,2018_Sep_17_1511,MP_PerceptionTuring2,59.945297478783225,
174,resources/videos_generated\model(vcgpdm)-dataset(walking)-mode(ELBO)-parts(2)-dyn(24)-lvm(17)_final(5).mov,resources/videos_natural\training(31).mov,True,True,left,0,173,173,173,2018-09-17 15:30:27.201170,2018-09-17 15:30:31.220400,0:00:04.019230,4,right,0,0.3505168052042791,37,f,1,5,2018_Sep_17_1511,MP_PerceptionTuring2,59.945297478783225,
175,resources/videos_generated\model(vcgpdm)-dataset(walking)-mode(ELBO)-parts(1)-dyn(22)-lvm(22)_final(8).mov,resources/videos_natural\training(6).mov,False,True,left,0,174,174,174,2018-09-17 15:30:32.688484,2018-09-17 15:30:36.608708,0:00:03.920224,4,left,1,0.5172693049030386,37,f,1,5,2018_Sep_17_1511,MP_PerceptionTuring2,59.945297478783225,
176,resources/videos_generated\model(vcgpdm)-dataset(walking)-mode(ELBO)-parts(2)-dyn(23)-lvm(22)_final(7).mov,resources/videos_natural\training(11).mov,True,True,left,0,175,175,175,2018-09-17 15:30:38.243802,2018-09-17 15:30:42.214029,0:00:03.970227,4,left,1,0.5342461751597511,37,f,1,5,2018_Sep_17_1511,MP_PerceptionTuring2,59.945297478783225,
177,resources/videos_generated\model(vcgpdm)-dataset(walking)-mode(ELBO)-parts(1)-dyn(25)-lvm(22)_final(4).mov,resources/videos_natural\training(3).mov,False,True,left,0,176,176,176,2018-09-17 15:30:43.865123,2018-09-17 15:30:47.785348,0:00:03.920225,4,left,1,0.5507417780991091,37,f,1,5,2018_Sep_17_1511,MP_PerceptionTuring2,59.945297478783225,
178,resources/videos_generated\model(vcgpdm)-dataset(walking)-mode(ELBO)-parts(1)-dyn(26)-lvm(22)_final(0).mov,resources/videos_natural\training(4).mov,True,True,left,0,177,177,177,2018-09-17 15:30:49.453443,2018-09-17 15:30:53.373667,0:00:03.920224,4,left,1,0.4339094687384204,37,f,1,5,2018_Sep_17_1511,MP_PerceptionTuring2,59.945297478783225,
179,resources/videos_generated\model(vcgpdm)-dataset(walking)-mode(ELBO)-parts(1)-dyn(28)-lvm(23)_final(9).mov,resources/videos_natural\training(1).mov,True,False,right,0,178,178,178,2018-09-17 15:30:54.924756,2018-09-17 15:30:58.860981,0:00:03.936225,4,right,1,0.6175698710999313,37,f,1,5,2018_Sep_17_1511,MP_PerceptionTuring2,59.945297478783225,
180,resources/videos_generated\model(vcgpdm)-dataset(walking)-mode(ELBO)-parts(2)-dyn(23)-lvm(20)_final(5).mov,resources/videos_natural\training(46).mov,False,False,right,0,179,179,179,2018-09-17 15:31:00.596080,2018-09-17 15:31:04.566307,0:00:03.970227,4,left,0,0.5506499216962766,37,f,1,5,2018_Sep_17_1511,MP_PerceptionTuring2,59.945297478783225,
181,resources/videos_generated\model(vcgpdm)-dataset(walking)-mode(ELBO)-parts(1)-dyn(23)-lvm(22)_final(1)_fail.mov,resources/videos_natural\training(46).mov,False,False,right,0,180,180,180,2018-09-17 15:31:39.163286,2018-09-17 15:31:43.099511,0:00:03.936225,5,right,1,3.6365859534994343,37,f,1,5,2018_Sep_17_1511,MP_PerceptionTuring2,59.945297478783225,
182,resources/videos_generated\model(vcgpdm)-dataset(walking)-mode(ELBO)-parts(1)-dyn(24)-lvm(23)_final(4)_fail.mov,resources/videos_natural\training(46).mov,True,False,right,0,181,181,181,2018-09-17 15:31:47.853783,2018-09-17 15:31:51.774007,0:00:03.920224,5,right,1,0.66744880134911,37,f,1,5,2018_Sep_17_1511,MP_PerceptionTuring2,59.945297478783225,
183,resources/videos_generated\model(tmp)-dataset(walking)-numprim(13)_final(8).mov,resources/videos_natural\training(22).mov,True,False,right,0,182,182,182,2018-09-17 15:31:53.559110,2018-09-17 15:31:57.478334,0:00:03.919224,5,right,1,0.9176852186483302,37,f,1,5,2018_Sep_17_1511,MP_PerceptionTuring2,59.945297478783225,
184,resources/videos_generated\model(vcgpdm)-dataset(walking)-mode(ELBO)-parts(1)-dyn(26)-lvm(23)_final(1).mov,resources/videos_natural\training(43).mov,False,True,left,0,183,183,183,2018-09-17 15:31:59.513450,2018-09-17 15:32:03.550681,0:00:04.037231,5,left,1,0.35021684134426323,37,f,1,5,2018_Sep_17_1511,MP_PerceptionTuring2,59.945297478783225,
185,resources/videos_generated\model(vcgpdm)-dataset(walking)-mode(ELBO)-parts(1)-dyn(27)-lvm(28)_final(3).mov,resources/videos_natural\training(22).mov,True,False,right,0,184,184,184,2018-09-17 15:32:05.018765,2018-09-17 15:32:08.988992,0:00:03.970227,5,left,0,0.4506996145046287,37,f,1,5,2018_Sep_17_1511,MP_PerceptionTuring2,59.945297478783225,
186,resources/videos_generated\model(vcgpdm)-dataset(walking)-mode(ELBO)-parts(2)-dyn(25)-lvm(18)_final(7).mov,resources/videos_natural\training(8).mov,True,True,left,0,185,185,185,2018-09-17 15:32:10.557082,2018-09-17 15:32:14.593313,0:00:04.036231,5,left,1,0.5496042645463604,37,f,1,5,2018_Sep_17_1511,MP_PerceptionTuring2,59.945297478783225,
187,resources/videos_generated\model(vcgpdm)-dataset(walking)-mode(ELBO)-parts(2)-dyn(27)-lvm(18)_final(9).mov,resources/videos_natural\training(35).mov,True,False,right,0,186,186,186,2018-09-17 15:32:16.261408,2018-09-17 15:32:20.198633,0:00:03.937225,5,left,0,0.41837489459112476,37,f,1,5,2018_Sep_17_1511,MP_PerceptionTuring2,59.945297478783225,
188,resources/videos_generated\model(vcgpdm)-dataset(walking)-mode(ELBO)-parts(2)-dyn(26)-lvm(19)_final(9).mov,resources/videos_natural\training(27).mov,False,True,left,0,187,187,187,2018-09-17 15:32:21.732721,2018-09-17 15:32:25.652945,0:00:03.920224,5,left,1,0.5004330803517405,37,f,1,5,2018_Sep_17_1511,MP_PerceptionTuring2,59.945297478783225,
189,resources/videos_generated\model(tmp)-dataset(walking)-numprim(15)_final(0).mov,resources/videos_natural\training(23).mov,False,False,right,0,188,188,188,2018-09-17 15:32:27.271038,2018-09-17 15:32:31.358272,0:00:04.087234,5,right,1,0.6342874352485524,37,f,1,5,2018_Sep_17_1511,MP_PerceptionTuring2,59.945297478783225,
190,resources/videos_generated\model(vcgpdm)-dataset(walking)-mode(ELBO)-parts(2)-dyn(24)-lvm(17)_final(3).mov,resources/videos_natural\training(46).mov,True,False,right,0,189,189,189,2018-09-17 15:32:33.109372,2018-09-17 15:32:37.012595,0:00:03.903223,5,left,0,0.4674138657996991,37,f,1,5,2018_Sep_17_1511,MP_PerceptionTuring2,59.945297478783225,
191,resources/videos_generated\model(vcgpdm)-dataset(walking)-mode(ELBO)-parts(2)-dyn(23)-lvm(18)_final(5).mov,resources/videos_natural\training(25).mov,False,False,right,0,190,190,190,2018-09-17 15:32:38.597686,2018-09-17 15:32:42.634917,0:00:04.037231,5,left,0,0.3837715335498615,37,f,1,5,2018_Sep_17_1511,MP_PerceptionTuring2,59.945297478783225,
192,resources/videos_generated\model(vcgpdm)-dataset(walking)-mode(ELBO)-parts(2)-dyn(28)-lvm(21)_final(3).mov,resources/videos_natural\training(14).mov,True,True,left,0,191,191,191,2018-09-17 15:32:44.136002,2018-09-17 15:32:48.089228,0:00:03.953226,5,left,1,0.3673430911935611,37,f,1,5,2018_Sep_17_1511,MP_PerceptionTuring2,59.945297478783225,
193,resources/videos_generated\model(vcgpdm)-dataset(walking)-mode(ELBO)-parts(2)-dyn(24)-lvm(23)_final(1).mov,resources/videos_natural\training(39).mov,False,True,left,0,192,192,192,2018-09-17 15:32:49.574313,2018-09-17 15:32:53.560541,0:00:03.986228,5,left,1,0.3503442356341111,37,f,1,5,2018_Sep_17_1511,MP_PerceptionTuring2,59.945297478783225,
194,resources/videos_generated\model(vcgpdm)-dataset(walking)-mode(ELBO)-parts(2)-dyn(28)-lvm(19)_final(9).mov,resources/videos_natural\training(1).mov,True,False,right,0,193,193,193,2018-09-17 15:32:55.028625,2018-09-17 15:32:58.914848,0:00:03.886223,5,left,0,0.35065775207795014,37,f,1,5,2018_Sep_17_1511,MP_PerceptionTuring2,59.945297478783225,
195,resources/videos_generated\model(vcgpdm)-dataset(walking)-mode(ELBO)-parts(1)-dyn(22)-lvm(23)_final(2).mov,resources/videos_natural\training(20).mov,True,False,right,0,194,194,194,2018-09-17 15:33:00.382932,2018-09-17 15:33:04.287155,0:00:03.904223,5,left,0,0.3839558486929491,37,f,1,5,2018_Sep_17_1511,MP_PerceptionTuring2,59.945297478783225,
196,resources/videos_generated\model(vcgpdm)-dataset(walking)-mode(ELBO)-parts(1)-dyn(27)-lvm(26)_final(3).mov,resources/videos_natural\training(24).mov,False,False,right,0,195,195,195,2018-09-17 15:33:05.787241,2018-09-17 15:33:09.757468,0:00:03.970227,5,right,1,0.6841907601492494,37,f,1,5,2018_Sep_17_1511,MP_PerceptionTuring2,59.945297478783225,
197,resources/videos_generated\model(vcgpdm)-dataset(walking)-mode(ELBO)-parts(1)-dyn(24)-lvm(27)_final(8).mov,resources/videos_natural\training(20).mov,False,True,left,0,196,196,196,2018-09-17 15:33:11.559571,2018-09-17 15:33:15.479795,0:00:03.920224,5,left,1,0.3838594747617208,37,f,1,5,2018_Sep_17_1511,MP_PerceptionTuring2,59.945297478783225,
198,resources/videos_generated\model(vcgpdm)-dataset(walking)-mode(ELBO)-parts(2)-dyn(28)-lvm(23)_final(7).mov,resources/videos_natural\training(38).mov,False,False,right,0,197,197,197,2018-09-17 15:33:16.980881,2018-09-17 15:33:20.901105,0:00:03.920224,5,right,1,0.8007932779182738,37,f,1,5,2018_Sep_17_1511,MP_PerceptionTuring2,59.945297478783225,
199,resources/videos_generated\model(vcgpdm)-dataset(walking)-mode(ELBO)-parts(2)-dyn(22)-lvm(21)_final(9).mov,resources/videos_natural\training(5).mov,True,False,right,0,198,198,198,2018-09-17 15:33:22.819215,2018-09-17 15:33:26.772441,0:00:03.953226,5,right,1,0.6006815443920459,37,f,1,5,2018_Sep_17_1511,MP_PerceptionTuring2,59.945297478783225,
200,resources/videos_generated\model(dmp)-dataset(walking)-npsi(80)_final(4).mov,resources/videos_natural\training(38).mov,False,True,left,0,199,199,199,2018-09-17 15:33:28.490539,2018-09-17 15:33:32.410764,0:00:03.920225,5,right,0,0.6673759185641757,37,f,1,5,2018_Sep_17_1511,MP_PerceptionTuring2,59.945297478783225,
201,resources/videos_generated\model(vcgpdm)-dataset(walking)-mode(ELBO)-parts(1)-dyn(24)-lvm(25)_final(0).mov,resources/videos_natural\training(28).mov,False,False,right,0,200,200,200,2018-09-17 15:33:34.195866,2018-09-17 15:33:38.099089,0:00:03.903223,5,right,1,0.5173852547886781,37,f,1,5,2018_Sep_17_1511,MP_PerceptionTuring2,59.945297478783225,
202,resources/videos_generated\model(vcgpdm)-dataset(walking)-mode(ELBO)-parts(1)-dyn(22)-lvm(23)_final(0).mov,resources/videos_natural\training(42).mov,False,False,right,0,201,201,201,2018-09-17 15:33:39.734182,2018-09-17 15:33:43.653407,0:00:03.919225,5,right,1,0.4672849656667495,37,f,1,5,2018_Sep_17_1511,MP_PerceptionTuring2,59.945297478783225,
203,resources/videos_generated\model(vcgpdm)-dataset(walking)-mode(ELBO)-parts(1)-dyn(25)-lvm(28)_final(0).mov,resources/videos_natural\training(37).mov,True,False,right,0,202,202,202,2018-09-17 15:33:45.238497,2018-09-17 15:33:49.142721,0:00:03.904224,5,right,1,0.5339751234791947,37,f,1,5,2018_Sep_17_1511,MP_PerceptionTuring2,59.945297478783225,
204,resources/videos_generated\model(dmp)-dataset(walking)-npsi(90)_final(6).mov,resources/videos_natural\training(36).mov,False,False,right,0,203,203,203,2018-09-17 15:33:50.793815,2018-09-17 15:33:54.697038,0:00:03.903223,5,right,1,0.650766473918793,37,f,1,5,2018_Sep_17_1511,MP_PerceptionTuring2,59.945297478783225,
205,resources/videos_generated\model(vcgpdm)-dataset(walking)-mode(ELBO)-parts(2)-dyn(26)-lvm(17)_final(3).mov,resources/videos_natural\training(32).mov,False,False,right,0,204,204,204,2018-09-17 15:33:56.465139,2018-09-17 15:34:00.385364,0:00:03.920225,5,right,1,0.5841097458137483,37,f,1,5,2018_Sep_17_1511,MP_PerceptionTuring2,59.945297478783225,
206,resources/videos_generated\model(vcgpdm)-dataset(walking)-mode(ELBO)-parts(2)-dyn(22)-lvm(23)_final(9).mov,resources/videos_natural\training(32).mov,False,True,left,0,205,205,205,2018-09-17 15:34:02.086461,2018-09-17 15:34:05.989684,0:00:03.903223,5,left,1,0.4004704252497504,37,f,1,5,2018_Sep_17_1511,MP_PerceptionTuring2,59.945297478783225,
207,resources/videos_generated\model(vcgpdm)-dataset(walking)-mode(ELBO)-parts(1)-dyn(27)-lvm(26)_final(1).mov,resources/videos_natural\training(9).mov,False,False,right,0,206,206,206,2018-09-17 15:34:07.507771,2018-09-17 15:34:11.477998,0:00:03.970227,5,right,1,0.6174379592821424,37,f,1,5,2018_Sep_17_1511,MP_PerceptionTuring2,59.945297478783225,
208,resources/videos_generated\model(vcgpdm)-dataset(walking)-mode(ELBO)-parts(1)-dyn(25)-lvm(22)_final(6).mov,resources/videos_natural\training(8).mov,True,False,right,0,207,207,207,2018-09-17 15:34:13.213097,2018-09-17 15:34:17.249328,0:00:04.036231,5,right,1,0.600793579087167,37,f,1,5,2018_Sep_17_1511,MP_PerceptionTuring2,59.945297478783225,
209,resources/videos_generated\model(vcgpdm)-dataset(walking)-mode(ELBO)-parts(1)-dyn(26)-lvm(23)_final(7).mov,resources/videos_natural\training(27).mov,False,True,left,0,208,208,208,2018-09-17 15:34:18.967426,2018-09-17 15:34:22.870650,0:00:03.903224,5,right,0,0.6344127213587853,37,f,1,5,2018_Sep_17_1511,MP_PerceptionTuring2,59.945297478783225,
210,resources/videos_generated\model(vcgpdm)-dataset(walking)-mode(ELBO)-parts(2)-dyn(27)-lvm(22)_final(5).mov,resources/videos_natural\training(16).mov,False,True,left,0,209,209,209,2018-09-17 15:34:24.622750,2018-09-17 15:34:28.558975,0:00:03.936225,5,left,1,0.450566196843738,37,f,1,5,2018_Sep_17_1511,MP_PerceptionTuring2,59.945297478783225,
211,resources/videos_generated\model(vcgpdm)-dataset(walking)-mode(ELBO)-parts(2)-dyn(25)-lvm(20)_final(5).mov,resources/videos_natural\training(15).mov,True,True,left,0,210,210,210,2018-09-17 15:34:30.127065,2018-09-17 15:34:34.064290,0:00:03.937225,5,left,1,0.4339317552103239,37,f,1,5,2018_Sep_17_1511,MP_PerceptionTuring2,59.945297478783225,
212,resources/videos_generated\model(vcgpdm)-dataset(walking)-mode(ELBO)-parts(2)-dyn(24)-lvm(23)_final(7).mov,resources/videos_natural\training(0).mov,True,True,left,0,211,211,211,2018-09-17 15:34:35.615379,2018-09-17 15:34:39.518602,0:00:03.903223,5,left,1,0.4172753282737176,37,f,1,5,2018_Sep_17_1511,MP_PerceptionTuring2,59.945297478783225,
213,resources/videos_generated\model(vcgpdm)-dataset(walking)-mode(ELBO)-parts(1)-dyn(25)-lvm(24)_final(7).mov,resources/videos_natural\training(3).mov,False,False,right,0,212,212,212,2018-09-17 15:34:41.053690,2018-09-17 15:34:44.956913,0:00:03.903223,5,right,1,0.5839844597035153,37,f,1,5,2018_Sep_17_1511,MP_PerceptionTuring2,59.945297478783225,
214,resources/videos_generated\model(vcgpdm)-dataset(walking)-mode(ELBO)-parts(1)-dyn(28)-lvm(27)_final(3).mov,resources/videos_natural\training(5).mov,True,True,left,0,213,213,213,2018-09-17 15:34:46.658010,2018-09-17 15:34:50.562234,0:00:03.904224,5,right,0,0.6508411637150857,37,f,1,5,2018_Sep_17_1511,MP_PerceptionTuring2,59.945297478783225,
215,resources/videos_generated\model(vcgpdm)-dataset(walking)-mode(ELBO)-parts(2)-dyn(24)-lvm(19)_final(9).mov,resources/videos_natural\training(43).mov,True,False,right,0,214,214,214,2018-09-17 15:34:52.330335,2018-09-17 15:34:56.233558,0:00:03.903223,5,right,1,0.48392784001907785,37,f,1,5,2018_Sep_17_1511,MP_PerceptionTuring2,59.945297478783225,
216,resources/videos_generated\model(vcgpdm)-dataset(walking)-mode(ELBO)-parts(2)-dyn(28)-lvm(17)_final(3).mov,resources/videos_natural\training(2).mov,False,False,right,0,215,215,215,2018-09-17 15:34:57.834650,2018-09-17 15:35:01.821878,0:00:03.987228,5,right,1,0.46732471991344937,37,f,1,5,2018_Sep_17_1511,MP_PerceptionTuring2,59.945297478783225,
217,resources/videos_generated\model(tmp)-dataset(walking)-numprim(14)_final(8).mov,resources/videos_natural\training(1).mov,False,False,right,0,216,216,216,2018-09-17 15:35:03.405968,2018-09-17 15:35:07.326192,0:00:03.920224,5,left,0,0.3840040356581085,37,f,1,5,2018_Sep_17_1511,MP_PerceptionTuring2,59.945297478783225,
218,resources/videos_generated\model(vcgpdm)-dataset(walking)-mode(ELBO)-parts(1)-dyn(25)-lvm(25)_final(2).mov,resources/videos_natural\training(21).mov,False,False,right,0,217,217,217,2018-09-17 15:35:08.827278,2018-09-17 15:35:12.897511,0:00:04.070233,5,right,1,0.7342205758341152,37,f,1,5,2018_Sep_17_1511,MP_PerceptionTuring2,59.945297478783225,
219,resources/videos_generated\model(dmp)-dataset(walking)-npsi(70)_final(8).mov,resources/videos_natural\training(3).mov,True,True,left,0,218,218,218,2018-09-17 15:35:14.749617,2018-09-17 15:35:18.669841,0:00:03.920224,5,left,1,0.40063998313462434,37,f,1,5,2018_Sep_17_1511,MP_PerceptionTuring2,59.945297478783225,
220,resources/videos_generated\model(vcgpdm)-dataset(walking)-mode(ELBO)-parts(1)-dyn(23)-lvm(24)_final(7).mov,resources/videos_natural\training(10).mov,True,False,right,0,219,219,219,2018-09-17 15:35:20.186928,2018-09-17 15:35:24.291163,0:00:04.104235,5,right,1,0.5008101433563752,37,f,1,5,2018_Sep_17_1511,MP_PerceptionTuring2,59.945297478783225,
221,resources/videos_generated\model(vcgpdm)-dataset(walking)-mode(ELBO)-parts(2)-dyn(27)-lvm(20)_final(9).mov,resources/videos_natural\training(36).mov,True,True,left,0,220,220,220,2018-09-17 15:35:25.909255,2018-09-17 15:35:29.795478,0:00:03.886223,5,left,1,1.4681372726181507,37,f,1,5,2018_Sep_17_1511,MP_PerceptionTuring2,59.945297478783225,
222,resources/videos_generated\model(vcgpdm)-dataset(walking)-mode(ELBO)-parts(1)-dyn(26)-lvm(23)_final(3)_fail.mov,resources/videos_natural\training(14).mov,True,True,left,0,221,221,221,2018-09-17 15:35:32.381625,2018-09-17 15:35:36.300850,0:00:03.919225,5,left,1,0.5005050596314504,37,f,1,5,2018_Sep_17_1511,MP_PerceptionTuring2,59.945297478783225,
223,resources/videos_generated\model(vcgpdm)-dataset(walking)-mode(ELBO)-parts(1)-dyn(24)-lvm(23)_final(0).mov,resources/videos_natural\training(2).mov,False,True,left,0,222,222,222,2018-09-17 15:35:37.918942,2018-09-17 15:35:41.839166,0:00:03.920224,5,right,0,0.7188206240211912,37,f,1,5,2018_Sep_17_1511,MP_PerceptionTuring2,59.945297478783225,
224,resources/videos_generated\model(dmp)-dataset(walking)-npsi(90)_final(0).mov,resources/videos_natural\training(3).mov,False,True,left,0,223,223,223,2018-09-17 15:35:43.674271,2018-09-17 15:35:47.577495,0:00:03.903224,5,right,0,0.5840380677022949,37,f,1,5,2018_Sep_17_1511,MP_PerceptionTuring2,59.945297478783225,
225,resources/videos_generated\model(vcgpdm)-dataset(walking)-mode(ELBO)-parts(1)-dyn(24)-lvm(27)_final(2).mov,resources/videos_natural\training(43).mov,False,False,right,0,224,224,224,2018-09-17 15:35:49.278592,2018-09-17 15:35:53.182815,0:00:03.904223,5,right,1,0.5507038308637675,37,f,1,5,2018_Sep_17_1511,MP_PerceptionTuring2,59.945297478783225,
226,resources/videos_generated\model(vcgpdm)-dataset(walking)-mode(ELBO)-parts(2)-dyn(28)-lvm(21)_final(9).mov,resources/videos_natural\training(9).mov,True,False,right,0,225,225,225,2018-09-17 15:36:28.846855,2018-09-17 15:36:32.750078,0:00:03.903223,6,right,1,0.03355740272263574,37,f,1,5,2018_Sep_17_1511,MP_PerceptionTuring2,59.945297478783225,
227,resources/videos_generated\model(vcgpdm)-dataset(walking)-mode(ELBO)-parts(2)-dyn(27)-lvm(20)_final(1).mov,resources/videos_natural\training(17).mov,False,True,left,0,226,226,226,2018-09-17 15:36:33.901144,2018-09-17 15:36:37.821368,0:00:03.920224,6,right,0,0.8008568244790695,37,f,1,5,2018_Sep_17_1511,MP_PerceptionTuring2,59.945297478783225,
228,resources/videos_generated\model(vcgpdm)-dataset(walking)-mode(ELBO)-parts(1)-dyn(28)-lvm(25)_final(9).mov,resources/videos_natural\training(20).mov,True,True,left,0,227,227,227,2018-09-17 15:36:39.739478,2018-09-17 15:36:43.676703,0:00:03.937225,6,right,0,0.5172572581614077,37,f,1,5,2018_Sep_17_1511,MP_PerceptionTuring2,59.945297478783225,
229,resources/videos_generated\model(dmp)-dataset(walking)-npsi(100)_final(0).mov,resources/videos_natural\training(34).mov,True,True,left,0,228,228,228,2018-09-17 15:36:45.310797,2018-09-17 15:36:49.231021,0:00:03.920224,6,right,0,0.4840106613660282,37,f,1,5,2018_Sep_17_1511,MP_PerceptionTuring2,59.945297478783225,
230,resources/videos_generated\model(vcgpdm)-dataset(walking)-mode(ELBO)-parts(2)-dyn(26)-lvm(23)_final(5).mov,resources/videos_natural\training(41).mov,True,True,left,0,229,229,229,2018-09-17 15:36:50.832113,2018-09-17 15:36:54.719335,0:00:03.887222,6,left,1,0.4172175039152535,37,f,1,5,2018_Sep_17_1511,MP_PerceptionTuring2,59.945297478783225,
231,resources/videos_generated\model(vcgpdm)-dataset(walking)-mode(ELBO)-parts(2)-dyn(22)-lvm(19)_final(7).mov,resources/videos_natural\training(22).mov,True,False,right,0,230,230,230,2018-09-17 15:36:56.253423,2018-09-17 15:37:00.340656,0:00:04.087233,6,right,1,0.4005821587761602,37,f,1,5,2018_Sep_17_1511,MP_PerceptionTuring2,59.945297478783225,
232,resources/videos_generated\model(vcgpdm)-dataset(walking)-mode(ELBO)-parts(2)-dyn(28)-lvm(17)_final(5).mov,resources/videos_natural\training(2).mov,False,False,right,0,231,231,231,2018-09-17 15:37:01.858743,2018-09-17 15:37:05.778968,0:00:03.920225,6,right,1,0.3839371762437622,37,f,1,5,2018_Sep_17_1511,MP_PerceptionTuring2,59.945297478783225,
233,resources/videos_generated\model(vcgpdm)-dataset(walking)-mode(ELBO)-parts(1)-dyn(27)-lvm(26)_final(9).mov,resources/videos_natural\training(18).mov,False,True,left,0,232,232,232,2018-09-17 15:37:07.280053,2018-09-17 15:37:11.216279,0:00:03.936226,6,left,1,0.5340245151187446,37,f,1,5,2018_Sep_17_1511,MP_PerceptionTuring2,59.945297478783225,
234,resources/videos_generated\model(vcgpdm)-dataset(walking)-mode(ELBO)-parts(2)-dyn(24)-lvm(23)_final(5).mov,resources/videos_natural\training(17).mov,True,False,right,0,233,233,233,2018-09-17 15:37:12.868373,2018-09-17 15:37:16.938606,0:00:04.070233,6,left,0,0.400636670280619,37,f,1,5,2018_Sep_17_1511,MP_PerceptionTuring2,59.945297478783225,
235,resources/videos_generated\model(vcgpdm)-dataset(walking)-mode(ELBO)-parts(2)-dyn(27)-lvm(18)_final(5).mov,resources/videos_natural\training(38).mov,True,False,right,0,234,234,234,2018-09-17 15:37:18.455693,2018-09-17 15:37:22.375917,0:00:03.920224,6,right,1,0.5840555354780008,37,f,1,5,2018_Sep_17_1511,MP_PerceptionTuring2,59.945297478783225,
236,resources/videos_generated\model(vcgpdm)-dataset(walking)-mode(ELBO)-parts(1)-dyn(25)-lvm(26)_final(8).mov,resources/videos_natural\training(21).mov,True,True,left,0,235,235,235,2018-09-17 15:37:24.078014,2018-09-17 15:37:28.031240,0:00:03.953226,6,left,1,0.550688471268586,37,f,1,5,2018_Sep_17_1511,MP_PerceptionTuring2,59.945297478783225,
237,resources/videos_generated\model(vcgpdm)-dataset(walking)-mode(ELBO)-parts(2)-dyn(22)-lvm(17)_final(7).mov,resources/videos_natural\training(12).mov,True,False,right,0,236,236,236,2018-09-17 15:37:29.699336,2018-09-17 15:37:33.769568,0:00:04.070232,6,right,1,0.43396398024333394,37,f,1,5,2018_Sep_17_1511,MP_PerceptionTuring2,59.945297478783225,
238,resources/videos_generated\model(dmp)-dataset(walking)-npsi(60)_final(4).mov,resources/videos_natural\training(30).mov,True,False,right,0,237,237,237,2018-09-17 15:37:35.320657,2018-09-17 15:37:39.240881,0:00:03.920224,6,right,1,0.3839419949404146,37,f,1,5,2018_Sep_17_1511,MP_PerceptionTuring2,59.945297478783225,
239,resources/videos_generated\model(dmp)-dataset(walking)-npsi(90)_final(4).mov,resources/videos_natural\training(44).mov,False,True,left,0,238,238,238,2018-09-17 15:37:40.741967,2018-09-17 15:37:44.662191,0:00:03.920224,6,right,0,0.4505487290689416,37,f,1,5,2018_Sep_17_1511,MP_PerceptionTuring2,59.945297478783225,
240,resources/videos_generated\model(vcgpdm)-dataset(walking)-mode(ELBO)-parts(1)-dyn(23)-lvm(22)_final(3)_fail.mov,resources/videos_natural\training(5).mov,True,False,right,0,239,239,239,2018-09-17 15:37:46.230281,2018-09-17 15:37:50.300514,0:00:04.070233,6,right,1,0.9509604264544578,37,f,1,5,2018_Sep_17_1511,MP_PerceptionTuring2,59.945297478783225,
241,resources/videos_generated\model(vcgpdm)-dataset(walking)-mode(ELBO)-parts(1)-dyn(25)-lvm(23)_final(7).mov,resources/videos_natural\training(37).mov,False,True,left,0,240,240,240,2018-09-17 15:37:52.368632,2018-09-17 15:37:56.422864,0:00:04.054232,6,left,1,0.4339799421754833,37,f,1,5,2018_Sep_17_1511,MP_PerceptionTuring2,59.945297478783225,
242,resources/videos_generated\model(vcgpdm)-dataset(walking)-mode(ELBO)-parts(2)-dyn(26)-lvm(21)_final(9).mov,resources/videos_natural\training(48).mov,False,False,right,0,241,241,241,2018-09-17 15:37:57.973953,2018-09-17 15:38:01.877176,0:00:03.903223,6,right,1,0.5339657872546013,37,f,1,5,2018_Sep_17_1511,MP_PerceptionTuring2,59.945297478783225,
243,resources/videos_generated\model(tmp)-dataset(walking)-numprim(15)_final(2).mov,resources/videos_natural\training(42).mov,True,False,right,0,242,242,242,2018-09-17 15:38:03.528271,2018-09-17 15:38:07.448495,0:00:03.920224,6,right,1,0.4673180942054387,37,f,1,5,2018_Sep_17_1511,MP_PerceptionTuring2,59.945297478783225,
244,resources/videos_generated\model(dmp)-dataset(walking)-npsi(90)_final(2).mov,resources/videos_natural\training(12).mov,False,False,right,0,243,243,243,2018-09-17 15:38:09.033585,2018-09-17 15:38:12.969811,0:00:03.936226,6,right,1,0.3839335622215003,37,f,1,5,2018_Sep_17_1511,MP_PerceptionTuring2,59.945297478783225,
245,resources/videos_generated\model(tmp)-dataset(walking)-numprim(12)_final(6).mov,resources/videos_natural\training(10).mov,True,False,right,0,244,244,244,2018-09-17 15:38:14.470896,2018-09-17 15:38:18.508127,0:00:04.037231,6,right,1,0.4673156848571125,37,f,1,5,2018_Sep_17_1511,MP_PerceptionTuring2,59.945297478783225,
246,resources/videos_generated\model(tmp)-dataset(walking)-numprim(12)_final(0).mov,resources/videos_natural\training(47).mov,False,False,right,0,245,245,245,2018-09-17 15:38:20.093218,2018-09-17 15:38:24.012442,0:00:03.919224,6,left,0,0.34939194073012914,37,f,1,5,2018_Sep_17_1511,MP_PerceptionTuring2,59.945297478783225,
247,resources/videos_generated\model(vcgpdm)-dataset(walking)-mode(ELBO)-parts(1)-dyn(28)-lvm(23)_final(1).mov,resources/videos_natural\training(39).mov,False,False,right,0,246,246,246,2018-09-17 15:38:25.480526,2018-09-17 15:38:29.383749,0:00:03.903223,6,right,1,0.7008194795807867,37,f,1,5,2018_Sep_17_1511,MP_PerceptionTuring2,59.945297478783225,
248,resources/videos_generated\model(vcgpdm)-dataset(walking)-mode(ELBO)-parts(1)-dyn(26)-lvm(27)_final(3).mov,resources/videos_natural\training(18).mov,True,False,right,0,247,247,247,2018-09-17 15:38:31.201853,2018-09-17 15:38:35.139079,0:00:03.937226,6,right,1,0.35051921455260526,37,f,1,5,2018_Sep_17_1511,MP_PerceptionTuring2,59.945297478783225,
249,resources/videos_generated\model(tmp)-dataset(walking)-numprim(15)_final(4).mov,resources/videos_natural\training(45).mov,True,True,left,0,248,248,248,2018-09-17 15:38:36.607163,2018-09-17 15:38:40.577390,0:00:03.970227,6,right,0,0.4506791350440835,37,f,1,5,2018_Sep_17_1511,MP_PerceptionTuring2,59.945297478783225,
250,resources/videos_generated\model(vcgpdm)-dataset(walking)-mode(ELBO)-parts(2)-dyn(23)-lvm(22)_final(3).mov,resources/videos_natural\training(48).mov,True,True,left,0,249,249,249,2018-09-17 15:38:42.145479,2018-09-17 15:38:46.115706,0:00:03.970227,6,left,1,0.5672030478253873,37,f,1,5,2018_Sep_17_1511,MP_PerceptionTuring2,59.945297478783225,
251,resources/videos_generated\model(vcgpdm)-dataset(walking)-mode(ELBO)-parts(2)-dyn(23)-lvm(22)_final(9).mov,resources/videos_natural\training(31).mov,False,False,right,0,250,250,250,2018-09-17 15:38:47.799803,2018-09-17 15:38:51.787031,0:00:03.987228,6,right,1,0.4174581375737034,37,f,1,5,2018_Sep_17_1511,MP_PerceptionTuring2,59.945297478783225,
252,resources/videos_generated\model(vcgpdm)-dataset(walking)-mode(ELBO)-parts(2)-dyn(27)-lvm(20)_final(3).mov,resources/videos_natural\training(9).mov,False,False,right,0,251,251,251,2018-09-17 15:38:53.321119,2018-09-17 15:38:57.275345,0:00:03.954226,6,right,1,0.6841904589805381,37,f,1,5,2018_Sep_17_1511,MP_PerceptionTuring2,59.945297478783225,
253,resources/videos_generated\model(vcgpdm)-dataset(walking)-mode(ELBO)-parts(2)-dyn(22)-lvm(21)_final(1).mov,resources/videos_natural\training(17).mov,False,False,right,0,252,252,252,2018-09-17 15:38:59.076448,2018-09-17 15:39:02.996672,0:00:03.920224,6,right,1,0.6508471870861285,37,f,1,5,2018_Sep_17_1511,MP_PerceptionTuring2,59.945297478783225,
254,resources/videos_generated\model(vcgpdm)-dataset(walking)-mode(ELBO)-parts(2)-dyn(25)-lvm(22)_final(3).mov,resources/videos_natural\training(43).mov,True,False,right,0,253,253,253,2018-09-17 15:39:04.764773,2018-09-17 15:39:08.667996,0:00:03.903223,6,left,0,0.3671629924106128,37,f,1,5,2018_Sep_17_1511,MP_PerceptionTuring2,59.945297478783225,
255,resources/videos_generated\model(vcgpdm)-dataset(walking)-mode(ELBO)-parts(2)-dyn(23)-lvm(18)_final(7).mov,resources/videos_natural\training(33).mov,False,True,left,0,254,254,254,2018-09-17 15:39:10.153081,2018-09-17 15:39:14.072305,0:00:03.919224,6,left,1,0.38385887242520766,37,f,1,5,2018_Sep_17_1511,MP_PerceptionTuring2,59.945297478783225,
256,resources/videos_generated\model(vcgpdm)-dataset(walking)-mode(ELBO)-parts(1)-dyn(22)-lvm(28)_final(0).mov,resources/videos_natural\training(15).mov,False,True,left,0,255,255,255,2018-09-17 15:39:15.574391,2018-09-17 15:39:19.610622,0:00:04.036231,6,left,1,0.3838389953020851,37,f,1,5,2018_Sep_17_1511,MP_PerceptionTuring2,59.945297478783225,
257,resources/videos_generated\model(vcgpdm)-dataset(walking)-mode(ELBO)-parts(2)-dyn(24)-lvm(21)_final(3).mov,resources/videos_natural\training(40).mov,False,False,right,0,256,256,256,2018-09-17 15:39:21.111708,2018-09-17 15:39:25.215943,0:00:04.104235,6,left,0,0.4505583664617916,37,f,1,5,2018_Sep_17_1511,MP_PerceptionTuring2,59.945297478783225,
258,resources/videos_generated\model(vcgpdm)-dataset(walking)-mode(ELBO)-parts(2)-dyn(28)-lvm(17)_final(9).mov,resources/videos_natural\training(46).mov,False,True,left,0,257,257,257,2018-09-17 15:39:26.784033,2018-09-17 15:39:30.704257,0:00:03.920224,6,left,1,0.4507959884349475,37,f,1,5,2018_Sep_17_1511,MP_PerceptionTuring2,59.945297478783225,
259,resources/videos_generated\model(vcgpdm)-dataset(walking)-mode(ELBO)-parts(2)-dyn(26)-lvm(19)_final(7).mov,resources/videos_natural\training(47).mov,True,True,left,0,258,258,258,2018-09-17 15:39:32.271346,2018-09-17 15:39:36.191571,0:00:03.920225,6,left,1,0.3839338633902116,37,f,1,5,2018_Sep_17_1511,MP_PerceptionTuring2,59.945297478783225,
260,resources/videos_generated\model(vcgpdm)-dataset(walking)-mode(ELBO)-parts(1)-dyn(26)-lvm(27)_final(7).mov,resources/videos_natural\training(32).mov,True,False,right,0,259,259,259,2018-09-17 15:39:37.693657,2018-09-17 15:39:41.629882,0:00:03.936225,6,right,1,0.5839853632091945,37,f,1,5,2018_Sep_17_1511,MP_PerceptionTuring2,59.945297478783225,
261,resources/videos_generated\model(vcgpdm)-dataset(walking)-mode(ELBO)-parts(2)-dyn(28)-lvm(23)_final(3).mov,resources/videos_natural\training(21).mov,True,True,left,0,260,260,260,2018-09-17 15:39:43.330979,2018-09-17 15:39:47.435214,0:00:04.104235,6,right,0,0.5672527406336485,37,f,1,5,2018_Sep_17_1511,MP_PerceptionTuring2,59.945297478783225,
262,resources/videos_generated\model(vcgpdm)-dataset(walking)-mode(ELBO)-parts(2)-dyn(28)-lvm(21)_final(7).mov,resources/videos_natural\training(39).mov,True,True,left,0,261,261,261,2018-09-17 15:39:49.119310,2018-09-17 15:39:53.073536,0:00:03.954226,6,right,0,0.3672668955550762,37,f,1,5,2018_Sep_17_1511,MP_PerceptionTuring2,59.945297478783225,
263,resources/videos_generated\model(vcgpdm)-dataset(walking)-mode(ELBO)-parts(1)-dyn(25)-lvm(28)_final(6).mov,resources/videos_natural\training(11).mov,False,False,right,0,262,262,262,2018-09-17 15:39:54.557621,2018-09-17 15:39:58.644855,0:00:04.087234,6,right,1,0.5005942055177002,37,f,1,5,2018_Sep_17_1511,MP_PerceptionTuring2,59.945297478783225,
264,resources/videos_generated\model(vcgpdm)-dataset(walking)-mode(ELBO)-parts(1)-dyn(25)-lvm(22)_final(8).mov,resources/videos_natural\training(8).mov,True,False,right,0,263,263,263,2018-09-17 15:40:00.262947,2018-09-17 15:40:04.349181,0:00:04.086234,6,right,1,0.5173391760026789,37,f,1,5,2018_Sep_17_1511,MP_PerceptionTuring2,59.945297478783225,
265,resources/videos_generated\model(vcgpdm)-dataset(walking)-mode(ELBO)-parts(2)-dyn(25)-lvm(20)_final(9).mov,resources/videos_natural\training(0).mov,True,True,left,0,264,264,264,2018-09-17 15:40:05.984275,2018-09-17 15:40:09.937501,0:00:03.953226,6,right,0,0.367256053487381,37,f,1,5,2018_Sep_17_1511,MP_PerceptionTuring2,59.945297478783225,
266,resources/videos_generated\model(dmp)-dataset(walking)-npsi(60)_final(8).mov,resources/videos_natural\training(11).mov,True,True,left,0,265,265,265,2018-09-17 15:40:11.422586,2018-09-17 15:40:15.475818,0:00:04.053232,6,right,0,0.4496641970845303,37,f,1,5,2018_Sep_17_1511,MP_PerceptionTuring2,59.945297478783225,
267,resources/videos_generated\model(vcgpdm)-dataset(walking)-mode(ELBO)-parts(1)-dyn(28)-lvm(23)_final(5).mov,resources/videos_natural\training(34).mov,True,False,right,0,266,266,266,2018-09-17 15:40:17.043907,2018-09-17 15:40:20.964131,0:00:03.920224,6,right,1,0.6341669678354265,37,f,1,5,2018_Sep_17_1511,MP_PerceptionTuring2,59.945297478783225,
268,resources/videos_generated\model(vcgpdm)-dataset(walking)-mode(ELBO)-parts(2)-dyn(26)-lvm(23)_final(3).mov,resources/videos_natural\training(26).mov,False,False,right,0,267,267,267,2018-09-17 15:40:22.715232,2018-09-17 15:40:26.702460,0:00:03.987228,6,right,1,0.48393988676070876,37,f,1,5,2018_Sep_17_1511,MP_PerceptionTuring2,59.945297478783225,
269,resources/videos_generated\model(vcgpdm)-dataset(walking)-mode(ELBO)-parts(2)-dyn(27)-lvm(22)_final(9).mov,resources/videos_natural\training(11).mov,False,False,right,0,268,268,268,2018-09-17 15:40:28.303551,2018-09-17 15:40:32.239776,0:00:03.936225,6,right,1,0.6508215877606744,37,f,1,5,2018_Sep_17_1511,MP_PerceptionTuring2,59.945297478783225,
270,resources/videos_generated\model(vcgpdm)-dataset(walking)-mode(ELBO)-parts(1)-dyn(22)-lvm(27)_final(2)_hip-corrected.mov,resources/videos_natural\training(34).mov,True,False,right,0,269,269,269,2018-09-17 15:40:34.008878,2018-09-17 15:40:38.012107,0:00:04.003229,6,right,1,0.3505183110469261,37,f,1,5,2018_Sep_17_1511,MP_PerceptionTuring2,59.945297478783225,
271,resources/videos_generated\model(vcgpdm)-dataset(walking)-mode(ELBO)-parts(1)-dyn(24)-lvm(23)_final(2).mov,resources/videos_natural\training(3).mov,True,True,left,0,270,270,270,2018-09-17 15:41:12.425075,2018-09-17 15:41:16.378301,0:00:03.953226,7,right,0,0.6009812070833505,37,f,1,5,2018_Sep_17_1511,MP_PerceptionTuring2,59.945297478783225,
272,resources/videos_generated\model(dmp)-dataset(walking)-npsi(80)_final(6).mov,resources/videos_natural\training(5).mov,True,True,left,0,271,271,271,2018-09-17 15:41:18.096399,2018-09-17 15:41:22.200634,0:00:04.104235,7,left,1,0.46729610890270123,37,f,1,5,2018_Sep_17_1511,MP_PerceptionTuring2,59.945297478783225,
273,resources/videos_generated\model(vcgpdm)-dataset(walking)-mode(ELBO)-parts(2)-dyn(25)-lvm(22)_final(9).mov,resources/videos_natural\training(7).mov,False,True,left,0,272,272,272,2018-09-17 15:41:23.784725,2018-09-17 15:41:27.737951,0:00:03.953226,7,right,0,0.43400674617532786,37,f,1,5,2018_Sep_17_1511,MP_PerceptionTuring2,59.945297478783225,
274,resources/videos_generated\model(vcgpdm)-dataset(walking)-mode(ELBO)-parts(2)-dyn(27)-lvm(22)_final(7).mov,resources/videos_natural\training(33).mov,True,True,left,0,273,273,273,2018-09-17 15:41:29.290039,2018-09-17 15:41:33.209264,0:00:03.919225,7,left,1,0.4673066498012304,37,f,1,5,2018_Sep_17_1511,MP_PerceptionTuring2,59.945297478783225,
275,resources/videos_generated\model(vcgpdm)-dataset(walking)-mode(ELBO)-parts(1)-dyn(28)-lvm(25)_final(7).mov,resources/videos_natural\training(28).mov,False,True,left,0,274,274,274,2018-09-17 15:41:34.794354,2018-09-17 15:41:38.747580,0:00:03.953226,7,right,0,0.7507652692443116,37,f,1,5,2018_Sep_17_1511,MP_PerceptionTuring2,59.945297478783225,
276,resources/videos_generated\model(tmp)-dataset(walking)-numprim(14)_final(0).mov,resources/videos_natural\training(16).mov,False,False,right,0,275,275,275,2018-09-17 15:41:40.615687,2018-09-17 15:41:44.669919,0:00:04.054232,7,left,0,0.6173939886762128,37,f,1,5,2018_Sep_17_1511,MP_PerceptionTuring2,59.945297478783225,
277,resources/videos_generated\model(tmp)-dataset(walking)-numprim(11)_final(8).mov,resources/videos_natural\training(14).mov,True,True,left,0,276,276,276,2018-09-17 15:41:46.405018,2018-09-17 15:41:50.374245,0:00:03.969227,7,left,1,0.4837751475724872,37,f,1,5,2018_Sep_17_1511,MP_PerceptionTuring2,59.945297478783225,
278,resources/videos_generated\model(vcgpdm)-dataset(walking)-mode(ELBO)-parts(1)-dyn(26)-lvm(23)_final(9).mov,resources/videos_natural\training(14).mov,False,False,right,0,277,277,277,2018-09-17 15:41:51.975337,2018-09-17 15:41:55.862559,0:00:03.887222,7,right,1,0.5675620407182578,37,f,1,5,2018_Sep_17_1511,MP_PerceptionTuring2,59.945297478783225,
279,resources/videos_generated\model(dmp)-dataset(walking)-npsi(50)_final(6).mov,resources/videos_natural\training(38).mov,True,True,left,0,278,278,278,2018-09-17 15:41:57.547656,2018-09-17 15:42:01.650890,0:00:04.103234,7,left,1,0.4505026502833971,37,f,1,5,2018_Sep_17_1511,MP_PerceptionTuring2,59.945297478783225,
280,resources/videos_generated\model(vcgpdm)-dataset(walking)-mode(ELBO)-parts(1)-dyn(23)-lvm(22)_final(7).mov,resources/videos_natural\training(41).mov,True,True,left,0,279,279,279,2018-09-17 15:42:03.218980,2018-09-17 15:42:07.139204,0:00:03.920224,7,left,1,0.5005089748224236,37,f,1,5,2018_Sep_17_1511,MP_PerceptionTuring2,59.945297478783225,
281,resources/videos_generated\model(tmp)-dataset(walking)-numprim(13)_final(4).mov,resources/videos_natural\training(33).mov,True,False,right,0,280,280,280,2018-09-17 15:42:08.757297,2018-09-17 15:42:12.710523,0:00:03.953226,7,right,1,0.9843588121912035,37,f,1,5,2018_Sep_17_1511,MP_PerceptionTuring2,59.945297478783225,
282,resources/videos_generated\model(vcgpdm)-dataset(walking)-mode(ELBO)-parts(1)-dyn(25)-lvm(28)_final(8).mov,resources/videos_natural\training(17).mov,True,True,left,0,281,281,281,2018-09-17 15:42:14.812643,2018-09-17 15:42:18.732867,0:00:03.920224,7,left,1,0.4172072641849809,37,f,1,5,2018_Sep_17_1511,MP_PerceptionTuring2,59.945297478783225,
283,resources/videos_generated\model(vcgpdm)-dataset(walking)-mode(ELBO)-parts(1)-dyn(28)-lvm(25)_final(1).mov,resources/videos_natural\training(44).mov,True,True,left,0,282,282,282,2018-09-17 15:42:20.266955,2018-09-17 15:42:24.270184,0:00:04.003229,7,left,1,0.5174066377544477,37,f,1,5,2018_Sep_17_1511,MP_PerceptionTuring2,59.945297478783225,
284,resources/videos_generated\model(vcgpdm)-dataset(walking)-mode(ELBO)-parts(2)-dyn(25)-lvm(18)_final(3).mov,resources/videos_natural\training(7).mov,True,False,right,0,283,283,283,2018-09-17 15:42:25.905278,2018-09-17 15:42:30.008512,0:00:04.103234,7,left,0,0.4340564389831343,37,f,1,5,2018_Sep_17_1511,MP_PerceptionTuring2,59.945297478783225,
285,resources/videos_generated\model(vcgpdm)-dataset(walking)-mode(ELBO)-parts(2)-dyn(22)-lvm(19)_final(9).mov,resources/videos_natural\training(22).mov,False,True,left,0,284,284,284,2018-09-17 15:42:31.560601,2018-09-17 15:42:35.529828,0:00:03.969227,7,left,1,0.41722322611713025,37,f,1,5,2018_Sep_17_1511,MP_PerceptionTuring2,59.945297478783225,
286,resources/videos_generated\model(vcgpdm)-dataset(walking)-mode(ELBO)-parts(2)-dyn(26)-lvm(17)_final(5).mov,resources/videos_natural\training(27).mov,False,False,right,0,285,285,285,2018-09-17 15:42:37.064916,2018-09-17 15:42:41.135149,0:00:04.070233,7,right,1,0.4840778219490858,37,f,1,5,2018_Sep_17_1511,MP_PerceptionTuring2,59.945297478783225,
287,resources/videos_generated\model(vcgpdm)-dataset(walking)-mode(ELBO)-parts(1)-dyn(23)-lvm(26)_final(5)_hip-corrected.mov,resources/videos_natural\training(4).mov,False,False,right,0,286,286,286,2018-09-17 15:42:42.736240,2018-09-17 15:42:46.639464,0:00:03.903224,7,right,1,0.5172994217564337,37,f,1,5,2018_Sep_17_1511,MP_PerceptionTuring2,59.945297478783225,
288,resources/videos_generated\model(vcgpdm)-dataset(walking)-mode(ELBO)-parts(1)-dyn(22)-lvm(22)_final(4).mov,resources/videos_natural\training(9).mov,True,True,left,0,287,287,287,2018-09-17 15:42:48.274557,2018-09-17 15:42:52.227783,0:00:03.953226,7,left,1,0.5004568726658363,37,f,1,5,2018_Sep_17_1511,MP_PerceptionTuring2,59.945297478783225,
289,resources/videos_generated\model(vcgpdm)-dataset(walking)-mode(ELBO)-parts(2)-dyn(23)-lvm(22)_final(1).mov,resources/videos_natural\training(25).mov,False,False,right,0,288,288,288,2018-09-17 15:42:53.845876,2018-09-17 15:42:57.816103,0:00:03.970227,7,right,1,0.45058848331518675,37,f,1,5,2018_Sep_17_1511,MP_PerceptionTuring2,59.945297478783225,
290,resources/videos_generated\model(vcgpdm)-dataset(walking)-mode(ELBO)-parts(1)-dyn(23)-lvm(24)_final(3).mov,resources/videos_natural\training(8).mov,True,False,right,0,289,289,289,2018-09-17 15:42:59.384193,2018-09-17 15:43:03.287416,0:00:03.903223,7,right,1,0.5172888808574498,37,f,1,5,2018_Sep_17_1511,MP_PerceptionTuring2,59.945297478783225,
291,resources/videos_generated\model(vcgpdm)-dataset(walking)-mode(ELBO)-parts(2)-dyn(28)-lvm(19)_final(1).mov,resources/videos_natural\training(17).mov,True,True,left,0,290,290,290,2018-09-17 15:43:04.922509,2018-09-17 15:43:08.908737,0:00:03.986228,7,right,0,0.43395825804145716,37,f,1,5,2018_Sep_17_1511,MP_PerceptionTuring2,59.945297478783225,
