n_trial,mov_file_generated,mov_file_natural,mirrored,switch_stim_pos,correct_answer,trials.thisRepN,trials.thisTrialN,trials.thisN,trials.thisIndex,stimulus_onset,stimulus_off,stimulus_length,block,response.keys,response.corr,response.rt,age,gender,condition,participant,date,expName,frameRate,
1,resources/videos_generated\model(dmp)-dataset(walking)-npsi(50)_final(7).mov,resources/videos_natural\training(37).mov,True,True,left,0,0,0,0,2018-09-17 16:13:54.018272,2018-09-17 16:13:58.322518,0:00:04.304246,1,right,0,2.035237320804299,22,f,2,6,2018_Sep_17_1612,MP_PerceptionTuring2,59.961751900318816,
2,resources/videos_generated\model(tmp)-dataset(walking)-numprim(13)_final(7).mov,resources/videos_natural\training(23).mov,True,True,left,0,1,1,1,2018-09-17 16:14:01.474698,2018-09-17 16:14:05.411923,0:00:03.937225,1,right,0,4.0869476569087055,22,f,2,6,2018_Sep_17_1612,MP_PerceptionTuring2,59.961751900318816,
3,resources/videos_generated\model(vcgpdm)-dataset(walking)-mode(ELBO)-parts(2)-dyn(25)-lvm(18)_final(2).mov,resources/videos_natural\training(40).mov,True,True,left,0,2,2,2,2018-09-17 16:14:10.616221,2018-09-17 16:14:14.519444,0:00:03.903223,1,left,1,0.4838661004696405,22,f,2,6,2018_Sep_17_1612,MP_PerceptionTuring2,59.961751900318816,
4,resources/videos_generated\model(vcgpdm)-dataset(walking)-mode(ELBO)-parts(1)-dyn(26)-lvm(23)_final(0).mov,resources/videos_natural\training(27).mov,True,False,right,0,3,3,3,2018-09-17 16:14:16.120536,2018-09-17 16:14:20.107764,0:00:03.987228,1,left,0,0.417244006745932,22,f,2,6,2018_Sep_17_1612,MP_PerceptionTuring2,59.961751900318816,
5,resources/videos_generated\model(vcgpdm)-dataset(walking)-mode(ELBO)-parts(1)-dyn(26)-lvm(25)_final(6).mov,resources/videos_natural\training(43).mov,True,False,right,0,4,4,4,2018-09-17 16:14:21.641852,2018-09-17 16:14:25.579077,0:00:03.937225,1,right,1,1.3514257318392993,22,f,2,6,2018_Sep_17_1612,MP_PerceptionTuring2,59.961751900318816,
6,resources/videos_generated\model(vcgpdm)-dataset(walking)-mode(ELBO)-parts(1)-dyn(22)-lvm(25)_final(5).mov,resources/videos_natural\training(29).mov,True,False,right,0,5,5,5,2018-09-17 16:14:28.048218,2018-09-17 16:14:32.051447,0:00:04.003229,1,right,1,0.20040416817300866,22,f,2,6,2018_Sep_17_1612,MP_PerceptionTuring2,59.961751900318816,
7,resources/videos_generated\model(vcgpdm)-dataset(walking)-mode(ELBO)-parts(1)-dyn(24)-lvm(27)_final(3).mov,resources/videos_natural\training(19).mov,True,True,left,0,6,6,6,2018-09-17 16:14:33.369522,2018-09-17 16:14:37.288746,0:00:03.919224,1,right,0,2.4355987230455867,22,f,2,6,2018_Sep_17_1612,MP_PerceptionTuring2,59.961751900318816,
8,resources/videos_generated\model(vcgpdm)-dataset(walking)-mode(ELBO)-parts(1)-dyn(25)-lvm(24)_final(6).mov,resources/videos_natural\training(10).mov,True,True,left,0,7,7,7,2018-09-17 16:14:40.841950,2018-09-17 16:14:44.912183,0:00:04.070233,1,left,1,1.9352355137934865,22,f,2,6,2018_Sep_17_1612,MP_PerceptionTuring2,59.961751900318816,
9,resources/videos_generated\model(vcgpdm)-dataset(walking)-mode(ELBO)-parts(1)-dyn(22)-lvm(23)_final(3)_fail.mov,resources/videos_natural\training(21).mov,False,False,right,0,8,8,8,2018-09-17 16:14:47.965357,2018-09-17 16:14:51.901582,0:00:03.936225,1,right,1,1.1177716540178153,22,f,2,6,2018_Sep_17_1612,MP_PerceptionTuring2,59.961751900318816,
10,resources/videos_generated\model(vcgpdm)-dataset(walking)-mode(ELBO)-parts(1)-dyn(24)-lvm(23)_final(7).mov,resources/videos_natural\training(30).mov,True,True,left,0,9,9,9,2018-09-17 16:14:54.136710,2018-09-17 16:14:58.156940,0:00:04.020230,1,left,1,2.1186558848330606,22,f,2,6,2018_Sep_17_1612,MP_PerceptionTuring2,59.961751900318816,
11,resources/videos_generated\model(vcgpdm)-dataset(walking)-mode(ELBO)-parts(2)-dyn(23)-lvm(22)_final(2).mov,resources/videos_natural\training(9).mov,True,True,left,0,10,10,10,2018-09-17 16:15:01.393125,2018-09-17 16:15:05.480359,0:00:04.087234,1,left,1,0.3839474159740348,22,f,2,6,2018_Sep_17_1612,MP_PerceptionTuring2,59.961751900318816,
12,resources/videos_generated\model(dmp)-dataset(walking)-npsi(50)_final(1).mov,resources/videos_natural\training(43).mov,True,True,left,0,11,11,11,2018-09-17 16:15:06.981445,2018-09-17 16:15:10.901669,0:00:03.920224,1,left,1,0.8009203710398651,22,f,2,6,2018_Sep_17_1612,MP_PerceptionTuring2,59.961751900318816,
13,resources/videos_generated\model(vcgpdm)-dataset(walking)-mode(ELBO)-parts(1)-dyn(23)-lvm(28)_final(9).mov,resources/videos_natural\training(11).mov,True,False,right,0,12,12,12,2018-09-17 16:15:12.819779,2018-09-17 16:15:16.790006,0:00:03.970227,1,left,0,1.1178972412963049,22,f,2,6,2018_Sep_17_1612,MP_PerceptionTuring2,59.961751900318816,
14,resources/videos_generated\model(vcgpdm)-dataset(walking)-mode(ELBO)-parts(1)-dyn(28)-lvm(24)_final(0).mov,resources/videos_natural\training(16).mov,True,True,left,0,13,13,13,2018-09-17 16:15:19.025134,2018-09-17 16:15:22.928357,0:00:03.903223,1,left,1,0.41729460305941757,22,f,2,6,2018_Sep_17_1612,MP_PerceptionTuring2,59.961751900318816,
15,resources/videos_generated\model(vcgpdm)-dataset(walking)-mode(ELBO)-parts(2)-dyn(22)-lvm(21)_final(8).mov,resources/videos_natural\training(39).mov,True,False,right,0,14,14,14,2018-09-17 16:15:24.463445,2018-09-17 16:15:28.366668,0:00:03.903223,1,right,1,0.4505134923501828,22,f,2,6,2018_Sep_17_1612,MP_PerceptionTuring2,59.961751900318816,
16,resources/videos_generated\model(vcgpdm)-dataset(walking)-mode(ELBO)-parts(1)-dyn(23)-lvm(28)_final(3)_hip-corrected.mov,resources/videos_natural\training(32).mov,True,False,right,0,15,15,15,2018-09-17 16:15:29.934758,2018-09-17 16:15:33.870983,0:00:03.936225,1,right,1,1.518127635225028,22,f,2,6,2018_Sep_17_1612,MP_PerceptionTuring2,59.961751900318816,
17,resources/videos_generated\model(dmp)-dataset(walking)-npsi(80)_final(5).mov,resources/videos_natural\training(44).mov,False,True,left,0,16,16,16,2018-09-17 16:15:36.507134,2018-09-17 16:15:40.410357,0:00:03.903223,1,right,0,1.3513772437054286,22,f,2,6,2018_Sep_17_1612,MP_PerceptionTuring2,59.961751900318816,
18,resources/videos_generated\model(vcgpdm)-dataset(walking)-mode(ELBO)-parts(2)-dyn(26)-lvm(21)_final(4).mov,resources/videos_natural\training(36).mov,True,False,right,0,17,17,17,2018-09-17 16:15:42.879498,2018-09-17 16:15:46.799722,0:00:03.920224,1,right,1,4.887905674015201,22,f,2,6,2018_Sep_17_1612,MP_PerceptionTuring2,59.961751900318816,
19,resources/videos_generated\model(tmp)-dataset(walking)-numprim(12)_final(9).mov,resources/videos_natural\training(33).mov,False,False,right,0,18,18,18,2018-09-17 16:15:52.804066,2018-09-17 16:15:56.724290,0:00:03.920224,1,right,1,1.3512266594389075,22,f,2,6,2018_Sep_17_1612,MP_PerceptionTuring2,59.961751900318816,
20,resources/videos_generated\model(vcgpdm)-dataset(walking)-mode(ELBO)-parts(2)-dyn(24)-lvm(19)_final(8).mov,resources/videos_natural\training(33).mov,True,False,right,0,19,19,19,2018-09-17 16:15:59.193431,2018-09-17 16:16:03.130656,0:00:03.937225,1,left,0,0.567326526924262,22,f,2,6,2018_Sep_17_1612,MP_PerceptionTuring2,59.961751900318816,
21,resources/videos_generated\model(vcgpdm)-dataset(walking)-mode(ELBO)-parts(2)-dyn(26)-lvm(19)_final(4).mov,resources/videos_natural\training(14).mov,True,False,right,0,20,20,20,2018-09-17 16:16:04.814753,2018-09-17 16:16:08.751978,0:00:03.937225,1,left,0,0.5005604746420431,22,f,2,6,2018_Sep_17_1612,MP_PerceptionTuring2,59.961751900318816,
22,resources/videos_generated\model(vcgpdm)-dataset(walking)-mode(ELBO)-parts(2)-dyn(27)-lvm(22)_final(0).mov,resources/videos_natural\training(19).mov,False,True,left,0,21,21,21,2018-09-17 16:16:10.370070,2018-09-17 16:16:14.289295,0:00:03.919225,1,left,1,0.9677713528490131,22,f,2,6,2018_Sep_17_1612,MP_PerceptionTuring2,59.961751900318816,
23,resources/videos_generated\model(vcgpdm)-dataset(walking)-mode(ELBO)-parts(1)-dyn(28)-lvm(24)_final(5).mov,resources/videos_natural\training(7).mov,True,False,right,0,22,22,22,2018-09-17 16:16:16.374414,2018-09-17 16:16:20.294638,0:00:03.920224,1,right,1,0.3657116612457685,22,f,2,6,2018_Sep_17_1612,MP_PerceptionTuring2,59.961751900318816,
24,resources/videos_generated\model(vcgpdm)-dataset(walking)-mode(ELBO)-parts(2)-dyn(28)-lvm(19)_final(6).mov,resources/videos_natural\training(9).mov,True,False,right,0,23,23,23,2018-09-17 16:16:21.779723,2018-09-17 16:16:25.765951,0:00:03.986228,1,right,1,0.35055234309129446,22,f,2,6,2018_Sep_17_1612,MP_PerceptionTuring2,59.961751900318816,
25,resources/videos_generated\model(vcgpdm)-dataset(walking)-mode(ELBO)-parts(2)-dyn(25)-lvm(22)_final(2).mov,resources/videos_natural\training(3).mov,False,False,right,0,24,24,24,2018-09-17 16:16:27.234035,2018-09-17 16:16:31.154259,0:00:03.920224,1,right,1,2.58567009998751,22,f,2,6,2018_Sep_17_1612,MP_PerceptionTuring2,59.961751900318816,
26,resources/videos_generated\model(vcgpdm)-dataset(walking)-mode(ELBO)-parts(1)-dyn(26)-lvm(27)_final(8).mov,resources/videos_natural\training(1).mov,True,False,right,0,25,25,25,2018-09-17 16:16:34.857471,2018-09-17 16:16:38.794696,0:00:03.937225,1,left,0,0.5507209974703073,22,f,2,6,2018_Sep_17_1612,MP_PerceptionTuring2,59.961751900318816,
27,resources/videos_generated\model(vcgpdm)-dataset(walking)-mode(ELBO)-parts(1)-dyn(24)-lvm(23)_final(5).mov,resources/videos_natural\training(11).mov,False,True,left,0,26,26,26,2018-09-17 16:16:40.462792,2018-09-17 16:16:44.366015,0:00:03.903223,1,left,1,3.770108119503675,22,f,2,6,2018_Sep_17_1612,MP_PerceptionTuring2,59.961751900318816,
28,resources/videos_generated\model(vcgpdm)-dataset(walking)-mode(ELBO)-parts(1)-dyn(27)-lvm(22)_final(2).mov,resources/videos_natural\training(24).mov,True,True,left,0,27,27,27,2018-09-17 16:16:49.253294,2018-09-17 16:16:53.156518,0:00:03.903224,1,right,0,0.43393807975007803,22,f,2,6,2018_Sep_17_1612,MP_PerceptionTuring2,59.961751900318816,
29,resources/videos_generated\model(vcgpdm)-dataset(walking)-mode(ELBO)-parts(1)-dyn(28)-lvm(25)_final(0).mov,resources/videos_natural\training(31).mov,False,True,left,0,28,28,28,2018-09-17 16:16:54.707606,2018-09-17 16:16:58.611830,0:00:03.904224,1,right,0,0.5840483074325675,22,f,2,6,2018_Sep_17_1612,MP_PerceptionTuring2,59.961751900318816,
30,resources/videos_generated\model(vcgpdm)-dataset(walking)-mode(ELBO)-parts(2)-dyn(26)-lvm(19)_final(2).mov,resources/videos_natural\training(26).mov,False,True,left,0,29,29,29,2018-09-17 16:17:00.312927,2018-09-17 16:17:04.267153,0:00:03.954226,1,left,1,0.38398265269279364,22,f,2,6,2018_Sep_17_1612,MP_PerceptionTuring2,59.961751900318816,
31,resources/videos_generated\model(vcgpdm)-dataset(walking)-mode(ELBO)-parts(2)-dyn(27)-lvm(20)_final(6).mov,resources/videos_natural\training(11).mov,False,False,right,0,30,30,30,2018-09-17 16:17:05.767239,2018-09-17 16:17:09.704464,0:00:03.937225,1,right,1,0.38395825804127526,22,f,2,6,2018_Sep_17_1612,MP_PerceptionTuring2,59.961751900318816,
32,resources/videos_generated\model(vcgpdm)-dataset(walking)-mode(ELBO)-parts(1)-dyn(26)-lvm(25)_final(4).mov,resources/videos_natural\training(41).mov,True,True,left,0,31,31,31,2018-09-17 16:17:11.205550,2018-09-17 16:17:15.175777,0:00:03.970227,1,left,1,1.0844419347067742,22,f,2,6,2018_Sep_17_1612,MP_PerceptionTuring2,59.961751900318816,
33,resources/videos_generated\model(tmp)-dataset(walking)-numprim(11)_final(5).mov,resources/videos_natural\training(7).mov,False,True,left,0,32,32,32,2018-09-17 16:17:17.377903,2018-09-17 16:17:21.314128,0:00:03.936225,1,left,1,0.9011438380912296,22,f,2,6,2018_Sep_17_1612,MP_PerceptionTuring2,59.961751900318816,
34,resources/videos_generated\model(vcgpdm)-dataset(walking)-mode(ELBO)-parts(1)-dyn(24)-lvm(27)_final(9).mov,resources/videos_natural\training(17).mov,False,False,right,0,33,33,33,2018-09-17 16:17:23.332244,2018-09-17 16:17:27.252468,0:00:03.920224,1,left,0,0.3672211179373335,22,f,2,6,2018_Sep_17_1612,MP_PerceptionTuring2,59.961751900318816,
35,resources/videos_generated\model(vcgpdm)-dataset(walking)-mode(ELBO)-parts(2)-dyn(28)-lvm(21)_final(4).mov,resources/videos_natural\training(20).mov,False,False,right,0,34,34,34,2018-09-17 16:17:28.737553,2018-09-17 16:17:32.673778,0:00:03.936225,1,left,0,0.4339483194789864,22,f,2,6,2018_Sep_17_1612,MP_PerceptionTuring2,59.961751900318816,
36,resources/videos_generated\model(vcgpdm)-dataset(walking)-mode(ELBO)-parts(2)-dyn(22)-lvm(23)_final(4).mov,resources/videos_natural\training(48).mov,True,True,left,0,35,35,35,2018-09-17 16:17:34.225867,2018-09-17 16:17:38.279099,0:00:04.053232,1,right,0,0.4673186965428613,22,f,2,6,2018_Sep_17_1612,MP_PerceptionTuring2,59.961751900318816,
37,resources/videos_generated\model(vcgpdm)-dataset(walking)-mode(ELBO)-parts(2)-dyn(26)-lvm(17)_final(4).mov,resources/videos_natural\training(15).mov,True,True,left,0,36,36,36,2018-09-17 16:17:39.863189,2018-09-17 16:17:43.800414,0:00:03.937225,1,right,0,1.3680381881704307,22,f,2,6,2018_Sep_17_1612,MP_PerceptionTuring2,59.961751900318816,
38,resources/videos_generated\model(vcgpdm)-dataset(walking)-mode(ELBO)-parts(1)-dyn(25)-lvm(26)_final(7).mov,resources/videos_natural\training(9).mov,True,True,left,0,37,37,37,2018-09-17 16:17:46.285556,2018-09-17 16:17:50.205781,0:00:03.920225,1,left,1,0.4339145886042388,22,f,2,6,2018_Sep_17_1612,MP_PerceptionTuring2,59.961751900318816,
39,resources/videos_generated\model(vcgpdm)-dataset(walking)-mode(ELBO)-parts(2)-dyn(25)-lvm(18)_final(6).mov,resources/videos_natural\training(32).mov,True,False,right,0,38,38,38,2018-09-17 16:17:51.756869,2018-09-17 16:17:55.694095,0:00:03.937226,1,left,0,0.3339974099508254,22,f,2,6,2018_Sep_17_1612,MP_PerceptionTuring2,59.961751900318816,
40,resources/videos_generated\model(vcgpdm)-dataset(walking)-mode(ELBO)-parts(2)-dyn(23)-lvm(18)_final(6).mov,resources/videos_natural\training(38).mov,False,True,left,0,39,39,39,2018-09-17 16:17:57.145178,2018-09-17 16:18:01.065402,0:00:03.920224,1,left,1,1.0010299963860234,22,f,2,6,2018_Sep_17_1612,MP_PerceptionTuring2,59.961751900318816,
41,resources/videos_generated\model(vcgpdm)-dataset(walking)-mode(ELBO)-parts(1)-dyn(22)-lvm(25)_final(9).mov,resources/videos_natural\training(3).mov,True,False,right,0,40,40,40,2018-09-17 16:18:03.183523,2018-09-17 16:18:07.120748,0:00:03.937225,1,right,1,1.117898144801984,22,f,2,6,2018_Sep_17_1612,MP_PerceptionTuring2,59.961751900318816,
42,resources/videos_generated\model(vcgpdm)-dataset(walking)-mode(ELBO)-parts(1)-dyn(25)-lvm(22)_final(3).mov,resources/videos_natural\training(39).mov,True,False,right,0,41,41,41,2018-09-17 16:18:09.355876,2018-09-17 16:18:13.293101,0:00:03.937225,1,right,1,0.5008760992650423,22,f,2,6,2018_Sep_17_1612,MP_PerceptionTuring2,59.961751900318816,
43,resources/videos_generated\model(vcgpdm)-dataset(walking)-mode(ELBO)-parts(2)-dyn(26)-lvm(17)_final(0).mov,resources/videos_natural\training(12).mov,True,False,right,0,42,42,42,2018-09-17 16:18:14.910194,2018-09-17 16:18:18.830418,0:00:03.920224,1,left,0,0.6673732080471382,22,f,2,6,2018_Sep_17_1612,MP_PerceptionTuring2,59.961751900318816,
44,resources/videos_generated\model(vcgpdm)-dataset(walking)-mode(ELBO)-parts(2)-dyn(27)-lvm(18)_final(4).mov,resources/videos_natural\training(41).mov,True,False,right,0,43,43,43,2018-09-17 16:18:20.615520,2018-09-17 16:18:24.718755,0:00:04.103235,1,right,1,0.30044934345278307,22,f,2,6,2018_Sep_17_1612,MP_PerceptionTuring2,59.961751900318816,
45,resources/videos_generated\model(vcgpdm)-dataset(walking)-mode(ELBO)-parts(1)-dyn(22)-lvm(22)_final(5).mov,resources/videos_natural\training(39).mov,True,True,left,0,44,44,44,2018-09-17 16:18:26.136836,2018-09-17 16:18:30.057060,0:00:03.920224,1,right,0,0.650703228526254,22,f,2,6,2018_Sep_17_1612,MP_PerceptionTuring2,59.961751900318816,
46,resources/videos_generated\model(vcgpdm)-dataset(walking)-mode(ELBO)-parts(2)-dyn(28)-lvm(21)_final(2).mov,resources/videos_natural\training(17).mov,False,False,right,0,45,45,45,2018-09-17 16:19:03.285961,2018-09-17 16:19:07.189184,0:00:03.903223,2,right,1,0.7008646548611068,22,f,2,6,2018_Sep_17_1612,MP_PerceptionTuring2,59.961751900318816,
47,resources/videos_generated\model(vcgpdm)-dataset(walking)-mode(ELBO)-parts(1)-dyn(22)-lvm(25)_final(1).mov,resources/videos_natural\training(30).mov,True,True,left,0,46,46,46,2018-09-17 16:19:09.007288,2018-09-17 16:19:12.910511,0:00:03.903223,2,left,1,0.40060564992199943,22,f,2,6,2018_Sep_17_1612,MP_PerceptionTuring2,59.961751900318816,
48,resources/videos_generated\model(vcgpdm)-dataset(walking)-mode(ELBO)-parts(1)-dyn(28)-lvm(25)_final(4).mov,resources/videos_natural\training(38).mov,True,False,right,0,47,47,47,2018-09-17 16:19:14.428598,2018-09-17 16:19:18.498831,0:00:04.070233,2,right,1,0.5006827490660726,22,f,2,6,2018_Sep_17_1612,MP_PerceptionTuring2,59.961751900318816,
49,resources/videos_generated\model(vcgpdm)-dataset(walking)-mode(ELBO)-parts(1)-dyn(26)-lvm(23)_final(2).mov,resources/videos_natural\training(27).mov,False,False,right,0,48,48,48,2018-09-17 16:19:20.116923,2018-09-17 16:19:24.037148,0:00:03.920225,2,right,1,0.30049210938523174,22,f,2,6,2018_Sep_17_1612,MP_PerceptionTuring2,59.961751900318816,
50,resources/videos_generated\model(dmp)-dataset(walking)-npsi(50)_final(3).mov,resources/videos_natural\training(12).mov,False,True,left,0,49,49,49,2018-09-17 16:19:25.455229,2018-09-17 16:19:29.375453,0:00:03.920224,2,right,0,0.45057131670910167,22,f,2,6,2018_Sep_17_1612,MP_PerceptionTuring2,59.961751900318816,
51,resources/videos_generated\model(vcgpdm)-dataset(walking)-mode(ELBO)-parts(2)-dyn(23)-lvm(22)_final(6).mov,resources/videos_natural\training(22).mov,True,False,right,0,50,50,50,2018-09-17 16:19:30.942543,2018-09-17 16:19:34.862767,0:00:03.920224,2,right,1,0.38429526563140826,22,f,2,6,2018_Sep_17_1612,MP_PerceptionTuring2,59.961751900318816,
52,resources/videos_generated\model(vcgpdm)-dataset(walking)-mode(ELBO)-parts(2)-dyn(24)-lvm(21)_final(8).mov,resources/videos_natural\training(4).mov,False,True,left,0,51,51,51,2018-09-17 16:19:36.364853,2018-09-17 16:19:40.351081,0:00:03.986228,2,left,1,0.3170958318278281,22,f,2,6,2018_Sep_17_1612,MP_PerceptionTuring2,59.961751900318816,
53,resources/videos_generated\model(vcgpdm)-dataset(walking)-mode(ELBO)-parts(2)-dyn(22)-lvm(23)_final(6).mov,resources/videos_natural\training(3).mov,False,False,right,0,52,52,52,2018-09-17 16:19:41.786163,2018-09-17 16:19:45.705387,0:00:03.919224,2,right,1,0.43384682568375865,22,f,2,6,2018_Sep_17_1612,MP_PerceptionTuring2,59.961751900318816,
54,resources/videos_generated\model(vcgpdm)-dataset(walking)-mode(ELBO)-parts(2)-dyn(24)-lvm(21)_final(2).mov,resources/videos_natural\training(24).mov,False,False,right,0,53,53,53,2018-09-17 16:19:47.257476,2018-09-17 16:19:51.177700,0:00:03.920224,2,left,0,0.6006839537403721,22,f,2,6,2018_Sep_17_1612,MP_PerceptionTuring2,59.961751900318816,
55,resources/videos_generated\model(vcgpdm)-dataset(walking)-mode(ELBO)-parts(2)-dyn(27)-lvm(18)_final(0).mov,resources/videos_natural\training(37).mov,True,True,left,0,54,54,54,2018-09-17 16:19:52.895798,2018-09-17 16:19:56.815022,0:00:03.919224,2,right,0,0.4507119624140614,22,f,2,6,2018_Sep_17_1612,MP_PerceptionTuring2,59.961751900318816,
56,resources/videos_generated\model(vcgpdm)-dataset(walking)-mode(ELBO)-parts(2)-dyn(26)-lvm(17)_final(8).mov,resources/videos_natural\training(47).mov,False,True,left,0,55,55,55,2018-09-17 16:19:58.383112,2018-09-17 16:20:02.287335,0:00:03.904223,2,left,1,0.31726719672315085,22,f,2,6,2018_Sep_17_1612,MP_PerceptionTuring2,59.961751900318816,
57,resources/videos_generated\model(vcgpdm)-dataset(walking)-mode(ELBO)-parts(1)-dyn(28)-lvm(23)_final(0).mov,resources/videos_natural\training(31).mov,False,False,right,0,56,56,56,2018-09-17 16:20:03.721417,2018-09-17 16:20:07.624641,0:00:03.903224,2,left,0,0.317279243464327,22,f,2,6,2018_Sep_17_1612,MP_PerceptionTuring2,59.961751900318816,
58,resources/videos_generated\model(vcgpdm)-dataset(walking)-mode(ELBO)-parts(1)-dyn(23)-lvm(26)_final(4)_hip-corrected.mov,resources/videos_natural\training(44).mov,True,False,right,0,57,57,57,2018-09-17 16:20:09.059723,2018-09-17 16:20:13.095954,0:00:04.036231,2,right,1,0.3171795566795481,22,f,2,6,2018_Sep_17_1612,MP_PerceptionTuring2,59.961751900318816,
59,resources/videos_generated\model(vcgpdm)-dataset(walking)-mode(ELBO)-parts(1)-dyn(25)-lvm(28)_final(1).mov,resources/videos_natural\training(38).mov,False,True,left,0,58,58,58,2018-09-17 16:20:14.531036,2018-09-17 16:20:18.451260,0:00:03.920224,2,left,1,0.28372756294447754,22,f,2,6,2018_Sep_17_1612,MP_PerceptionTuring2,59.961751900318816,
60,resources/videos_generated\model(tmp)-dataset(walking)-numprim(13)_final(1).mov,resources/videos_natural\training(25).mov,False,False,right,0,59,59,59,2018-09-17 16:20:19.852340,2018-09-17 16:20:23.772564,0:00:03.920224,2,right,1,0.8009495843871264,22,f,2,6,2018_Sep_17_1612,MP_PerceptionTuring2,59.961751900318816,
61,resources/videos_generated\model(vcgpdm)-dataset(walking)-mode(ELBO)-parts(1)-dyn(28)-lvm(27)_final(4).mov,resources/videos_natural\training(47).mov,False,True,left,0,60,60,60,2018-09-17 16:20:25.690674,2018-09-17 16:20:29.610898,0:00:03.920224,2,right,0,1.4014398867602722,22,f,2,6,2018_Sep_17_1612,MP_PerceptionTuring2,59.961751900318816,
62,resources/videos_generated\model(vcgpdm)-dataset(walking)-mode(ELBO)-parts(2)-dyn(24)-lvm(21)_final(6).mov,resources/videos_natural\training(18).mov,False,False,right,0,61,61,61,2018-09-17 16:20:32.129042,2018-09-17 16:20:36.216276,0:00:04.087234,2,left,0,1.384834658474574,22,f,2,6,2018_Sep_17_1612,MP_PerceptionTuring2,59.961751900318816,
63,resources/videos_generated\model(vcgpdm)-dataset(walking)-mode(ELBO)-parts(2)-dyn(26)-lvm(21)_final(6).mov,resources/videos_natural\training(6).mov,True,False,right,0,62,62,62,2018-09-17 16:20:38.718419,2018-09-17 16:20:42.654644,0:00:03.936225,2,right,1,0.4839712082884944,22,f,2,6,2018_Sep_17_1612,MP_PerceptionTuring2,59.961751900318816,
64,resources/videos_generated\model(vcgpdm)-dataset(walking)-mode(ELBO)-parts(1)-dyn(23)-lvm(27)_final(0).mov,resources/videos_natural\training(31).mov,True,False,right,0,63,63,63,2018-09-17 16:20:44.256736,2018-09-17 16:20:48.176960,0:00:03.920224,2,right,1,0.3338465245151383,22,f,2,6,2018_Sep_17_1612,MP_PerceptionTuring2,59.961751900318816,
65,resources/videos_generated\model(vcgpdm)-dataset(walking)-mode(ELBO)-parts(2)-dyn(26)-lvm(21)_final(0).mov,resources/videos_natural\training(43).mov,True,True,left,0,64,64,64,2018-09-17 16:20:49.628043,2018-09-17 16:20:53.531266,0:00:03.903223,2,left,1,0.36716961811816873,22,f,2,6,2018_Sep_17_1612,MP_PerceptionTuring2,59.961751900318816,
66,resources/videos_generated\model(tmp)-dataset(walking)-numprim(15)_final(7).mov,resources/videos_natural\training(48).mov,True,False,right,0,65,65,65,2018-09-17 16:20:55.015351,2018-09-17 16:20:59.052582,0:00:04.037231,2,right,1,0.31716088423036126,22,f,2,6,2018_Sep_17_1612,MP_PerceptionTuring2,59.961751900318816,
67,resources/videos_generated\model(dmp)-dataset(walking)-npsi(80)_final(9).mov,resources/videos_natural\training(26).mov,True,False,right,0,66,66,66,2018-09-17 16:21:00.486664,2018-09-17 16:21:04.406888,0:00:03.920224,2,left,0,0.8507842428625736,22,f,2,6,2018_Sep_17_1612,MP_PerceptionTuring2,59.961751900318816,
68,resources/videos_generated\model(dmp)-dataset(walking)-npsi(70)_final(7).mov,resources/videos_natural\training(29).mov,False,True,left,0,67,67,67,2018-09-17 16:21:06.376001,2018-09-17 16:21:10.429233,0:00:04.053232,2,right,0,0.35063305625772045,22,f,2,6,2018_Sep_17_1612,MP_PerceptionTuring2,59.961751900318816,
69,resources/videos_generated\model(vcgpdm)-dataset(walking)-mode(ELBO)-parts(1)-dyn(26)-lvm(27)_final(0).mov,resources/videos_natural\training(3).mov,False,False,right,0,68,68,68,2018-09-17 16:21:11.897317,2018-09-17 16:21:15.883545,0:00:03.986228,2,left,0,0.4673337549693315,22,f,2,6,2018_Sep_17_1612,MP_PerceptionTuring2,59.961751900318816,
70,resources/videos_generated\model(vcgpdm)-dataset(walking)-mode(ELBO)-parts(2)-dyn(22)-lvm(23)_final(0).mov,resources/videos_natural\training(16).mov,True,True,left,0,69,69,69,2018-09-17 16:21:17.468635,2018-09-17 16:21:21.404861,0:00:03.936226,2,right,0,0.3838447175039619,22,f,2,6,2018_Sep_17_1612,MP_PerceptionTuring2,59.961751900318816,
71,resources/videos_generated\model(vcgpdm)-dataset(walking)-mode(ELBO)-parts(1)-dyn(27)-lvm(28)_final(2).mov,resources/videos_natural\training(9).mov,True,False,right,0,70,70,70,2018-09-17 16:21:22.906947,2018-09-17 16:21:26.860173,0:00:03.953226,2,right,1,0.2671265510180092,22,f,2,6,2018_Sep_17_1612,MP_PerceptionTuring2,59.961751900318816,
72,resources/videos_generated\model(tmp)-dataset(walking)-numprim(11)_final(3).mov,resources/videos_natural\training(24).mov,True,True,left,0,71,71,71,2018-09-17 16:21:28.244252,2018-09-17 16:21:32.181477,0:00:03.937225,2,right,0,0.48390254186233506,22,f,2,6,2018_Sep_17_1612,MP_PerceptionTuring2,59.961751900318816,
73,resources/videos_generated\model(vcgpdm)-dataset(walking)-mode(ELBO)-parts(2)-dyn(26)-lvm(21)_final(2).mov,resources/videos_natural\training(43).mov,True,False,right,0,72,72,72,2018-09-17 16:21:33.782569,2018-09-17 16:21:37.702793,0:00:03.920224,2,left,0,2.1186537766534457,22,f,2,6,2018_Sep_17_1612,MP_PerceptionTuring2,59.961751900318816,
74,resources/videos_generated\model(vcgpdm)-dataset(walking)-mode(ELBO)-parts(2)-dyn(26)-lvm(23)_final(6).mov,resources/videos_natural\training(12).mov,False,False,right,0,73,73,73,2018-09-17 16:21:40.938978,2018-09-17 16:21:44.859202,0:00:03.920224,2,right,1,0.5008670642091602,22,f,2,6,2018_Sep_17_1612,MP_PerceptionTuring2,59.961751900318816,
75,resources/videos_generated\model(vcgpdm)-dataset(walking)-mode(ELBO)-parts(2)-dyn(28)-lvm(21)_final(0).mov,resources/videos_natural\training(41).mov,False,False,right,0,74,74,74,2018-09-17 16:21:46.477295,2018-09-17 16:21:50.513526,0:00:04.036231,2,right,1,0.4504779544631674,22,f,2,6,2018_Sep_17_1612,MP_PerceptionTuring2,59.961751900318816,
76,resources/videos_generated\model(dmp)-dataset(walking)-npsi(100)_final(5).mov,resources/videos_natural\training(33).mov,True,False,right,0,75,75,75,2018-09-17 16:21:52.081615,2018-09-17 16:21:56.001839,0:00:03.920224,2,right,1,0.3505966148659354,22,f,2,6,2018_Sep_17_1612,MP_PerceptionTuring2,59.961751900318816,
77,resources/videos_generated\model(vcgpdm)-dataset(walking)-mode(ELBO)-parts(1)-dyn(24)-lvm(25)_final(9).mov,resources/videos_natural\training(15).mov,True,True,left,0,76,76,76,2018-09-17 16:21:57.469923,2018-09-17 16:22:01.440151,0:00:03.970228,2,right,0,0.4005547524393478,22,f,2,6,2018_Sep_17_1612,MP_PerceptionTuring2,59.961751900318816,
78,resources/videos_generated\model(tmp)-dataset(walking)-numprim(11)_final(9).mov,resources/videos_natural\training(7).mov,False,True,left,0,77,77,77,2018-09-17 16:22:02.957237,2018-09-17 16:22:07.011469,0:00:04.054232,2,left,1,0.3672479219367233,22,f,2,6,2018_Sep_17_1612,MP_PerceptionTuring2,59.961751900318816,
79,resources/videos_generated\model(vcgpdm)-dataset(walking)-mode(ELBO)-parts(2)-dyn(25)-lvm(18)_final(4).mov,resources/videos_natural\training(24).mov,False,False,right,0,78,78,78,2018-09-17 16:22:08.495554,2018-09-17 16:22:12.449780,0:00:03.954226,2,left,0,2.7691425731836716,22,f,2,6,2018_Sep_17_1612,MP_PerceptionTuring2,59.961751900318816,
80,resources/videos_generated\model(vcgpdm)-dataset(walking)-mode(ELBO)-parts(1)-dyn(22)-lvm(27)_final(1)_fail.mov,resources/videos_natural\training(2).mov,True,False,right,0,79,79,79,2018-09-17 16:22:16.336002,2018-09-17 16:22:20.406235,0:00:04.070233,2,right,1,0.917650584266994,22,f,2,6,2018_Sep_17_1612,MP_PerceptionTuring2,59.961751900318816,
81,resources/videos_generated\model(vcgpdm)-dataset(walking)-mode(ELBO)-parts(1)-dyn(26)-lvm(23)_final(4)_fail.mov,resources/videos_natural\training(19).mov,True,True,left,0,80,80,80,2018-09-17 16:22:22.441352,2018-09-17 16:22:26.394578,0:00:03.953226,2,left,1,0.3339959041086331,22,f,2,6,2018_Sep_17_1612,MP_PerceptionTuring2,59.961751900318816,
82,resources/videos_generated\model(vcgpdm)-dataset(walking)-mode(ELBO)-parts(2)-dyn(28)-lvm(19)_final(8).mov,resources/videos_natural\training(42).mov,False,False,right,0,81,81,81,2018-09-17 16:22:27.845661,2018-09-17 16:22:31.849890,0:00:04.004229,2,left,0,0.6007285266832696,22,f,2,6,2018_Sep_17_1612,MP_PerceptionTuring2,59.961751900318816,
83,resources/videos_generated\model(vcgpdm)-dataset(walking)-mode(ELBO)-parts(1)-dyn(28)-lvm(25)_final(2).mov,resources/videos_natural\training(5).mov,False,False,right,0,82,82,82,2018-09-17 16:22:33.567988,2018-09-17 16:22:37.504213,0:00:03.936225,2,left,0,0.30047102758726396,22,f,2,6,2018_Sep_17_1612,MP_PerceptionTuring2,59.961751900318816,
84,resources/videos_generated\model(vcgpdm)-dataset(walking)-mode(ELBO)-parts(1)-dyn(22)-lvm(23)_final(5).mov,resources/videos_natural\training(35).mov,True,False,right,0,83,83,83,2018-09-17 16:22:38.922294,2018-09-17 16:22:42.825518,0:00:03.903224,2,right,1,0.3504550656552965,22,f,2,6,2018_Sep_17_1612,MP_PerceptionTuring2,59.961751900318816,
85,resources/videos_generated\model(vcgpdm)-dataset(walking)-mode(ELBO)-parts(1)-dyn(24)-lvm(23)_final(9).mov,resources/videos_natural\training(32).mov,False,True,left,0,84,84,84,2018-09-17 16:22:44.293602,2018-09-17 16:22:48.279830,0:00:03.986228,2,right,0,0.8176213709184594,22,f,2,6,2018_Sep_17_1612,MP_PerceptionTuring2,59.961751900318816,
86,resources/videos_generated\model(vcgpdm)-dataset(walking)-mode(ELBO)-parts(1)-dyn(27)-lvm(24)_final(4).mov,resources/videos_natural\training(12).mov,True,True,left,0,85,85,85,2018-09-17 16:22:50.215940,2018-09-17 16:22:54.135164,0:00:03.919224,2,left,1,0.4004740392720123,22,f,2,6,2018_Sep_17_1612,MP_PerceptionTuring2,59.961751900318816,
87,resources/videos_generated\model(vcgpdm)-dataset(walking)-mode(ELBO)-parts(2)-dyn(25)-lvm(18)_final(0).mov,resources/videos_natural\training(8).mov,True,False,right,0,86,86,86,2018-09-17 16:22:55.653251,2018-09-17 16:22:59.590477,0:00:03.937226,2,left,0,0.25042524997024884,22,f,2,6,2018_Sep_17_1612,MP_PerceptionTuring2,59.961751900318816,
88,resources/videos_generated\model(vcgpdm)-dataset(walking)-mode(ELBO)-parts(1)-dyn(23)-lvm(28)_final(7).mov,resources/videos_natural\training(22).mov,True,False,right,0,87,87,87,2018-09-17 16:23:00.957555,2018-09-17 16:23:04.877779,0:00:03.920224,2,left,0,0.1836543789904681,22,f,2,6,2018_Sep_17_1612,MP_PerceptionTuring2,59.961751900318816,
89,resources/videos_generated\model(dmp)-dataset(walking)-npsi(70)_final(9).mov,resources/videos_natural\training(13).mov,True,False,right,0,88,88,88,2018-09-17 16:23:06.178853,2018-09-17 16:23:10.099078,0:00:03.920225,2,left,0,0.2836899168778473,22,f,2,6,2018_Sep_17_1612,MP_PerceptionTuring2,59.961751900318816,
90,resources/videos_generated\model(vcgpdm)-dataset(walking)-mode(ELBO)-parts(2)-dyn(24)-lvm(23)_final(0).mov,resources/videos_natural\training(37).mov,False,True,left,0,89,89,89,2018-09-17 16:23:11.500158,2018-09-17 16:23:15.420382,0:00:03.920224,2,left,1,0.25038459221832454,22,f,2,6,2018_Sep_17_1612,MP_PerceptionTuring2,59.961751900318816,
91,resources/videos_generated\model(vcgpdm)-dataset(walking)-mode(ELBO)-parts(1)-dyn(22)-lvm(23)_final(9).mov,resources/videos_natural\training(28).mov,True,True,left,0,90,90,90,2018-09-17 16:23:48.432270,2018-09-17 16:23:52.352494,0:00:03.920224,3,left,1,0.3171370919162655,22,f,2,6,2018_Sep_17_1612,MP_PerceptionTuring2,59.961751900318816,
92,resources/videos_generated\model(vcgpdm)-dataset(walking)-mode(ELBO)-parts(1)-dyn(23)-lvm(26)_final(6)_hip-corrected.mov,resources/videos_natural\training(34).mov,True,False,right,0,91,91,91,2018-09-17 16:23:53.786576,2018-09-17 16:23:57.689800,0:00:03.903224,3,right,1,0.30048217082276096,22,f,2,6,2018_Sep_17_1612,MP_PerceptionTuring2,59.961751900318816,
93,resources/videos_generated\model(dmp)-dataset(walking)-npsi(60)_final(9).mov,resources/videos_natural\training(11).mov,True,False,right,0,92,92,92,2018-09-17 16:23:59.107881,2018-09-17 16:24:03.012104,0:00:03.904223,3,right,1,0.26715425852307817,22,f,2,6,2018_Sep_17_1612,MP_PerceptionTuring2,59.961751900318816,
94,resources/videos_generated\model(vcgpdm)-dataset(walking)-mode(ELBO)-parts(1)-dyn(25)-lvm(28)_final(9).mov,resources/videos_natural\training(9).mov,False,False,right,0,93,93,93,2018-09-17 16:24:04.396183,2018-09-17 16:24:08.299406,0:00:03.903223,3,right,1,0.3338910974580358,22,f,2,6,2018_Sep_17_1612,MP_PerceptionTuring2,59.961751900318816,
95,resources/videos_generated\model(dmp)-dataset(walking)-npsi(100)_final(3).mov,resources/videos_natural\training(24).mov,False,False,right,0,94,94,94,2018-09-17 16:24:09.750489,2018-09-17 16:24:13.670714,0:00:03.920225,3,left,0,0.3005342729793483,22,f,2,6,2018_Sep_17_1612,MP_PerceptionTuring2,59.961751900318816,
96,resources/videos_generated\model(vcgpdm)-dataset(walking)-mode(ELBO)-parts(1)-dyn(23)-lvm(24)_final(2).mov,resources/videos_natural\training(29).mov,True,True,left,0,95,95,95,2018-09-17 16:24:15.088795,2018-09-17 16:24:19.092024,0:00:04.003229,3,left,1,0.3170943259847263,22,f,2,6,2018_Sep_17_1612,MP_PerceptionTuring2,59.961751900318816,
97,resources/videos_generated\model(vcgpdm)-dataset(walking)-mode(ELBO)-parts(1)-dyn(28)-lvm(25)_final(8).mov,resources/videos_natural\training(22).mov,True,False,right,0,96,96,96,2018-09-17 16:24:20.527106,2018-09-17 16:24:24.597339,0:00:04.070233,3,left,0,0.3005174075415198,22,f,2,6,2018_Sep_17_1612,MP_PerceptionTuring2,59.961751900318816,
98,resources/videos_generated\model(tmp)-dataset(walking)-numprim(12)_final(3).mov,resources/videos_natural\training(28).mov,False,False,right,0,97,97,97,2018-09-17 16:24:26.014420,2018-09-17 16:24:30.118654,0:00:04.104234,3,left,0,0.45050987832837563,22,f,2,6,2018_Sep_17_1612,MP_PerceptionTuring2,59.961751900318816,
99,resources/videos_generated\model(dmp)-dataset(walking)-npsi(70)_final(1).mov,resources/videos_natural\training(25).mov,False,False,right,0,98,98,98,2018-09-17 16:24:31.686744,2018-09-17 16:24:35.606968,0:00:03.920224,3,left,0,0.5009616311290301,22,f,2,6,2018_Sep_17_1612,MP_PerceptionTuring2,59.961751900318816,
100,resources/videos_generated\model(vcgpdm)-dataset(walking)-mode(ELBO)-parts(1)-dyn(24)-lvm(23)_final(1).mov,resources/videos_natural\training(40).mov,True,True,left,0,99,99,99,2018-09-17 16:24:37.224061,2018-09-17 16:24:41.161286,0:00:03.937225,3,left,1,0.3006752198534741,22,f,2,6,2018_Sep_17_1612,MP_PerceptionTuring2,59.961751900318816,
101,resources/videos_generated\model(tmp)-dataset(walking)-numprim(14)_final(7).mov,resources/videos_natural\training(1).mov,True,True,left,0,100,100,100,2018-09-17 16:24:42.579367,2018-09-17 16:24:46.699603,0:00:04.120236,3,left,1,0.2669750632448995,22,f,2,6,2018_Sep_17_1612,MP_PerceptionTuring2,59.961751900318816,
102,resources/videos_generated\model(tmp)-dataset(walking)-numprim(15)_final(9).mov,resources/videos_natural\training(44).mov,True,False,right,0,101,101,101,2018-09-17 16:24:48.083682,2018-09-17 16:24:52.020907,0:00:03.937225,3,right,1,0.38379110950518225,22,f,2,6,2018_Sep_17_1612,MP_PerceptionTuring2,59.961751900318816,
103,resources/videos_generated\model(vcgpdm)-dataset(walking)-mode(ELBO)-parts(1)-dyn(24)-lvm(25)_final(7).mov,resources/videos_natural\training(37).mov,True,True,left,0,102,102,102,2018-09-17 16:24:53.521993,2018-09-17 16:24:57.425216,0:00:03.903223,3,left,1,0.33375828213411296,22,f,2,6,2018_Sep_17_1612,MP_PerceptionTuring2,59.961751900318816,
104,resources/videos_generated\model(vcgpdm)-dataset(walking)-mode(ELBO)-parts(2)-dyn(22)-lvm(19)_final(4).mov,resources/videos_natural\training(24).mov,False,True,left,0,103,103,103,2018-09-17 16:24:58.876299,2018-09-17 16:25:02.930531,0:00:04.054232,3,left,1,0.38404168172473874,22,f,2,6,2018_Sep_17_1612,MP_PerceptionTuring2,59.961751900318816,
105,resources/videos_generated\model(vcgpdm)-dataset(walking)-mode(ELBO)-parts(2)-dyn(24)-lvm(23)_final(4).mov,resources/videos_natural\training(18).mov,False,False,right,0,104,104,104,2018-09-17 16:25:04.431617,2018-09-17 16:25:08.334840,0:00:03.903223,3,right,1,0.2671476328150675,22,f,2,6,2018_Sep_17_1612,MP_PerceptionTuring2,59.961751900318816,
106,resources/videos_generated\model(vcgpdm)-dataset(walking)-mode(ELBO)-parts(1)-dyn(22)-lvm(27)_final(9)_hip-corrected.mov,resources/videos_natural\training(39).mov,False,True,left,0,105,105,105,2018-09-17 16:25:09.719919,2018-09-17 16:25:13.639144,0:00:03.919225,3,left,1,0.28387634020054975,22,f,2,6,2018_Sep_17_1612,MP_PerceptionTuring2,59.961751900318816,
107,resources/videos_generated\model(vcgpdm)-dataset(walking)-mode(ELBO)-parts(1)-dyn(25)-lvm(24)_final(8).mov,resources/videos_natural\training(9).mov,False,True,left,0,106,106,106,2018-09-17 16:25:15.040224,2018-09-17 16:25:19.094456,0:00:04.054232,3,right,0,0.41716419708518515,22,f,2,6,2018_Sep_17_1612,MP_PerceptionTuring2,59.961751900318816,
108,resources/videos_generated\model(vcgpdm)-dataset(walking)-mode(ELBO)-parts(1)-dyn(23)-lvm(24)_final(4).mov,resources/videos_natural\training(45).mov,False,False,right,0,107,107,107,2018-09-17 16:25:20.628543,2018-09-17 16:25:24.548768,0:00:03.920225,3,right,1,0.3504282616549972,22,f,2,6,2018_Sep_17_1612,MP_PerceptionTuring2,59.961751900318816,
109,resources/videos_generated\model(vcgpdm)-dataset(walking)-mode(ELBO)-parts(1)-dyn(27)-lvm(22)_final(6).mov,resources/videos_natural\training(35).mov,False,True,left,0,108,108,108,2018-09-17 16:25:26.016852,2018-09-17 16:25:29.937076,0:00:03.920224,3,right,0,0.41733405613831565,22,f,2,6,2018_Sep_17_1612,MP_PerceptionTuring2,59.961751900318816,
110,resources/videos_generated\model(dmp)-dataset(walking)-npsi(60)_final(7).mov,resources/videos_natural\training(36).mov,False,True,left,0,109,109,109,2018-09-17 16:25:31.471164,2018-09-17 16:25:35.391388,0:00:03.920224,3,left,1,0.2338176123357698,22,f,2,6,2018_Sep_17_1612,MP_PerceptionTuring2,59.961751900318816,
111,resources/videos_generated\model(vcgpdm)-dataset(walking)-mode(ELBO)-parts(2)-dyn(24)-lvm(19)_final(2).mov,resources/videos_natural\training(0).mov,True,True,left,0,110,110,110,2018-09-17 16:25:36.742465,2018-09-17 16:25:40.762695,0:00:04.020230,3,left,1,0.3505204192269957,22,f,2,6,2018_Sep_17_1612,MP_PerceptionTuring2,59.961751900318816,
112,resources/videos_generated\model(tmp)-dataset(walking)-numprim(15)_final(5).mov,resources/videos_natural\training(13).mov,True,False,right,0,111,111,111,2018-09-17 16:25:42.230779,2018-09-17 16:25:46.168004,0:00:03.937225,3,right,1,0.38392211781774677,22,f,2,6,2018_Sep_17_1612,MP_PerceptionTuring2,59.961751900318816,
113,resources/videos_generated\model(vcgpdm)-dataset(walking)-mode(ELBO)-parts(1)-dyn(22)-lvm(27)_final(7)_hip-corrected.mov,resources/videos_natural\training(19).mov,True,False,right,0,112,112,112,2018-09-17 16:25:47.669090,2018-09-17 16:25:51.605315,0:00:03.936225,3,right,1,0.36709613299626653,22,f,2,6,2018_Sep_17_1612,MP_PerceptionTuring2,59.961751900318816,
114,resources/videos_generated\model(vcgpdm)-dataset(walking)-mode(ELBO)-parts(2)-dyn(27)-lvm(20)_final(4).mov,resources/videos_natural\training(15).mov,True,True,left,0,113,113,113,2018-09-17 16:25:53.090400,2018-09-17 16:25:57.076628,0:00:03.986228,3,left,1,0.31802975545178924,22,f,2,6,2018_Sep_17_1612,MP_PerceptionTuring2,59.961751900318816,
115,resources/videos_generated\model(vcgpdm)-dataset(walking)-mode(ELBO)-parts(1)-dyn(25)-lvm(26)_final(3)_fail.mov,resources/videos_natural\training(20).mov,True,True,left,0,114,114,114,2018-09-17 16:25:58.511710,2018-09-17 16:26:02.397933,0:00:03.886223,3,left,1,0.2670530658951975,22,f,2,6,2018_Sep_17_1612,MP_PerceptionTuring2,59.961751900318816,
116,resources/videos_generated\model(vcgpdm)-dataset(walking)-mode(ELBO)-parts(1)-dyn(28)-lvm(23)_final(2).mov,resources/videos_natural\training(5).mov,True,True,left,0,115,115,115,2018-09-17 16:26:03.784012,2018-09-17 16:26:07.803242,0:00:04.019230,3,left,1,0.26714582580461865,22,f,2,6,2018_Sep_17_1612,MP_PerceptionTuring2,59.961751900318816,
117,resources/videos_generated\model(vcgpdm)-dataset(walking)-mode(ELBO)-parts(1)-dyn(28)-lvm(25)_final(6).mov,resources/videos_natural\training(33).mov,True,False,right,0,116,116,116,2018-09-17 16:26:09.187321,2018-09-17 16:26:13.107545,0:00:03.920224,3,right,1,0.400511384170386,22,f,2,6,2018_Sep_17_1612,MP_PerceptionTuring2,59.961751900318816,
118,resources/videos_generated\model(vcgpdm)-dataset(walking)-mode(ELBO)-parts(2)-dyn(22)-lvm(17)_final(2).mov,resources/videos_natural\training(47).mov,False,True,left,0,117,117,117,2018-09-17 16:26:14.625632,2018-09-17 16:26:18.528855,0:00:03.903223,3,right,0,0.4839594627155748,22,f,2,6,2018_Sep_17_1612,MP_PerceptionTuring2,59.961751900318816,
119,resources/videos_generated\model(vcgpdm)-dataset(walking)-mode(ELBO)-parts(2)-dyn(26)-lvm(23)_final(2).mov,resources/videos_natural\training(39).mov,True,True,left,0,118,118,118,2018-09-17 16:26:20.129947,2018-09-17 16:26:24.150177,0:00:04.020230,3,right,0,1.101282375617302,22,f,2,6,2018_Sep_17_1612,MP_PerceptionTuring2,59.961751900318816,
120,resources/videos_generated\model(vcgpdm)-dataset(walking)-mode(ELBO)-parts(2)-dyn(24)-lvm(23)_final(6).mov,resources/videos_natural\training(36).mov,True,False,right,0,119,119,119,2018-09-17 16:26:26.369304,2018-09-17 16:26:30.322530,0:00:03.953226,3,right,1,0.43397211179308215,22,f,2,6,2018_Sep_17_1612,MP_PerceptionTuring2,59.961751900318816,
121,resources/videos_generated\model(vcgpdm)-dataset(walking)-mode(ELBO)-parts(1)-dyn(26)-lvm(22)_final(2).mov,resources/videos_natural\training(26).mov,True,False,right,0,120,120,120,2018-09-17 16:26:31.873618,2018-09-17 16:26:35.910849,0:00:04.037231,3,right,1,0.36736357065365155,22,f,2,6,2018_Sep_17_1612,MP_PerceptionTuring2,59.961751900318816,
122,resources/videos_generated\model(vcgpdm)-dataset(walking)-mode(ELBO)-parts(1)-dyn(25)-lvm(26)_final(9).mov,resources/videos_natural\training(46).mov,False,False,right,0,121,121,121,2018-09-17 16:26:37.394934,2018-09-17 16:26:41.315158,0:00:03.920224,3,left,0,0.3171560655337089,22,f,2,6,2018_Sep_17_1612,MP_PerceptionTuring2,59.961751900318816,
123,resources/videos_generated\model(vcgpdm)-dataset(walking)-mode(ELBO)-parts(2)-dyn(28)-lvm(19)_final(0).mov,resources/videos_natural\training(3).mov,False,False,right,0,122,122,122,2018-09-17 16:26:42.749240,2018-09-17 16:26:46.853475,0:00:04.104235,3,right,1,0.3838221298638018,22,f,2,6,2018_Sep_17_1612,MP_PerceptionTuring2,59.961751900318816,
124,resources/videos_generated\model(tmp)-dataset(walking)-numprim(12)_final(5).mov,resources/videos_natural\training(16).mov,False,True,left,0,123,123,123,2018-09-17 16:26:48.354561,2018-09-17 16:26:52.290786,0:00:03.936225,3,right,0,0.4170440308389516,22,f,2,6,2018_Sep_17_1612,MP_PerceptionTuring2,59.961751900318816,
125,resources/videos_generated\model(vcgpdm)-dataset(walking)-mode(ELBO)-parts(2)-dyn(27)-lvm(18)_final(8).mov,resources/videos_natural\training(20).mov,False,True,left,0,124,124,124,2018-09-17 16:26:53.825874,2018-09-17 16:26:57.746098,0:00:03.920224,3,left,1,0.26708890495137894,22,f,2,6,2018_Sep_17_1612,MP_PerceptionTuring2,59.961751900318816,
126,resources/videos_generated\model(vcgpdm)-dataset(walking)-mode(ELBO)-parts(2)-dyn(28)-lvm(17)_final(2).mov,resources/videos_natural\training(35).mov,True,False,right,0,125,125,125,2018-09-17 16:26:59.130177,2018-09-17 16:27:03.117405,0:00:03.987228,3,left,0,0.3505318636316588,22,f,2,6,2018_Sep_17_1612,MP_PerceptionTuring2,59.961751900318816,
127,resources/videos_generated\model(vcgpdm)-dataset(walking)-mode(ELBO)-parts(1)-dyn(22)-lvm(23)_final(7).mov,resources/videos_natural\training(0).mov,False,True,left,0,126,126,126,2018-09-17 16:27:04.585489,2018-09-17 16:27:08.521715,0:00:03.936226,3,right,0,0.40094657270128664,22,f,2,6,2018_Sep_17_1612,MP_PerceptionTuring2,59.961751900318816,
128,resources/videos_generated\model(vcgpdm)-dataset(walking)-mode(ELBO)-parts(2)-dyn(26)-lvm(23)_final(0).mov,resources/videos_natural\training(18).mov,True,False,right,0,127,127,127,2018-09-17 16:27:10.039801,2018-09-17 16:27:13.943025,0:00:03.903224,3,right,1,0.3004589808451783,22,f,2,6,2018_Sep_17_1612,MP_PerceptionTuring2,59.961751900318816,
129,resources/videos_generated\model(vcgpdm)-dataset(walking)-mode(ELBO)-parts(2)-dyn(22)-lvm(19)_final(0).mov,resources/videos_natural\training(13).mov,False,False,right,0,128,128,128,2018-09-17 16:27:15.361106,2018-09-17 16:27:19.298331,0:00:03.937225,3,right,1,0.45044813877848355,22,f,2,6,2018_Sep_17_1612,MP_PerceptionTuring2,59.961751900318816,
130,resources/videos_generated\model(vcgpdm)-dataset(walking)-mode(ELBO)-parts(2)-dyn(22)-lvm(19)_final(8).mov,resources/videos_natural\training(1).mov,True,True,left,0,129,129,129,2018-09-17 16:27:20.865421,2018-09-17 16:27:24.785645,0:00:03.920224,3,left,1,0.2504156125769441,22,f,2,6,2018_Sep_17_1612,MP_PerceptionTuring2,59.961751900318816,
131,resources/videos_generated\model(vcgpdm)-dataset(walking)-mode(ELBO)-parts(2)-dyn(24)-lvm(21)_final(0).mov,resources/videos_natural\training(11).mov,True,False,right,0,130,130,130,2018-09-17 16:27:26.153723,2018-09-17 16:27:30.040945,0:00:03.887222,3,right,1,0.3004936152265145,22,f,2,6,2018_Sep_17_1612,MP_PerceptionTuring2,59.961751900318816,
132,resources/videos_generated\model(vcgpdm)-dataset(walking)-mode(ELBO)-parts(2)-dyn(22)-lvm(21)_final(2).mov,resources/videos_natural\training(39).mov,False,False,right,0,131,131,131,2018-09-17 16:27:31.458026,2018-09-17 16:27:35.378251,0:00:03.920225,3,left,0,0.4172542464766593,22,f,2,6,2018_Sep_17_1612,MP_PerceptionTuring2,59.961751900318816,
133,resources/videos_generated\model(vcgpdm)-dataset(walking)-mode(ELBO)-parts(2)-dyn(23)-lvm(22)_final(4).mov,resources/videos_natural\training(14).mov,True,True,left,0,132,132,132,2018-09-17 16:27:36.913338,2018-09-17 16:27:40.833563,0:00:03.920225,3,left,1,0.3504945187323756,22,f,2,6,2018_Sep_17_1612,MP_PerceptionTuring2,59.961751900318816,
134,resources/videos_generated\model(vcgpdm)-dataset(walking)-mode(ELBO)-parts(1)-dyn(27)-lvm(28)_final(8).mov,resources/videos_natural\training(27).mov,True,True,left,0,133,133,133,2018-09-17 16:27:42.300647,2018-09-17 16:27:46.204870,0:00:03.904223,3,left,1,0.5508315263223267,22,f,2,6,2018_Sep_17_1612,MP_PerceptionTuring2,59.961751900318816,
135,resources/videos_generated\model(vcgpdm)-dataset(walking)-mode(ELBO)-parts(1)-dyn(25)-lvm(26)_final(5).mov,resources/videos_natural\training(23).mov,True,True,left,0,134,134,134,2018-09-17 16:27:47.872965,2018-09-17 16:27:51.809190,0:00:03.936225,3,left,1,0.450631550415892,22,f,2,6,2018_Sep_17_1612,MP_PerceptionTuring2,59.961751900318816,
136,resources/videos_generated\model(vcgpdm)-dataset(walking)-mode(ELBO)-parts(2)-dyn(25)-lvm(18)_final(8).mov,resources/videos_natural\training(15).mov,False,False,right,0,135,135,135,2018-09-17 16:28:27.807249,2018-09-17 16:28:31.760476,0:00:03.953227,4,right,1,0.36743826045039896,22,f,2,6,2018_Sep_17_1612,MP_PerceptionTuring2,59.961751900318816,
137,resources/videos_generated\model(dmp)-dataset(walking)-npsi(90)_final(7).mov,resources/videos_natural\training(46).mov,True,False,right,0,136,136,136,2018-09-17 16:28:33.245560,2018-09-17 16:28:37.181786,0:00:03.936226,4,left,0,0.5172891820266159,22,f,2,6,2018_Sep_17_1612,MP_PerceptionTuring2,59.961751900318816,
138,resources/videos_generated\model(vcgpdm)-dataset(walking)-mode(ELBO)-parts(2)-dyn(24)-lvm(17)_final(0).mov,resources/videos_natural\training(12).mov,True,True,left,0,137,137,137,2018-09-17 16:28:38.816879,2018-09-17 16:28:42.870111,0:00:04.053232,4,left,1,0.33378267678654083,22,f,2,6,2018_Sep_17_1612,MP_PerceptionTuring2,59.961751900318816,
139,resources/videos_generated\model(vcgpdm)-dataset(walking)-mode(ELBO)-parts(1)-dyn(27)-lvm(26)_final(2).mov,resources/videos_natural\training(19).mov,True,True,left,0,138,138,138,2018-09-17 16:28:44.321194,2018-09-17 16:28:48.241418,0:00:03.920224,4,left,1,0.46739368750695576,22,f,2,6,2018_Sep_17_1612,MP_PerceptionTuring2,59.961751900318816,
140,resources/videos_generated\model(vcgpdm)-dataset(walking)-mode(ELBO)-parts(1)-dyn(23)-lvm(26)_final(2).mov,resources/videos_natural\training(33).mov,False,True,left,0,139,139,139,2018-09-17 16:28:49.826509,2018-09-17 16:28:53.745733,0:00:03.919224,4,left,1,0.35043308035164955,22,f,2,6,2018_Sep_17_1612,MP_PerceptionTuring2,59.961751900318816,
141,resources/videos_generated\model(vcgpdm)-dataset(walking)-mode(ELBO)-parts(2)-dyn(24)-lvm(19)_final(4).mov,resources/videos_natural\training(14).mov,False,True,left,0,140,140,140,2018-09-17 16:28:55.213817,2018-09-17 16:28:59.134041,0:00:03.920224,4,left,1,0.43397662932147796,22,f,2,6,2018_Sep_17_1612,MP_PerceptionTuring2,59.961751900318816,
142,resources/videos_generated\model(vcgpdm)-dataset(walking)-mode(ELBO)-parts(1)-dyn(26)-lvm(23)_final(6)_fail.mov,resources/videos_natural\training(33).mov,True,False,right,0,141,141,141,2018-09-17 16:29:00.685130,2018-09-17 16:29:04.605354,0:00:03.920224,4,right,1,0.4172687025666164,22,f,2,6,2018_Sep_17_1612,MP_PerceptionTuring2,59.961751900318816,
143,resources/videos_generated\model(vcgpdm)-dataset(walking)-mode(ELBO)-parts(2)-dyn(24)-lvm(23)_final(2).mov,resources/videos_natural\training(23).mov,True,False,right,0,142,142,142,2018-09-17 16:29:06.140442,2018-09-17 16:29:10.060666,0:00:03.920224,4,left,0,0.2323804360921713,22,f,2,6,2018_Sep_17_1612,MP_PerceptionTuring2,59.961751900318816,
144,resources/videos_generated\model(vcgpdm)-dataset(walking)-mode(ELBO)-parts(1)-dyn(26)-lvm(23)_final(8).mov,resources/videos_natural\training(16).mov,False,False,right,0,143,143,143,2018-09-17 16:29:11.411743,2018-09-17 16:29:15.414972,0:00:04.003229,4,right,1,0.4839489218165909,22,f,2,6,2018_Sep_17_1612,MP_PerceptionTuring2,59.961751900318816,
145,resources/videos_generated\model(vcgpdm)-dataset(walking)-mode(ELBO)-parts(1)-dyn(28)-lvm(27)_final(8).mov,resources/videos_natural\training(19).mov,True,False,right,0,144,144,144,2018-09-17 16:29:17.016064,2018-09-17 16:29:21.020293,0:00:04.004229,4,left,0,0.26696663052644,22,f,2,6,2018_Sep_17_1612,MP_PerceptionTuring2,59.961751900318816,
146,resources/videos_generated\model(vcgpdm)-dataset(walking)-mode(ELBO)-parts(1)-dyn(23)-lvm(28)_final(5).mov,resources/videos_natural\training(45).mov,True,True,left,0,145,145,145,2018-09-17 16:29:22.404372,2018-09-17 16:29:26.357598,0:00:03.953226,4,right,0,0.3838380917968607,22,f,2,6,2018_Sep_17_1612,MP_PerceptionTuring2,59.961751900318816,
147,resources/videos_generated\model(vcgpdm)-dataset(walking)-mode(ELBO)-parts(1)-dyn(26)-lvm(27)_final(2).mov,resources/videos_natural\training(40).mov,False,False,right,0,146,146,146,2018-09-17 16:29:27.858684,2018-09-17 16:29:31.795909,0:00:03.937225,4,right,1,0.5673458017108715,22,f,2,6,2018_Sep_17_1612,MP_PerceptionTuring2,59.961751900318816,
148,resources/videos_generated\model(vcgpdm)-dataset(walking)-mode(ELBO)-parts(2)-dyn(23)-lvm(22)_final(0).mov,resources/videos_natural\training(21).mov,False,False,right,0,147,147,147,2018-09-17 16:29:33.480006,2018-09-17 16:29:37.384229,0:00:03.904223,4,right,1,0.7007053367060507,22,f,2,6,2018_Sep_17_1612,MP_PerceptionTuring2,59.961751900318816,
149,resources/videos_generated\model(dmp)-dataset(walking)-npsi(90)_final(1).mov,resources/videos_natural\training(2).mov,True,True,left,0,148,148,148,2018-09-17 16:29:39.202333,2018-09-17 16:29:43.122557,0:00:03.920224,4,right,0,1.1177695458382004,22,f,2,6,2018_Sep_17_1612,MP_PerceptionTuring2,59.961751900318816,
150,resources/videos_generated\model(vcgpdm)-dataset(walking)-mode(ELBO)-parts(2)-dyn(25)-lvm(20)_final(4).mov,resources/videos_natural\training(2).mov,True,False,right,0,149,149,149,2018-09-17 16:29:45.357685,2018-09-17 16:29:49.293910,0:00:03.936225,4,left,0,0.33420551740800875,22,f,2,6,2018_Sep_17_1612,MP_PerceptionTuring2,59.961751900318816,
151,resources/videos_generated\model(vcgpdm)-dataset(walking)-mode(ELBO)-parts(2)-dyn(26)-lvm(19)_final(8).mov,resources/videos_natural\training(5).mov,True,True,left,0,150,150,150,2018-09-17 16:29:50.744993,2018-09-17 16:29:54.682218,0:00:03.937225,4,right,0,0.46722653897086275,22,f,2,6,2018_Sep_17_1612,MP_PerceptionTuring2,59.961751900318816,
152,resources/videos_generated\model(dmp)-dataset(walking)-npsi(80)_final(7).mov,resources/videos_natural\training(22).mov,True,True,left,0,151,151,151,2018-09-17 16:29:56.267309,2018-09-17 16:30:00.236536,0:00:03.969227,4,right,0,0.3839284423565914,22,f,2,6,2018_Sep_17_1612,MP_PerceptionTuring2,59.961751900318816,
153,resources/videos_generated\model(vcgpdm)-dataset(walking)-mode(ELBO)-parts(2)-dyn(28)-lvm(23)_final(8).mov,resources/videos_natural\training(20).mov,True,True,left,0,152,152,152,2018-09-17 16:30:01.738622,2018-09-17 16:30:05.658846,0:00:03.920224,4,left,1,0.4006423924829505,22,f,2,6,2018_Sep_17_1612,MP_PerceptionTuring2,59.961751900318816,
154,resources/videos_generated\model(dmp)-dataset(walking)-npsi(90)_final(5).mov,resources/videos_natural\training(6).mov,True,True,left,0,153,153,153,2018-09-17 16:30:07.175933,2018-09-17 16:30:11.230165,0:00:04.054232,4,left,1,0.5173641729907104,22,f,2,6,2018_Sep_17_1612,MP_PerceptionTuring2,59.961751900318816,
155,resources/videos_generated\model(vcgpdm)-dataset(walking)-mode(ELBO)-parts(1)-dyn(27)-lvm(28)_final(0).mov,resources/videos_natural\training(4).mov,False,False,right,0,154,154,154,2018-09-17 16:30:12.864258,2018-09-17 16:30:16.884488,0:00:04.020230,4,right,1,0.38396277556876157,22,f,2,6,2018_Sep_17_1612,MP_PerceptionTuring2,59.961751900318816,
156,resources/videos_generated\model(vcgpdm)-dataset(walking)-mode(ELBO)-parts(1)-dyn(28)-lvm(23)_final(8).mov,resources/videos_natural\training(4).mov,True,True,left,0,155,155,155,2018-09-17 16:30:18.385574,2018-09-17 16:30:22.322799,0:00:03.937225,4,right,0,0.9176737742436671,22,f,2,6,2018_Sep_17_1612,MP_PerceptionTuring2,59.961751900318816,
157,resources/videos_generated\model(vcgpdm)-dataset(walking)-mode(ELBO)-parts(1)-dyn(25)-lvm(26)_final(1).mov,resources/videos_natural\training(5).mov,False,True,left,0,156,156,156,2018-09-17 16:30:24.357916,2018-09-17 16:30:28.311142,0:00:03.953226,4,left,1,0.41721991326357966,22,f,2,6,2018_Sep_17_1612,MP_PerceptionTuring2,59.961751900318816,
158,resources/videos_generated\model(vcgpdm)-dataset(walking)-mode(ELBO)-parts(1)-dyn(22)-lvm(23)_final(1).mov,resources/videos_natural\training(36).mov,True,True,left,0,157,157,157,2018-09-17 16:30:29.846230,2018-09-17 16:30:33.799456,0:00:03.953226,4,right,0,0.3836962414161462,22,f,2,6,2018_Sep_17_1612,MP_PerceptionTuring2,59.961751900318816,
159,resources/videos_generated\model(vcgpdm)-dataset(walking)-mode(ELBO)-parts(1)-dyn(23)-lvm(22)_final(6)_fail.mov,resources/videos_natural\training(23).mov,True,True,left,0,158,158,158,2018-09-17 16:30:35.300542,2018-09-17 16:30:39.270769,0:00:03.970227,4,left,1,0.4172361763639856,22,f,2,6,2018_Sep_17_1612,MP_PerceptionTuring2,59.961751900318816,
160,resources/videos_generated\model(vcgpdm)-dataset(walking)-mode(ELBO)-parts(1)-dyn(24)-lvm(25)_final(5).mov,resources/videos_natural\training(40).mov,False,True,left,0,159,159,159,2018-09-17 16:30:40.805857,2018-09-17 16:30:44.742082,0:00:03.936225,4,left,1,0.3838603782678547,22,f,2,6,2018_Sep_17_1612,MP_PerceptionTuring2,59.961751900318816,
161,resources/videos_generated\model(vcgpdm)-dataset(walking)-mode(ELBO)-parts(2)-dyn(27)-lvm(22)_final(8).mov,resources/videos_natural\training(42).mov,True,True,left,0,160,160,160,2018-09-17 16:30:46.243168,2018-09-17 16:30:50.313400,0:00:04.070232,4,left,1,0.5508595349956522,22,f,2,6,2018_Sep_17_1612,MP_PerceptionTuring2,59.961751900318816,
162,resources/videos_generated\model(vcgpdm)-dataset(walking)-mode(ELBO)-parts(2)-dyn(22)-lvm(21)_final(4).mov,resources/videos_natural\training(17).mov,True,False,right,0,161,161,161,2018-09-17 16:30:51.981496,2018-09-17 16:30:55.901720,0:00:03.920224,4,right,1,0.700832429827642,22,f,2,6,2018_Sep_17_1612,MP_PerceptionTuring2,59.961751900318816,
163,resources/videos_generated\model(vcgpdm)-dataset(walking)-mode(ELBO)-parts(1)-dyn(23)-lvm(26)_final(8)_hip-corrected.mov,resources/videos_natural\training(47).mov,False,False,right,0,162,162,162,2018-09-17 16:30:57.719824,2018-09-17 16:31:01.673050,0:00:03.953226,4,right,1,0.4341311287798817,22,f,2,6,2018_Sep_17_1612,MP_PerceptionTuring2,59.961751900318816,
164,resources/videos_generated\model(vcgpdm)-dataset(walking)-mode(ELBO)-parts(2)-dyn(23)-lvm(20)_final(2).mov,resources/videos_natural\training(18).mov,True,False,right,0,163,163,163,2018-09-17 16:31:03.225139,2018-09-17 16:31:07.161364,0:00:03.936225,4,right,1,0.8676099265148878,22,f,2,6,2018_Sep_17_1612,MP_PerceptionTuring2,59.961751900318816,
165,resources/videos_generated\model(dmp)-dataset(walking)-npsi(80)_final(1).mov,resources/videos_natural\training(33).mov,True,True,left,0,164,164,164,2018-09-17 16:31:09.146478,2018-09-17 16:31:13.049701,0:00:03.903223,4,left,1,0.5005839657869728,22,f,2,6,2018_Sep_17_1612,MP_PerceptionTuring2,59.961751900318816,
166,resources/videos_generated\model(vcgpdm)-dataset(walking)-mode(ELBO)-parts(1)-dyn(25)-lvm(24)_final(2).mov,resources/videos_natural\training(45).mov,True,False,right,0,165,165,165,2018-09-17 16:31:14.667793,2018-09-17 16:31:18.755027,0:00:04.087234,4,right,1,0.433776352246241,22,f,2,6,2018_Sep_17_1612,MP_PerceptionTuring2,59.961751900318816,
167,resources/videos_generated\model(vcgpdm)-dataset(walking)-mode(ELBO)-parts(2)-dyn(28)-lvm(23)_final(4)_fail.mov,resources/videos_natural\training(44).mov,True,False,right,0,166,166,166,2018-09-17 16:31:20.306116,2018-09-17 16:31:24.243341,0:00:03.937225,4,right,1,0.43382333453791944,22,f,2,6,2018_Sep_17_1612,MP_PerceptionTuring2,59.961751900318816,
168,resources/videos_generated\model(vcgpdm)-dataset(walking)-mode(ELBO)-parts(1)-dyn(24)-lvm(23)_final(3)_fail.mov,resources/videos_natural\training(6).mov,True,False,right,0,167,167,167,2018-09-17 16:31:25.794430,2018-09-17 16:31:29.797659,0:00:04.003229,4,right,1,0.3839808456814353,22,f,2,6,2018_Sep_17_1612,MP_PerceptionTuring2,59.961751900318816,
169,resources/videos_generated\model(vcgpdm)-dataset(walking)-mode(ELBO)-parts(1)-dyn(28)-lvm(27)_final(6).mov,resources/videos_natural\training(3).mov,True,True,left,0,168,168,168,2018-09-17 16:31:31.298745,2018-09-17 16:31:35.402979,0:00:04.104234,4,right,0,0.43405463197177596,22,f,2,6,2018_Sep_17_1612,MP_PerceptionTuring2,59.961751900318816,
170,resources/videos_generated\model(tmp)-dataset(walking)-numprim(14)_final(9).mov,resources/videos_natural\training(1).mov,False,True,left,0,169,169,169,2018-09-17 16:31:36.954068,2018-09-17 16:31:41.057303,0:00:04.103235,4,left,1,0.36731628719462606,22,f,2,6,2018_Sep_17_1612,MP_PerceptionTuring2,59.961751900318816,
171,resources/videos_generated\model(vcgpdm)-dataset(walking)-mode(ELBO)-parts(1)-dyn(26)-lvm(25)_final(8).mov,resources/videos_natural\training(21).mov,True,False,right,0,170,170,170,2018-09-17 16:31:42.542388,2018-09-17 16:31:46.478613,0:00:03.936225,4,right,1,0.5840317431629956,22,f,2,6,2018_Sep_17_1612,MP_PerceptionTuring2,59.961751900318816,
172,resources/videos_generated\model(vcgpdm)-dataset(walking)-mode(ELBO)-parts(2)-dyn(23)-lvm(20)_final(8).mov,resources/videos_natural\training(9).mov,False,True,left,0,171,171,171,2018-09-17 16:31:48.180710,2018-09-17 16:31:52.183939,0:00:04.003229,4,left,1,0.26703318877207494,22,f,2,6,2018_Sep_17_1612,MP_PerceptionTuring2,59.961751900318816,
173,resources/videos_generated\model(vcgpdm)-dataset(walking)-mode(ELBO)-parts(1)-dyn(27)-lvm(26)_final(8).mov,resources/videos_natural\training(30).mov,True,True,left,0,172,172,172,2018-09-17 16:31:53.568018,2018-09-17 16:31:57.471242,0:00:03.903224,4,left,1,0.3671834718707032,22,f,2,6,2018_Sep_17_1612,MP_PerceptionTuring2,59.961751900318816,
174,resources/videos_generated\model(vcgpdm)-dataset(walking)-mode(ELBO)-parts(2)-dyn(25)-lvm(22)_final(8).mov,resources/videos_natural\training(28).mov,False,True,left,0,173,173,173,2018-09-17 16:31:58.956326,2018-09-17 16:32:02.909553,0:00:03.953227,4,left,1,0.3838486326949351,22,f,2,6,2018_Sep_17_1612,MP_PerceptionTuring2,59.961751900318816,
175,resources/videos_generated\model(tmp)-dataset(walking)-numprim(14)_final(1).mov,resources/videos_natural\training(18).mov,False,True,left,0,174,174,174,2018-09-17 16:32:04.410638,2018-09-17 16:32:08.330863,0:00:03.920225,4,right,0,0.283927840018805,22,f,2,6,2018_Sep_17_1612,MP_PerceptionTuring2,59.961751900318816,
176,resources/videos_generated\model(dmp)-dataset(walking)-npsi(50)_final(9).mov,resources/videos_natural\training(4).mov,False,False,right,0,175,175,175,2018-09-17 16:32:09.731943,2018-09-17 16:32:13.652167,0:00:03.920224,4,right,1,0.45069871099894954,22,f,2,6,2018_Sep_17_1612,MP_PerceptionTuring2,59.961751900318816,
177,resources/videos_generated\model(vcgpdm)-dataset(walking)-mode(ELBO)-parts(2)-dyn(25)-lvm(20)_final(0).mov,resources/videos_natural\training(29).mov,True,False,right,0,176,176,176,2018-09-17 16:32:15.220257,2018-09-17 16:32:19.140481,0:00:03.920224,4,left,0,0.3838525478859083,22,f,2,6,2018_Sep_17_1612,MP_PerceptionTuring2,59.961751900318816,
178,resources/videos_generated\model(vcgpdm)-dataset(walking)-mode(ELBO)-parts(2)-dyn(23)-lvm(22)_final(8).mov,resources/videos_natural\training(1).mov,True,False,right,0,177,177,177,2018-09-17 16:32:20.641567,2018-09-17 16:32:24.561791,0:00:03.920224,4,right,1,0.30043308035237715,22,f,2,6,2018_Sep_17_1612,MP_PerceptionTuring2,59.961751900318816,
179,resources/videos_generated\model(vcgpdm)-dataset(walking)-mode(ELBO)-parts(1)-dyn(27)-lvm(24)_final(8).mov,resources/videos_natural\training(40).mov,True,True,left,0,178,178,178,2018-09-17 16:32:25.979872,2018-09-17 16:32:29.916097,0:00:03.936225,4,left,1,0.3171684134440511,22,f,2,6,2018_Sep_17_1612,MP_PerceptionTuring2,59.961751900318816,
180,resources/videos_generated\model(vcgpdm)-dataset(walking)-mode(ELBO)-parts(2)-dyn(24)-lvm(21)_final(4).mov,resources/videos_natural\training(36).mov,False,True,left,0,179,179,179,2018-09-17 16:32:31.351179,2018-09-17 16:32:35.287404,0:00:03.936225,4,left,1,0.35052553909099515,22,f,2,6,2018_Sep_17_1612,MP_PerceptionTuring2,59.961751900318816,
181,resources/videos_generated\model(vcgpdm)-dataset(walking)-mode(ELBO)-parts(1)-dyn(27)-lvm(22)_final(8).mov,resources/videos_natural\training(41).mov,False,True,left,0,180,180,180,2018-09-17 16:33:09.333352,2018-09-17 16:33:13.287578,0:00:03.954226,5,right,0,0.5341205878812616,22,f,2,6,2018_Sep_17_1612,MP_PerceptionTuring2,59.961751900318816,
182,resources/videos_generated\model(dmp)-dataset(walking)-npsi(70)_final(3).mov,resources/videos_natural\training(0).mov,False,False,right,0,181,181,181,2018-09-17 16:33:14.938672,2018-09-17 16:33:18.858897,0:00:03.920225,5,right,1,0.4504800626427823,22,f,2,6,2018_Sep_17_1612,MP_PerceptionTuring2,59.961751900318816,
183,resources/videos_generated\model(tmp)-dataset(walking)-numprim(12)_final(7).mov,resources/videos_natural\training(28).mov,False,True,left,0,182,182,182,2018-09-17 16:33:20.426986,2018-09-17 16:33:24.497219,0:00:04.070233,5,left,1,0.3004327791832111,22,f,2,6,2018_Sep_17_1612,MP_PerceptionTuring2,59.961751900318816,
184,resources/videos_generated\model(vcgpdm)-dataset(walking)-mode(ELBO)-parts(2)-dyn(22)-lvm(23)_final(2).mov,resources/videos_natural\training(30).mov,False,True,left,0,183,183,183,2018-09-17 16:33:25.914300,2018-09-17 16:33:30.018535,0:00:04.104235,5,left,1,0.3172379833758896,22,f,2,6,2018_Sep_17_1612,MP_PerceptionTuring2,59.961751900318816,
185,resources/videos_generated\model(vcgpdm)-dataset(walking)-mode(ELBO)-parts(1)-dyn(25)-lvm(22)_final(1).mov,resources/videos_natural\training(32).mov,False,False,right,0,184,184,184,2018-09-17 16:33:31.452617,2018-09-17 16:33:35.372841,0:00:03.920224,5,right,1,0.5340193952533809,22,f,2,6,2018_Sep_17_1612,MP_PerceptionTuring2,59.961751900318816,
186,resources/videos_generated\model(vcgpdm)-dataset(walking)-mode(ELBO)-parts(2)-dyn(25)-lvm(20)_final(2).mov,resources/videos_natural\training(47).mov,False,False,right,0,185,185,185,2018-09-17 16:33:37.023936,2018-09-17 16:33:40.928159,0:00:03.904223,5,right,1,0.36738916997910565,22,f,2,6,2018_Sep_17_1612,MP_PerceptionTuring2,59.961751900318816,
187,resources/videos_generated\model(vcgpdm)-dataset(walking)-mode(ELBO)-parts(1)-dyn(25)-lvm(22)_final(5).mov,resources/videos_natural\training(18).mov,True,False,right,0,186,186,186,2018-09-17 16:33:42.412244,2018-09-17 16:33:46.332468,0:00:03.920224,5,right,1,0.43415311408261914,22,f,2,6,2018_Sep_17_1612,MP_PerceptionTuring2,59.961751900318816,
188,resources/videos_generated\model(vcgpdm)-dataset(walking)-mode(ELBO)-parts(1)-dyn(22)-lvm(28)_final(2).mov,resources/videos_natural\training(8).mov,False,False,right,0,187,187,187,2018-09-17 16:33:47.883557,2018-09-17 16:33:51.803781,0:00:03.920224,5,right,1,0.8343235754728084,22,f,2,6,2018_Sep_17_1612,MP_PerceptionTuring2,59.961751900318816,
189,resources/videos_generated\model(vcgpdm)-dataset(walking)-mode(ELBO)-parts(2)-dyn(28)-lvm(23)_final(0).mov,resources/videos_natural\training(34).mov,False,True,left,0,188,188,188,2018-09-17 16:33:53.755893,2018-09-17 16:33:57.675117,0:00:03.919224,5,right,0,0.5673346584753745,22,f,2,6,2018_Sep_17_1612,MP_PerceptionTuring2,59.961751900318816,
190,resources/videos_generated\model(vcgpdm)-dataset(walking)-mode(ELBO)-parts(1)-dyn(23)-lvm(22)_final(2).mov,resources/videos_natural\training(44).mov,False,True,left,0,189,189,189,2018-09-17 16:33:59.360213,2018-09-17 16:34:03.397444,0:00:04.037231,5,left,1,0.4173506204069781,22,f,2,6,2018_Sep_17_1612,MP_PerceptionTuring2,59.961751900318816,
191,resources/videos_generated\model(vcgpdm)-dataset(walking)-mode(ELBO)-parts(1)-dyn(25)-lvm(24)_final(4).mov,resources/videos_natural\training(20).mov,False,False,right,0,190,190,190,2018-09-17 16:34:04.931532,2018-09-17 16:34:08.901759,0:00:03.970227,5,right,1,0.33407029273621447,22,f,2,6,2018_Sep_17_1612,MP_PerceptionTuring2,59.961751900318816,
192,resources/videos_generated\model(vcgpdm)-dataset(walking)-mode(ELBO)-parts(1)-dyn(23)-lvm(26)_final(0).mov,resources/videos_natural\training(21).mov,False,False,right,0,191,191,191,2018-09-17 16:34:10.352842,2018-09-17 16:34:14.473078,0:00:04.120236,5,left,0,0.6341525117450146,22,f,2,6,2018_Sep_17_1612,MP_PerceptionTuring2,59.961751900318816,
193,resources/videos_generated\model(vcgpdm)-dataset(walking)-mode(ELBO)-parts(2)-dyn(24)-lvm(23)_final(8).mov,resources/videos_natural\training(15).mov,True,False,right,0,192,192,192,2018-09-17 16:34:16.225178,2018-09-17 16:34:20.228407,0:00:04.003229,5,right,1,0.6007544271769802,22,f,2,6,2018_Sep_17_1612,MP_PerceptionTuring2,59.961751900318816,
194,resources/videos_generated\model(vcgpdm)-dataset(walking)-mode(ELBO)-parts(2)-dyn(23)-lvm(20)_final(4).mov,resources/videos_natural\training(34).mov,False,True,left,0,193,193,193,2018-09-17 16:34:21.946505,2018-09-17 16:34:25.883730,0:00:03.937225,5,left,1,0.5173876641365496,22,f,2,6,2018_Sep_17_1612,MP_PerceptionTuring2,59.961751900318816,
195,resources/videos_generated\model(dmp)-dataset(walking)-npsi(90)_final(3).mov,resources/videos_natural\training(17).mov,True,True,left,0,194,194,194,2018-09-17 16:34:27.517824,2018-09-17 16:34:31.455049,0:00:03.937225,5,left,1,0.5006279363933572,22,f,2,6,2018_Sep_17_1612,MP_PerceptionTuring2,59.961751900318816,
196,resources/videos_generated\model(vcgpdm)-dataset(walking)-mode(ELBO)-parts(2)-dyn(27)-lvm(20)_final(2).mov,resources/videos_natural\training(35).mov,False,True,left,0,195,195,195,2018-09-17 16:34:33.073141,2018-09-17 16:34:37.009367,0:00:03.936226,5,left,1,0.4171337790621692,22,f,2,6,2018_Sep_17_1612,MP_PerceptionTuring2,59.961751900318816,
197,resources/videos_generated\model(vcgpdm)-dataset(walking)-mode(ELBO)-parts(2)-dyn(22)-lvm(17)_final(4).mov,resources/videos_natural\training(48).mov,False,True,left,0,196,196,196,2018-09-17 16:34:38.544454,2018-09-17 16:34:42.464679,0:00:03.920225,5,left,1,0.4172879773523164,22,f,2,6,2018_Sep_17_1612,MP_PerceptionTuring2,59.961751900318816,
198,resources/videos_generated\model(vcgpdm)-dataset(walking)-mode(ELBO)-parts(1)-dyn(23)-lvm(24)_final(6).mov,resources/videos_natural\training(7).mov,False,False,right,0,197,197,197,2018-09-17 16:34:43.998766,2018-09-17 16:34:47.901990,0:00:03.903224,5,right,1,0.30047313576687884,22,f,2,6,2018_Sep_17_1612,MP_PerceptionTuring2,59.961751900318816,
199,resources/videos_generated\model(tmp)-dataset(walking)-numprim(15)_final(1).mov,resources/videos_natural\training(8).mov,False,True,left,0,198,198,198,2018-09-17 16:34:49.320071,2018-09-17 16:34:53.240295,0:00:03.920224,5,left,1,0.31723888688156876,22,f,2,6,2018_Sep_17_1612,MP_PerceptionTuring2,59.961751900318816,
200,resources/videos_generated\model(vcgpdm)-dataset(walking)-mode(ELBO)-parts(2)-dyn(28)-lvm(17)_final(4).mov,resources/videos_natural\training(22).mov,True,True,left,0,199,199,199,2018-09-17 16:34:54.674377,2018-09-17 16:34:58.611602,0:00:03.937225,5,left,1,0.4340916757018931,22,f,2,6,2018_Sep_17_1612,MP_PerceptionTuring2,59.961751900318816,
201,resources/videos_generated\model(vcgpdm)-dataset(walking)-mode(ELBO)-parts(2)-dyn(28)-lvm(17)_final(8).mov,resources/videos_natural\training(46).mov,False,True,left,0,200,200,200,2018-09-17 16:35:00.162691,2018-09-17 16:35:04.266926,0:00:04.104235,5,left,1,0.46730845681213395,22,f,2,6,2018_Sep_17_1612,MP_PerceptionTuring2,59.961751900318816,
202,resources/videos_generated\model(vcgpdm)-dataset(walking)-mode(ELBO)-parts(2)-dyn(23)-lvm(20)_final(0).mov,resources/videos_natural\training(17).mov,True,True,left,0,201,201,201,2018-09-17 16:35:05.851016,2018-09-17 16:35:09.804242,0:00:03.953226,5,left,1,0.5174870497530719,22,f,2,6,2018_Sep_17_1612,MP_PerceptionTuring2,59.961751900318816,
203,resources/videos_generated\model(vcgpdm)-dataset(walking)-mode(ELBO)-parts(1)-dyn(27)-lvm(26)_final(0).mov,resources/videos_natural\training(4).mov,True,False,right,0,202,202,202,2018-09-17 16:35:11.439336,2018-09-17 16:35:15.476567,0:00:04.037231,5,right,1,0.41719039874715236,22,f,2,6,2018_Sep_17_1612,MP_PerceptionTuring2,59.961751900318816,
204,resources/videos_generated\model(vcgpdm)-dataset(walking)-mode(ELBO)-parts(2)-dyn(22)-lvm(17)_final(0).mov,resources/videos_natural\training(43).mov,False,False,right,0,203,203,203,2018-09-17 16:35:17.010655,2018-09-17 16:35:20.930879,0:00:03.920224,5,left,0,0.3339212143118857,22,f,2,6,2018_Sep_17_1612,MP_PerceptionTuring2,59.961751900318816,
205,resources/videos_generated\model(dmp)-dataset(walking)-npsi(100)_final(1).mov,resources/videos_natural\training(41).mov,True,False,right,0,204,204,204,2018-09-17 16:35:22.381962,2018-09-17 16:35:26.285185,0:00:03.903223,5,left,0,0.3338302614138229,22,f,2,6,2018_Sep_17_1612,MP_PerceptionTuring2,59.961751900318816,
206,resources/videos_generated\model(dmp)-dataset(walking)-npsi(90)_final(9).mov,resources/videos_natural\training(2).mov,True,False,right,0,205,205,205,2018-09-17 16:35:27.736268,2018-09-17 16:35:31.756498,0:00:04.020230,5,left,0,0.9343530899895995,22,f,2,6,2018_Sep_17_1612,MP_PerceptionTuring2,59.961751900318816,
207,resources/videos_generated\model(vcgpdm)-dataset(walking)-mode(ELBO)-parts(1)-dyn(27)-lvm(24)_final(0).mov,resources/videos_natural\training(6).mov,True,False,right,0,206,206,206,2018-09-17 16:35:33.808615,2018-09-17 16:35:37.728840,0:00:03.920225,5,right,1,0.38409589206094097,22,f,2,6,2018_Sep_17_1612,MP_PerceptionTuring2,59.961751900318816,
208,resources/videos_generated\model(vcgpdm)-dataset(walking)-mode(ELBO)-parts(2)-dyn(28)-lvm(19)_final(4).mov,resources/videos_natural\training(30).mov,True,True,left,0,207,207,207,2018-09-17 16:35:39.229925,2018-09-17 16:35:43.150150,0:00:03.920225,5,right,0,0.4339585592097137,22,f,2,6,2018_Sep_17_1612,MP_PerceptionTuring2,59.961751900318816,
209,resources/videos_generated\model(tmp)-dataset(walking)-numprim(14)_final(5).mov,resources/videos_natural\training(29).mov,True,False,right,0,208,208,208,2018-09-17 16:35:44.701238,2018-09-17 16:35:48.654464,0:00:03.953226,5,left,0,0.3673316467902623,22,f,2,6,2018_Sep_17_1612,MP_PerceptionTuring2,59.961751900318816,
210,resources/videos_generated\model(vcgpdm)-dataset(walking)-mode(ELBO)-parts(1)-dyn(26)-lvm(25)_final(2).mov,resources/videos_natural\training(27).mov,False,True,left,0,209,209,209,2018-09-17 16:35:50.139549,2018-09-17 16:35:54.025772,0:00:03.886223,5,left,1,0.46734459703657194,22,f,2,6,2018_Sep_17_1612,MP_PerceptionTuring2,59.961751900318816,
211,resources/videos_generated\model(vcgpdm)-dataset(walking)-mode(ELBO)-parts(2)-dyn(25)-lvm(22)_final(0).mov,resources/videos_natural\training(40).mov,True,True,left,0,210,210,210,2018-09-17 16:35:55.610862,2018-09-17 16:35:59.564088,0:00:03.953226,5,left,1,0.6007586435371195,22,f,2,6,2018_Sep_17_1612,MP_PerceptionTuring2,59.961751900318816,
212,resources/videos_generated\model(vcgpdm)-dataset(walking)-mode(ELBO)-parts(2)-dyn(28)-lvm(19)_final(2).mov,resources/videos_natural\training(7).mov,True,False,right,0,211,211,211,2018-09-17 16:36:01.282187,2018-09-17 16:36:05.269415,0:00:03.987228,5,left,0,0.7341922659916236,22,f,2,6,2018_Sep_17_1612,MP_PerceptionTuring2,59.961751900318816,
213,resources/videos_generated\model(vcgpdm)-dataset(walking)-mode(ELBO)-parts(2)-dyn(23)-lvm(18)_final(2).mov,resources/videos_natural\training(38).mov,True,True,left,0,212,212,212,2018-09-17 16:36:07.120521,2018-09-17 16:36:11.057746,0:00:03.937225,5,right,0,0.6507595470429806,22,f,2,6,2018_Sep_17_1612,MP_PerceptionTuring2,59.961751900318816,
214,resources/videos_generated\model(vcgpdm)-dataset(walking)-mode(ELBO)-parts(1)-dyn(25)-lvm(28)_final(5).mov,resources/videos_natural\training(25).mov,False,True,left,0,213,213,213,2018-09-17 16:36:12.825847,2018-09-17 16:36:16.762072,0:00:03.936225,5,left,1,0.3504505481269007,22,f,2,6,2018_Sep_17_1612,MP_PerceptionTuring2,59.961751900318816,
215,resources/videos_generated\model(vcgpdm)-dataset(walking)-mode(ELBO)-parts(1)-dyn(23)-lvm(24)_final(0).mov,resources/videos_natural\training(23).mov,False,False,right,0,214,214,214,2018-09-17 16:36:18.230156,2018-09-17 16:36:22.135379,0:00:03.905223,5,right,1,0.550719190458949,22,f,2,6,2018_Sep_17_1612,MP_PerceptionTuring2,59.961751900318816,
216,resources/videos_generated\model(vcgpdm)-dataset(walking)-mode(ELBO)-parts(2)-dyn(25)-lvm(22)_final(6).mov,resources/videos_natural\training(32).mov,False,False,right,0,215,215,215,2018-09-17 16:36:23.801475,2018-09-17 16:36:27.805704,0:00:04.004229,5,left,0,0.5006812432238803,22,f,2,6,2018_Sep_17_1612,MP_PerceptionTuring2,59.961751900318816,
217,resources/videos_generated\model(vcgpdm)-dataset(walking)-mode(ELBO)-parts(1)-dyn(28)-lvm(27)_final(0).mov,resources/videos_natural\training(11).mov,False,False,right,0,216,216,216,2018-09-17 16:36:29.423796,2018-09-17 16:36:33.427025,0:00:04.003229,5,right,1,0.4505803517649838,22,f,2,6,2018_Sep_17_1612,MP_PerceptionTuring2,59.961751900318816,
218,resources/videos_generated\model(vcgpdm)-dataset(walking)-mode(ELBO)-parts(2)-dyn(22)-lvm(17)_final(8).mov,resources/videos_natural\training(47).mov,False,False,right,0,217,217,217,2018-09-17 16:36:34.995115,2018-09-17 16:36:38.981343,0:00:03.986228,5,right,1,0.38410131309501594,22,f,2,6,2018_Sep_17_1612,MP_PerceptionTuring2,59.961751900318816,
219,resources/videos_generated\model(vcgpdm)-dataset(walking)-mode(ELBO)-parts(1)-dyn(25)-lvm(25)_final(0).mov,resources/videos_natural\training(30).mov,True,False,right,0,218,218,218,2018-09-17 16:36:40.482429,2018-09-17 16:36:44.386652,0:00:03.904223,5,left,0,0.25032616552198306,22,f,2,6,2018_Sep_17_1612,MP_PerceptionTuring2,59.961751900318816,
220,resources/videos_generated\model(vcgpdm)-dataset(walking)-mode(ELBO)-parts(2)-dyn(23)-lvm(18)_final(8).mov,resources/videos_natural\training(46).mov,True,False,right,0,219,219,219,2018-09-17 16:36:45.753730,2018-09-17 16:36:49.673955,0:00:03.920225,5,left,0,0.21712112998466182,22,f,2,6,2018_Sep_17_1612,MP_PerceptionTuring2,59.961751900318816,
221,resources/videos_generated\model(tmp)-dataset(walking)-numprim(11)_final(7).mov,resources/videos_natural\training(10).mov,True,True,left,0,220,220,220,2018-09-17 16:36:51.009031,2018-09-17 16:36:54.929255,0:00:03.920224,5,right,0,0.4505743283934862,22,f,2,6,2018_Sep_17_1612,MP_PerceptionTuring2,59.961751900318816,
222,resources/videos_generated\model(vcgpdm)-dataset(walking)-mode(ELBO)-parts(1)-dyn(27)-lvm(22)_final(0).mov,resources/videos_natural\training(42).mov,False,False,right,0,221,221,221,2018-09-17 16:36:56.496345,2018-09-17 16:37:00.433570,0:00:03.937225,5,right,1,0.4005131911826538,22,f,2,6,2018_Sep_17_1612,MP_PerceptionTuring2,59.961751900318816,
223,resources/videos_generated\model(tmp)-dataset(walking)-numprim(11)_final(1).mov,resources/videos_natural\training(27).mov,False,True,left,0,222,222,222,2018-09-17 16:37:01.951657,2018-09-17 16:37:05.887882,0:00:03.936225,5,left,1,0.5673557402724327,22,f,2,6,2018_Sep_17_1612,MP_PerceptionTuring2,59.961751900318816,
224,resources/videos_generated\model(vcgpdm)-dataset(walking)-mode(ELBO)-parts(2)-dyn(24)-lvm(17)_final(2).mov,resources/videos_natural\training(12).mov,False,False,right,0,223,223,223,2018-09-17 16:37:07.572978,2018-09-17 16:37:11.493203,0:00:03.920225,5,right,1,0.3004499457892962,22,f,2,6,2018_Sep_17_1612,MP_PerceptionTuring2,59.961751900318816,
225,resources/videos_generated\model(vcgpdm)-dataset(walking)-mode(ELBO)-parts(2)-dyn(28)-lvm(23)_final(2).mov,resources/videos_natural\training(42).mov,True,False,right,0,224,224,224,2018-09-17 16:37:12.911284,2018-09-17 16:37:16.830508,0:00:03.919224,5,right,1,0.5172873750152576,22,f,2,6,2018_Sep_17_1612,MP_PerceptionTuring2,59.961751900318816,
226,resources/videos_generated\model(vcgpdm)-dataset(walking)-mode(ELBO)-parts(2)-dyn(26)-lvm(19)_final(6).mov,resources/videos_natural\training(31).mov,True,True,left,0,225,225,225,2018-09-17 16:37:50.343425,2018-09-17 16:37:54.263649,0:00:03.920224,6,left,1,0.8176557041315391,22,f,2,6,2018_Sep_17_1612,MP_PerceptionTuring2,59.961751900318816,
227,resources/videos_generated\model(vcgpdm)-dataset(walking)-mode(ELBO)-parts(2)-dyn(22)-lvm(21)_final(6).mov,resources/videos_natural\training(8).mov,True,False,right,0,226,226,226,2018-09-17 16:37:56.197760,2018-09-17 16:38:00.101983,0:00:03.904223,6,left,0,0.2839179014581532,22,f,2,6,2018_Sep_17_1612,MP_PerceptionTuring2,59.961751900318816,
228,resources/videos_generated\model(vcgpdm)-dataset(walking)-mode(ELBO)-parts(1)-dyn(25)-lvm(24)_final(0).mov,resources/videos_natural\training(0).mov,True,True,left,0,227,227,227,2018-09-17 16:38:01.503063,2018-09-17 16:38:05.423287,0:00:03.920224,6,right,0,0.3506155884833788,22,f,2,6,2018_Sep_17_1612,MP_PerceptionTuring2,59.961751900318816,
229,resources/videos_generated\model(vcgpdm)-dataset(walking)-mode(ELBO)-parts(2)-dyn(26)-lvm(19)_final(0).mov,resources/videos_natural\training(4).mov,False,True,left,0,228,228,228,2018-09-17 16:38:06.891371,2018-09-17 16:38:10.927602,0:00:04.036231,6,right,0,0.5172328635107988,22,f,2,6,2018_Sep_17_1612,MP_PerceptionTuring2,59.961751900318816,
230,resources/videos_generated\model(vcgpdm)-dataset(walking)-mode(ELBO)-parts(1)-dyn(27)-lvm(26)_final(4).mov,resources/videos_natural\training(23).mov,True,False,right,0,229,229,229,2018-09-17 16:38:12.562696,2018-09-17 16:38:16.548924,0:00:03.986228,6,right,1,0.4005797494282888,22,f,2,6,2018_Sep_17_1612,MP_PerceptionTuring2,59.961751900318816,
231,resources/videos_generated\model(vcgpdm)-dataset(walking)-mode(ELBO)-parts(2)-dyn(27)-lvm(22)_final(2).mov,resources/videos_natural\training(6).mov,False,False,right,0,230,230,230,2018-09-17 16:38:18.067010,2018-09-17 16:38:22.104241,0:00:04.037231,6,right,1,0.4505908926630582,22,f,2,6,2018_Sep_17_1612,MP_PerceptionTuring2,59.961751900318816,
232,resources/videos_generated\model(vcgpdm)-dataset(walking)-mode(ELBO)-parts(2)-dyn(23)-lvm(18)_final(4).mov,resources/videos_natural\training(41).mov,False,False,right,0,231,231,231,2018-09-17 16:38:23.672331,2018-09-17 16:38:27.592555,0:00:03.920224,6,right,1,0.3171081797372608,22,f,2,6,2018_Sep_17_1612,MP_PerceptionTuring2,59.961751900318816,
233,resources/videos_generated\model(dmp)-dataset(walking)-npsi(100)_final(9).mov,resources/videos_natural\training(41).mov,False,False,right,0,232,232,232,2018-09-17 16:38:29.026637,2018-09-17 16:38:33.013865,0:00:03.987228,6,right,1,0.4673027346107119,22,f,2,6,2018_Sep_17_1612,MP_PerceptionTuring2,59.961751900318816,
234,resources/videos_generated\model(dmp)-dataset(walking)-npsi(70)_final(5).mov,resources/videos_natural\training(48).mov,False,False,right,0,233,233,233,2018-09-17 16:38:34.597956,2018-09-17 16:38:38.535181,0:00:03.937225,6,right,1,0.5675093362251573,22,f,2,6,2018_Sep_17_1612,MP_PerceptionTuring2,59.961751900318816,
235,resources/videos_generated\model(vcgpdm)-dataset(walking)-mode(ELBO)-parts(2)-dyn(24)-lvm(19)_final(6).mov,resources/videos_natural\training(34).mov,False,False,right,0,234,234,234,2018-09-17 16:38:40.219277,2018-09-17 16:38:44.173504,0:00:03.954227,6,right,1,0.01698921816660004,22,f,2,6,2018_Sep_17_1612,MP_PerceptionTuring2,59.961751900318816,
236,resources/videos_generated\model(vcgpdm)-dataset(walking)-mode(ELBO)-parts(2)-dyn(27)-lvm(18)_final(2).mov,resources/videos_natural\training(4).mov,False,True,left,0,235,235,235,2018-09-17 16:38:45.307568,2018-09-17 16:38:49.227793,0:00:03.920225,6,left,1,0.3004177207567409,22,f,2,6,2018_Sep_17_1612,MP_PerceptionTuring2,59.961751900318816,
237,resources/videos_generated\model(vcgpdm)-dataset(walking)-mode(ELBO)-parts(2)-dyn(23)-lvm(20)_final(6).mov,resources/videos_natural\training(34).mov,True,True,left,0,236,236,236,2018-09-17 16:38:50.644874,2018-09-17 16:38:54.565098,0:00:03.920224,6,left,1,0.5009592217802492,22,f,2,6,2018_Sep_17_1612,MP_PerceptionTuring2,59.961751900318816,
238,resources/videos_generated\model(vcgpdm)-dataset(walking)-mode(ELBO)-parts(1)-dyn(22)-lvm(22)_final(3).mov,resources/videos_natural\training(4).mov,False,False,right,0,237,237,237,2018-09-17 16:38:56.183190,2018-09-17 16:39:00.120416,0:00:03.937226,6,right,1,0.3672286471510233,22,f,2,6,2018_Sep_17_1612,MP_PerceptionTuring2,59.961751900318816,
239,resources/videos_generated\model(vcgpdm)-dataset(walking)-mode(ELBO)-parts(2)-dyn(27)-lvm(20)_final(8).mov,resources/videos_natural\training(3).mov,False,False,right,0,238,238,238,2018-09-17 16:39:01.604501,2018-09-17 16:39:05.708735,0:00:04.104234,6,left,0,0.3171048668837102,22,f,2,6,2018_Sep_17_1612,MP_PerceptionTuring2,59.961751900318816,
240,resources/videos_generated\model(vcgpdm)-dataset(walking)-mode(ELBO)-parts(1)-dyn(22)-lvm(25)_final(7).mov,resources/videos_natural\training(0).mov,True,False,right,0,239,239,239,2018-09-17 16:39:07.142817,2018-09-17 16:39:11.096043,0:00:03.953226,6,right,1,0.31713408023097145,22,f,2,6,2018_Sep_17_1612,MP_PerceptionTuring2,59.961751900318816,
241,resources/videos_generated\model(tmp)-dataset(walking)-numprim(13)_final(5).mov,resources/videos_natural\training(16).mov,True,True,left,0,240,240,240,2018-09-17 16:39:12.531126,2018-09-17 16:39:16.467351,0:00:03.936225,6,right,0,2.719225695699606,22,f,2,6,2018_Sep_17_1612,MP_PerceptionTuring2,59.961751900318816,
242,resources/videos_generated\model(tmp)-dataset(walking)-numprim(13)_final(9).mov,resources/videos_natural\training(8).mov,True,False,right,0,241,241,241,2018-09-17 16:39:20.304570,2018-09-17 16:39:24.407805,0:00:04.103235,6,right,1,0.2503882062401317,22,f,2,6,2018_Sep_17_1612,MP_PerceptionTuring2,59.961751900318816,
243,resources/videos_generated\model(tmp)-dataset(walking)-numprim(12)_final(1).mov,resources/videos_natural\training(25).mov,False,False,right,0,242,242,242,2018-09-17 16:39:25.775883,2018-09-17 16:39:29.679106,0:00:03.903223,6,right,1,0.4507086495605108,22,f,2,6,2018_Sep_17_1612,MP_PerceptionTuring2,59.961751900318816,
244,resources/videos_generated\model(vcgpdm)-dataset(walking)-mode(ELBO)-parts(2)-dyn(24)-lvm(17)_final(4).mov,resources/videos_natural\training(37).mov,False,False,right,0,243,243,243,2018-09-17 16:39:31.247196,2018-09-17 16:39:35.167420,0:00:03.920224,6,left,0,0.5173810384294484,22,f,2,6,2018_Sep_17_1612,MP_PerceptionTuring2,59.961751900318816,
245,resources/videos_generated\model(dmp)-dataset(walking)-npsi(80)_final(3).mov,resources/videos_natural\training(10).mov,False,False,right,0,244,244,244,2018-09-17 16:39:36.801514,2018-09-17 16:39:40.888747,0:00:04.087233,6,left,0,0.7007035296956019,22,f,2,6,2018_Sep_17_1612,MP_PerceptionTuring2,59.961751900318816,
246,resources/videos_generated\model(vcgpdm)-dataset(walking)-mode(ELBO)-parts(1)-dyn(27)-lvm(24)_final(6).mov,resources/videos_natural\training(45).mov,True,False,right,0,245,245,245,2018-09-17 16:39:42.706851,2018-09-17 16:39:46.610075,0:00:03.903224,6,right,1,0.6674795205399278,22,f,2,6,2018_Sep_17_1612,MP_PerceptionTuring2,59.961751900318816,
247,resources/videos_generated\model(vcgpdm)-dataset(walking)-mode(ELBO)-parts(2)-dyn(28)-lvm(23)_final(6).mov,resources/videos_natural\training(26).mov,False,True,left,0,246,246,246,2018-09-17 16:39:48.395177,2018-09-17 16:39:52.282399,0:00:03.887222,6,right,0,1.4169928321889529,22,f,2,6,2018_Sep_17_1612,MP_PerceptionTuring2,59.961751900318816,
248,resources/videos_generated\model(vcgpdm)-dataset(walking)-mode(ELBO)-parts(1)-dyn(28)-lvm(27)_final(2).mov,resources/videos_natural\training(31).mov,False,True,left,0,247,247,247,2018-09-17 16:39:54.817544,2018-09-17 16:39:58.770770,0:00:03.953226,6,left,1,1.3847497289489183,22,f,2,6,2018_Sep_17_1612,MP_PerceptionTuring2,59.961751900318816,
249,resources/videos_generated\model(vcgpdm)-dataset(walking)-mode(ELBO)-parts(2)-dyn(25)-lvm(20)_final(8).mov,resources/videos_natural\training(25).mov,False,False,right,0,248,248,248,2018-09-17 16:40:01.272913,2018-09-17 16:40:05.193138,0:00:03.920225,6,left,0,1.9852818937470147,22,f,2,6,2018_Sep_17_1612,MP_PerceptionTuring2,59.961751900318816,
250,resources/videos_generated\model(vcgpdm)-dataset(walking)-mode(ELBO)-parts(1)-dyn(25)-lvm(23)_final(2).mov,resources/videos_natural\training(20).mov,False,True,left,0,249,249,249,2018-09-17 16:40:08.295315,2018-09-17 16:40:12.249541,0:00:03.954226,6,left,1,0.7007851463677071,22,f,2,6,2018_Sep_17_1612,MP_PerceptionTuring2,59.961751900318816,
251,resources/videos_generated\model(vcgpdm)-dataset(walking)-mode(ELBO)-parts(1)-dyn(26)-lvm(25)_final(0).mov,resources/videos_natural\training(22).mov,True,False,right,0,250,250,250,2018-09-17 16:40:14.067645,2018-09-17 16:40:18.103876,0:00:04.036231,6,left,0,2.4688380917959876,22,f,2,6,2018_Sep_17_1612,MP_PerceptionTuring2,59.961751900318816,
252,resources/videos_generated\model(vcgpdm)-dataset(walking)-mode(ELBO)-parts(1)-dyn(23)-lvm(28)_final(1).mov,resources/videos_natural\training(25).mov,False,False,right,0,251,251,251,2018-09-17 16:40:21.691081,2018-09-17 16:40:25.694310,0:00:04.003229,6,left,0,0.36694012769476103,22,f,2,6,2018_Sep_17_1612,MP_PerceptionTuring2,59.961751900318816,
253,resources/videos_generated\model(vcgpdm)-dataset(walking)-mode(ELBO)-parts(1)-dyn(22)-lvm(22)_final(9).mov,resources/videos_natural\training(27).mov,False,False,right,0,252,252,252,2018-09-17 16:40:27.178395,2018-09-17 16:40:31.115620,0:00:03.937225,6,right,1,0.8507980966151081,22,f,2,6,2018_Sep_17_1612,MP_PerceptionTuring2,59.961751900318816,
254,resources/videos_generated\model(vcgpdm)-dataset(walking)-mode(ELBO)-parts(2)-dyn(22)-lvm(19)_final(2).mov,resources/videos_natural\training(40).mov,True,True,left,0,253,253,253,2018-09-17 16:40:33.083733,2018-09-17 16:40:37.003957,0:00:03.920224,6,right,0,0.7175746897964927,22,f,2,6,2018_Sep_17_1612,MP_PerceptionTuring2,59.961751900318816,
255,resources/videos_generated\model(vcgpdm)-dataset(walking)-mode(ELBO)-parts(2)-dyn(28)-lvm(17)_final(0).mov,resources/videos_natural\training(35).mov,True,True,left,0,254,254,254,2018-09-17 16:40:38.839062,2018-09-17 16:40:42.825290,0:00:03.986228,6,right,0,0.33395494518754276,22,f,2,6,2018_Sep_17_1612,MP_PerceptionTuring2,59.961751900318816,
256,resources/videos_generated\model(vcgpdm)-dataset(walking)-mode(ELBO)-parts(2)-dyn(26)-lvm(23)_final(4).mov,resources/videos_natural\training(6).mov,True,True,left,0,255,255,255,2018-09-17 16:40:44.276373,2018-09-17 16:40:48.363607,0:00:04.087234,6,left,1,0.2671873870622221,22,f,2,6,2018_Sep_17_1612,MP_PerceptionTuring2,59.961751900318816,
257,resources/videos_generated\model(tmp)-dataset(walking)-numprim(13)_final(3).mov,resources/videos_natural\training(18).mov,False,True,left,0,256,256,256,2018-09-17 16:40:49.748686,2018-09-17 16:40:53.634908,0:00:03.886222,6,right,0,0.6340335501745358,22,f,2,6,2018_Sep_17_1612,MP_PerceptionTuring2,59.961751900318816,
258,resources/videos_generated\model(vcgpdm)-dataset(walking)-mode(ELBO)-parts(1)-dyn(23)-lvm(24)_final(8).mov,resources/videos_natural\training(48).mov,True,True,left,0,257,257,257,2018-09-17 16:40:55.386008,2018-09-17 16:40:59.323234,0:00:03.937226,6,right,0,0.36720365016299183,22,f,2,6,2018_Sep_17_1612,MP_PerceptionTuring2,59.961751900318816,
259,resources/videos_generated\model(vcgpdm)-dataset(walking)-mode(ELBO)-parts(1)-dyn(23)-lvm(27)_final(7).mov,resources/videos_natural\training(14).mov,False,False,right,0,258,258,258,2018-09-17 16:41:00.807319,2018-09-17 16:41:04.811548,0:00:04.004229,6,right,1,0.2839907842426328,22,f,2,6,2018_Sep_17_1612,MP_PerceptionTuring2,59.961751900318816,
260,resources/videos_generated\model(vcgpdm)-dataset(walking)-mode(ELBO)-parts(1)-dyn(26)-lvm(27)_final(4).mov,resources/videos_natural\training(19).mov,True,True,left,0,259,259,259,2018-09-17 16:41:06.212628,2018-09-17 16:41:10.165854,0:00:03.953226,6,left,1,0.383814901819278,22,f,2,6,2018_Sep_17_1612,MP_PerceptionTuring2,59.961751900318816,
261,resources/videos_generated\model(vcgpdm)-dataset(walking)-mode(ELBO)-parts(2)-dyn(25)-lvm(20)_final(6).mov,resources/videos_natural\training(31).mov,False,False,right,0,260,260,260,2018-09-17 16:41:11.666940,2018-09-17 16:41:15.604165,0:00:03.937225,6,right,1,1.0844925310202598,22,f,2,6,2018_Sep_17_1612,MP_PerceptionTuring2,59.961751900318816,
262,resources/videos_generated\model(vcgpdm)-dataset(walking)-mode(ELBO)-parts(1)-dyn(28)-lvm(23)_final(6)_fail.mov,resources/videos_natural\training(2).mov,True,True,left,0,261,261,261,2018-09-17 16:41:17.806291,2018-09-17 16:41:21.709514,0:00:03.903223,6,left,1,0.7009531984103887,22,f,2,6,2018_Sep_17_1612,MP_PerceptionTuring2,59.961751900318816,
263,resources/videos_generated\model(vcgpdm)-dataset(walking)-mode(ELBO)-parts(1)-dyn(22)-lvm(25)_final(3).mov,resources/videos_natural\training(34).mov,True,True,left,0,262,262,262,2018-09-17 16:41:23.527618,2018-09-17 16:41:27.430841,0:00:03.903223,6,right,0,0.6341284182626623,22,f,2,6,2018_Sep_17_1612,MP_PerceptionTuring2,59.961751900318816,
264,resources/videos_generated\model(vcgpdm)-dataset(walking)-mode(ELBO)-parts(2)-dyn(26)-lvm(21)_final(8).mov,resources/videos_natural\training(37).mov,True,False,right,0,263,263,263,2018-09-17 16:41:29.181942,2018-09-17 16:41:33.137168,0:00:03.955226,6,right,1,0.6675177689430711,22,f,2,6,2018_Sep_17_1612,MP_PerceptionTuring2,59.961751900318816,
265,resources/videos_generated\model(vcgpdm)-dataset(walking)-mode(ELBO)-parts(1)-dyn(27)-lvm(28)_final(4).mov,resources/videos_natural\training(10).mov,False,False,right,0,264,264,264,2018-09-17 16:41:34.920270,2018-09-17 16:41:38.857495,0:00:03.937225,6,left,0,1.0678162269614404,22,f,2,6,2018_Sep_17_1612,MP_PerceptionTuring2,59.961751900318816,
266,resources/videos_generated\model(vcgpdm)-dataset(walking)-mode(ELBO)-parts(1)-dyn(22)-lvm(22)_final(1).mov,resources/videos_natural\training(29).mov,False,True,left,0,265,265,265,2018-09-17 16:41:41.042620,2018-09-17 16:41:44.962844,0:00:03.920224,6,left,1,0.7842094325988,22,f,2,6,2018_Sep_17_1612,MP_PerceptionTuring2,59.961751900318816,
267,resources/videos_generated\model(vcgpdm)-dataset(walking)-mode(ELBO)-parts(1)-dyn(27)-lvm(26)_final(6).mov,resources/videos_natural\training(37).mov,True,True,left,0,266,266,266,2018-09-17 16:41:46.863953,2018-09-17 16:41:50.784177,0:00:03.920224,6,left,1,0.30049993976626865,22,f,2,6,2018_Sep_17_1612,MP_PerceptionTuring2,59.961751900318816,
268,resources/videos_generated\model(vcgpdm)-dataset(walking)-mode(ELBO)-parts(2)-dyn(27)-lvm(20)_final(0).mov,resources/videos_natural\training(8).mov,True,False,right,0,267,267,267,2018-09-17 16:41:52.202258,2018-09-17 16:41:56.205487,0:00:04.003229,6,left,0,0.9010074087454996,22,f,2,6,2018_Sep_17_1612,MP_PerceptionTuring2,59.961751900318816,
269,resources/videos_generated\model(vcgpdm)-dataset(walking)-mode(ELBO)-parts(2)-dyn(24)-lvm(17)_final(8).mov,resources/videos_natural\training(20).mov,False,True,left,0,268,268,268,2018-09-17 16:41:58.223603,2018-09-17 16:42:02.327837,0:00:04.104234,6,right,0,2.585668594145318,22,f,2,6,2018_Sep_17_1612,MP_PerceptionTuring2,59.961751900318816,
270,resources/videos_generated\model(vcgpdm)-dataset(walking)-mode(ELBO)-parts(1)-dyn(24)-lvm(27)_final(1).mov,resources/videos_natural\training(44).mov,False,False,right,0,269,269,269,2018-09-17 16:42:06.031049,2018-09-17 16:42:09.934272,0:00:03.903223,6,right,1,0.9009836164314038,22,f,2,6,2018_Sep_17_1612,MP_PerceptionTuring2,59.961751900318816,
271,resources/videos_generated\model(vcgpdm)-dataset(walking)-mode(ELBO)-parts(2)-dyn(24)-lvm(17)_final(6).mov,resources/videos_natural\training(33).mov,False,False,right,0,270,270,270,2018-09-17 16:42:43.780208,2018-09-17 16:42:47.716433,0:00:03.936225,7,right,1,0.38393326105324377,22,f,2,6,2018_Sep_17_1612,MP_PerceptionTuring2,59.961751900318816,
272,resources/videos_generated\model(dmp)-dataset(walking)-npsi(60)_final(5).mov,resources/videos_natural\training(38).mov,True,False,right,0,271,271,271,2018-09-17 16:42:49.218519,2018-09-17 16:42:53.138744,0:00:03.920225,7,right,1,0.26702144319915533,22,f,2,6,2018_Sep_17_1612,MP_PerceptionTuring2,59.961751900318816,
273,resources/videos_generated\model(vcgpdm)-dataset(walking)-mode(ELBO)-parts(2)-dyn(28)-lvm(21)_final(6).mov,resources/videos_natural\training(45).mov,True,True,left,0,272,272,272,2018-09-17 16:42:54.525823,2018-09-17 16:42:58.459048,0:00:03.933225,7,left,1,0.26701210697501665,22,f,2,6,2018_Sep_17_1612,MP_PerceptionTuring2,59.961751900318816,
274,resources/videos_generated\model(vcgpdm)-dataset(walking)-mode(ELBO)-parts(1)-dyn(25)-lvm(28)_final(3).mov,resources/videos_natural\training(32).mov,True,True,left,0,273,273,273,2018-09-17 16:42:59.844127,2018-09-17 16:43:03.830355,0:00:03.986228,7,left,1,0.30054059751819295,22,f,2,6,2018_Sep_17_1612,MP_PerceptionTuring2,59.961751900318816,
275,resources/videos_generated\model(vcgpdm)-dataset(walking)-mode(ELBO)-parts(2)-dyn(24)-lvm(19)_final(0).mov,resources/videos_natural\training(36).mov,False,True,left,0,274,274,274,2018-09-17 16:43:05.248436,2018-09-17 16:43:09.151659,0:00:03.903223,7,left,1,0.45064540416842647,22,f,2,6,2018_Sep_17_1612,MP_PerceptionTuring2,59.961751900318816,
276,resources/videos_generated\model(vcgpdm)-dataset(walking)-mode(ELBO)-parts(2)-dyn(22)-lvm(21)_final(0).mov,resources/videos_natural\training(10).mov,True,False,right,0,275,275,275,2018-09-17 16:43:10.719749,2018-09-17 16:43:14.689976,0:00:03.970227,7,right,1,0.25055776412500563,22,f,2,6,2018_Sep_17_1612,MP_PerceptionTuring2,59.961751900318816,
277,resources/videos_generated\model(vcgpdm)-dataset(walking)-mode(ELBO)-parts(1)-dyn(26)-lvm(27)_final(6).mov,resources/videos_natural\training(8).mov,True,True,left,0,276,276,276,2018-09-17 16:43:16.058054,2018-09-17 16:43:20.011281,0:00:03.953227,7,right,0,0.36723165883631737,22,f,2,6,2018_Sep_17_1612,MP_PerceptionTuring2,59.961751900318816,
278,resources/videos_generated\model(dmp)-dataset(walking)-npsi(60)_final(3).mov,resources/videos_natural\training(5).mov,True,False,right,0,277,277,277,2018-09-17 16:43:21.496366,2018-09-17 16:43:25.416590,0:00:03.920224,7,right,1,0.2504990362604076,22,f,2,6,2018_Sep_17_1612,MP_PerceptionTuring2,59.961751900318816,
279,resources/videos_generated\model(vcgpdm)-dataset(walking)-mode(ELBO)-parts(1)-dyn(24)-lvm(25)_final(1).mov,resources/videos_natural\training(34).mov,False,True,left,0,278,278,278,2018-09-17 16:43:26.783668,2018-09-17 16:43:30.720893,0:00:03.937225,7,right,0,0.3005664980128131,22,f,2,6,2018_Sep_17_1612,MP_PerceptionTuring2,59.961751900318816,
280,resources/videos_generated\model(vcgpdm)-dataset(walking)-mode(ELBO)-parts(1)-dyn(24)-lvm(25)_final(3).mov,resources/videos_natural\training(19).mov,True,False,right,0,279,279,279,2018-09-17 16:43:32.138974,2018-09-17 16:43:36.042198,0:00:03.903224,7,right,1,0.46709131429997797,22,f,2,6,2018_Sep_17_1612,MP_PerceptionTuring2,59.961751900318816,
281,resources/videos_generated\model(vcgpdm)-dataset(walking)-mode(ELBO)-parts(1)-dyn(25)-lvm(22)_final(9).mov,resources/videos_natural\training(13).mov,True,True,left,0,280,280,280,2018-09-17 16:43:37.626288,2018-09-17 16:43:41.763525,0:00:04.137237,7,left,1,0.6673771232381114,22,f,2,6,2018_Sep_17_1612,MP_PerceptionTuring2,59.961751900318816,
282,resources/videos_generated\model(vcgpdm)-dataset(walking)-mode(ELBO)-parts(1)-dyn(25)-lvm(22)_final(7).mov,resources/videos_natural\training(2).mov,False,False,right,0,281,281,281,2018-09-17 16:43:43.548627,2018-09-17 16:43:47.434849,0:00:03.886222,7,right,1,0.4004878930254563,22,f,2,6,2018_Sep_17_1612,MP_PerceptionTuring2,59.961751900318816,
283,resources/videos_generated\model(vcgpdm)-dataset(walking)-mode(ELBO)-parts(2)-dyn(28)-lvm(21)_final(8).mov,resources/videos_natural\training(42).mov,False,False,right,0,282,282,282,2018-09-17 16:43:48.952936,2018-09-17 16:43:52.873160,0:00:03.920224,7,right,1,0.2506890736058267,22,f,2,6,2018_Sep_17_1612,MP_PerceptionTuring2,59.961751900318816,
284,resources/videos_generated\model(vcgpdm)-dataset(walking)-mode(ELBO)-parts(2)-dyn(22)-lvm(19)_final(6).mov,resources/videos_natural\training(13).mov,True,False,right,0,283,283,283,2018-09-17 16:43:54.241238,2018-09-17 16:43:58.144462,0:00:03.903224,7,right,1,0.41728406216134317,22,f,2,6,2018_Sep_17_1612,MP_PerceptionTuring2,59.961751900318816,
285,resources/videos_generated\model(vcgpdm)-dataset(walking)-mode(ELBO)-parts(1)-dyn(27)-lvm(24)_final(2).mov,resources/videos_natural\training(2).mov,True,False,right,0,284,284,284,2018-09-17 16:43:59.678549,2018-09-17 16:44:03.615775,0:00:03.937226,7,right,1,0.33370316829314106,22,f,2,6,2018_Sep_17_1612,MP_PerceptionTuring2,59.961751900318816,
286,resources/videos_generated\model(vcgpdm)-dataset(walking)-mode(ELBO)-parts(2)-dyn(22)-lvm(23)_final(8).mov,resources/videos_natural\training(45).mov,True,False,right,0,285,285,285,2018-09-17 16:44:05.066858,2018-09-17 16:44:09.154091,0:00:04.087233,7,right,1,1.2512447295512175,22,f,2,6,2018_Sep_17_1612,MP_PerceptionTuring2,59.961751900318816,
287,resources/videos_generated\model(vcgpdm)-dataset(walking)-mode(ELBO)-parts(1)-dyn(23)-lvm(22)_final(0).mov,resources/videos_natural\training(21).mov,False,False,right,0,286,286,286,2018-09-17 16:44:11.522227,2018-09-17 16:44:15.526456,0:00:04.004229,7,left,0,0.3006176966628118,22,f,2,6,2018_Sep_17_1612,MP_PerceptionTuring2,59.961751900318816,
288,resources/videos_generated\model(vcgpdm)-dataset(walking)-mode(ELBO)-parts(1)-dyn(27)-lvm(22)_final(4).mov,resources/videos_natural\training(26).mov,True,True,left,0,287,287,287,2018-09-17 16:44:16.943537,2018-09-17 16:44:20.863761,0:00:03.920224,7,left,1,0.3004445247561307,22,f,2,6,2018_Sep_17_1612,MP_PerceptionTuring2,59.961751900318816,
289,resources/videos_generated\model(vcgpdm)-dataset(walking)-mode(ELBO)-parts(1)-dyn(23)-lvm(22)_final(8)_fail.mov,resources/videos_natural\training(10).mov,False,True,left,0,288,288,288,2018-09-17 16:44:22.281842,2018-09-17 16:44:26.269070,0:00:03.987228,7,left,1,0.38377936393226264,22,f,2,6,2018_Sep_17_1612,MP_PerceptionTuring2,59.961751900318816,
290,resources/videos_generated\model(dmp)-dataset(walking)-npsi(100)_final(7).mov,resources/videos_natural\training(16).mov,False,False,right,0,289,289,289,2018-09-17 16:44:27.770156,2018-09-17 16:44:31.673379,0:00:03.903223,7,right,1,0.2504243464645697,22,f,2,6,2018_Sep_17_1612,MP_PerceptionTuring2,59.961751900318816,
291,resources/videos_generated\model(vcgpdm)-dataset(walking)-mode(ELBO)-parts(2)-dyn(25)-lvm(22)_final(4).mov,resources/videos_natural\training(28).mov,True,False,right,0,290,290,290,2018-09-17 16:44:33.041458,2018-09-17 16:44:37.011685,0:00:03.970227,7,left,0,0.30067762920134555,22,f,2,6,2018_Sep_17_1612,MP_PerceptionTuring2,59.961751900318816,
