n_trial,mov_file_generated,mov_file_natural,mirrored,switch_stim_pos,correct_answer,trials.thisRepN,trials.thisTrialN,trials.thisN,trials.thisIndex,stimulus_onset,stimulus_off,stimulus_length,block,response.keys,response.corr,response.rt,age,gender,condition,participant,date,expName,frameRate,
1,resources/videos_generated\model(vcgpdm)-dataset(walking)-mode(ELBO)-parts(2)-dyn(25)-lvm(22)_final(5).mov,resources/videos_natural\training(31).mov,False,False,right,0,0,0,0,2018-09-18 09:26:24.945098,2018-09-18 09:26:29.633366,0:00:04.688268,1,left,0,1.6849297369576561,26,m,1,7,2018_Sep_18_0924,MP_PerceptionTuring2,59.949590331182236,
2,resources/videos_generated\model(tmp)-dataset(walking)-numprim(11)_final(8).mov,resources/videos_natural\training(9).mov,True,True,left,0,1,1,1,2018-09-18 09:26:32.435526,2018-09-18 09:26:36.388752,0:00:03.953226,1,right,0,1.2012037778808917,26,m,1,7,2018_Sep_18_0924,MP_PerceptionTuring2,59.949590331182236,
3,resources/videos_generated\model(vcgpdm)-dataset(walking)-mode(ELBO)-parts(1)-dyn(24)-lvm(25)_final(0).mov,resources/videos_natural\training(3).mov,False,True,left,0,2,2,2,2018-09-18 09:26:38.707885,2018-09-18 09:26:42.661111,0:00:03.953226,1,right,0,0.7341436823496679,26,m,1,7,2018_Sep_18_0924,MP_PerceptionTuring2,59.949590331182236,
4,resources/videos_generated\model(vcgpdm)-dataset(walking)-mode(ELBO)-parts(2)-dyn(28)-lvm(17)_final(5).mov,resources/videos_natural\training(42).mov,True,False,right,0,3,3,3,2018-09-18 09:26:44.512217,2018-09-18 09:26:48.449442,0:00:03.937225,1,right,1,1.3179693288118415,26,m,1,7,2018_Sep_18_0924,MP_PerceptionTuring2,59.949590331182236,
5,resources/videos_generated\model(vcgpdm)-dataset(walking)-mode(ELBO)-parts(1)-dyn(26)-lvm(23)_final(5).mov,resources/videos_natural\training(24).mov,False,False,right,0,4,4,4,2018-09-18 09:26:50.884581,2018-09-18 09:26:54.971815,0:00:04.087234,1,right,1,0.600683054349247,26,m,1,7,2018_Sep_18_0924,MP_PerceptionTuring2,59.949590331182236,
6,resources/videos_generated\model(vcgpdm)-dataset(walking)-mode(ELBO)-parts(1)-dyn(26)-lvm(25)_final(7).mov,resources/videos_natural\training(34).mov,False,True,left,0,5,5,5,2018-09-18 09:26:56.689913,2018-09-18 09:27:00.610138,0:00:03.920225,1,left,1,1.1678325974739892,26,m,1,7,2018_Sep_18_0924,MP_PerceptionTuring2,59.949590331182236,
7,resources/videos_generated\model(vcgpdm)-dataset(walking)-mode(ELBO)-parts(1)-dyn(23)-lvm(26)_final(1)_hip-corrected.mov,resources/videos_natural\training(23).mov,True,True,left,0,6,6,6,2018-09-18 09:27:02.895268,2018-09-18 09:27:06.831494,0:00:03.936226,1,left,1,0.7508197856870993,26,m,1,7,2018_Sep_18_0924,MP_PerceptionTuring2,59.949590331182236,
8,resources/videos_generated\model(vcgpdm)-dataset(walking)-mode(ELBO)-parts(2)-dyn(23)-lvm(20)_final(3).mov,resources/videos_natural\training(43).mov,True,False,right,0,7,7,7,2018-09-18 09:27:08.699600,2018-09-18 09:27:12.636826,0:00:03.937226,1,right,1,1.551483565134049,26,m,1,7,2018_Sep_18_0924,MP_PerceptionTuring2,59.949590331182236,
9,resources/videos_generated\model(tmp)-dataset(walking)-numprim(13)_final(6).mov,resources/videos_natural\training(10).mov,True,False,right,0,8,8,8,2018-09-18 09:27:15.305978,2018-09-18 09:27:19.242203,0:00:03.936225,1,left,0,0.5171733355821289,26,m,1,7,2018_Sep_18_0924,MP_PerceptionTuring2,59.949590331182236,
10,resources/videos_generated\model(vcgpdm)-dataset(walking)-mode(ELBO)-parts(1)-dyn(25)-lvm(26)_final(0).mov,resources/videos_natural\training(48).mov,False,False,right,0,9,9,9,2018-09-18 09:27:20.877297,2018-09-18 09:27:24.997533,0:00:04.120236,1,right,1,0.7007779230086726,26,m,1,7,2018_Sep_18_0924,MP_PerceptionTuring2,59.949590331182236,
11,resources/videos_generated\model(vcgpdm)-dataset(walking)-mode(ELBO)-parts(1)-dyn(27)-lvm(24)_final(5).mov,resources/videos_natural\training(23).mov,False,False,right,0,10,10,10,2018-09-18 09:27:26.815637,2018-09-18 09:27:30.785864,0:00:03.970227,1,right,1,1.1011185466725237,26,m,1,7,2018_Sep_18_0924,MP_PerceptionTuring2,59.949590331182236,
12,resources/videos_generated\model(vcgpdm)-dataset(walking)-mode(ELBO)-parts(2)-dyn(26)-lvm(23)_final(7).mov,resources/videos_natural\training(29).mov,False,False,right,0,11,11,11,2018-09-18 09:27:33.003991,2018-09-18 09:27:36.941216,0:00:03.937225,1,right,1,1.1177768809593545,26,m,1,7,2018_Sep_18_0924,MP_PerceptionTuring2,59.949590331182236,
13,resources/videos_generated\model(dmp)-dataset(walking)-npsi(50)_final(2).mov,resources/videos_natural\training(43).mov,False,True,left,0,12,12,12,2018-09-18 09:27:39.176344,2018-09-18 09:27:43.129570,0:00:03.953226,1,left,1,1.5681777386926115,26,m,1,7,2018_Sep_18_0924,MP_PerceptionTuring2,59.949590331182236,
14,resources/videos_generated\model(vcgpdm)-dataset(walking)-mode(ELBO)-parts(1)-dyn(26)-lvm(25)_final(1).mov,resources/videos_natural\training(13).mov,True,True,left,0,13,13,13,2018-09-18 09:27:45.815723,2018-09-18 09:27:49.751948,0:00:03.936225,1,right,0,0.5172718182859626,26,m,1,7,2018_Sep_18_0924,MP_PerceptionTuring2,59.949590331182236,
15,resources/videos_generated\model(vcgpdm)-dataset(walking)-mode(ELBO)-parts(2)-dyn(26)-lvm(17)_final(1).mov,resources/videos_natural\training(18).mov,True,False,right,0,14,14,14,2018-09-18 09:27:51.387042,2018-09-18 09:27:55.524279,0:00:04.137237,1,left,0,1.0510553008994066,26,m,1,7,2018_Sep_18_0924,MP_PerceptionTuring2,59.949590331182236,
16,resources/videos_generated\model(vcgpdm)-dataset(walking)-mode(ELBO)-parts(2)-dyn(28)-lvm(17)_final(7).mov,resources/videos_natural\training(21).mov,True,True,left,0,15,15,15,2018-09-18 09:27:57.692403,2018-09-18 09:28:01.629628,0:00:03.937225,1,left,1,0.4006505279517114,26,m,1,7,2018_Sep_18_0924,MP_PerceptionTuring2,59.949590331182236,
17,resources/videos_generated\model(dmp)-dataset(walking)-npsi(100)_final(8).mov,resources/videos_natural\training(35).mov,True,True,left,0,16,16,16,2018-09-18 09:28:03.146715,2018-09-18 09:28:07.233948,0:00:04.087233,1,left,1,0.7339973135603941,26,m,1,7,2018_Sep_18_0924,MP_PerceptionTuring2,59.949590331182236,
18,resources/videos_generated\model(vcgpdm)-dataset(walking)-mode(ELBO)-parts(1)-dyn(24)-lvm(23)_final(8).mov,resources/videos_natural\training(25).mov,False,True,left,0,17,17,17,2018-09-18 09:28:09.085054,2018-09-18 09:28:13.039280,0:00:03.954226,1,right,0,0.3505481300333031,26,m,1,7,2018_Sep_18_0924,MP_PerceptionTuring2,59.949590331182236,
19,resources/videos_generated\model(vcgpdm)-dataset(walking)-mode(ELBO)-parts(2)-dyn(26)-lvm(19)_final(7).mov,resources/videos_natural\training(40).mov,True,False,right,0,18,18,18,2018-09-18 09:28:14.507364,2018-09-18 09:28:18.443589,0:00:03.936225,1,right,1,1.167830790451717,26,m,1,7,2018_Sep_18_0924,MP_PerceptionTuring2,59.949590331182236,
20,resources/videos_generated\model(vcgpdm)-dataset(walking)-mode(ELBO)-parts(1)-dyn(22)-lvm(27)_final(0)_hip-correted.mov,resources/videos_natural\training(30).mov,False,True,left,0,19,19,19,2018-09-18 09:28:20.728720,2018-09-18 09:28:24.648944,0:00:03.920224,1,left,1,0.35048729362301856,26,m,1,7,2018_Sep_18_0924,MP_PerceptionTuring2,59.949590331182236,
21,resources/videos_generated\model(vcgpdm)-dataset(walking)-mode(ELBO)-parts(2)-dyn(22)-lvm(21)_final(1).mov,resources/videos_natural\training(39).mov,False,True,left,0,20,20,20,2018-09-18 09:28:26.117028,2018-09-18 09:28:30.053254,0:00:03.936226,1,left,1,0.46724862816904533,26,m,1,7,2018_Sep_18_0924,MP_PerceptionTuring2,59.949590331182236,
22,resources/videos_generated\model(vcgpdm)-dataset(walking)-mode(ELBO)-parts(1)-dyn(23)-lvm(27)_final(2).mov,resources/videos_natural\training(20).mov,True,False,right,0,21,21,21,2018-09-18 09:28:31.638344,2018-09-18 09:28:35.758580,0:00:04.120236,1,right,1,0.31719682686912165,26,m,1,7,2018_Sep_18_0924,MP_PerceptionTuring2,59.949590331182236,
23,resources/videos_generated\model(vcgpdm)-dataset(walking)-mode(ELBO)-parts(2)-dyn(22)-lvm(17)_final(3).mov,resources/videos_natural\training(33).mov,False,True,left,0,22,22,22,2018-09-18 09:28:37.193662,2018-09-18 09:28:41.279896,0:00:04.086234,1,right,0,0.28372053801081165,26,m,1,7,2018_Sep_18_0924,MP_PerceptionTuring2,59.949590331182236,
24,resources/videos_generated\model(vcgpdm)-dataset(walking)-mode(ELBO)-parts(1)-dyn(25)-lvm(22)_final(6).mov,resources/videos_natural\training(46).mov,False,False,right,0,23,23,23,2018-09-18 09:28:42.680976,2018-09-18 09:28:46.801211,0:00:04.120235,1,right,1,0.26706340840496523,26,m,1,7,2018_Sep_18_0924,MP_PerceptionTuring2,59.949590331182236,
25,resources/videos_generated\model(dmp)-dataset(walking)-npsi(70)_final(4).mov,resources/videos_natural\training(24).mov,False,False,right,0,24,24,24,2018-09-18 09:28:48.186291,2018-09-18 09:28:52.122516,0:00:03.936225,1,right,1,1.1178295857703233,26,m,1,7,2018_Sep_18_0924,MP_PerceptionTuring2,59.949590331182236,
26,resources/videos_generated\model(vcgpdm)-dataset(walking)-mode(ELBO)-parts(2)-dyn(28)-lvm(21)_final(3).mov,resources/videos_natural\training(12).mov,False,False,right,0,25,25,25,2018-09-18 09:28:54.357644,2018-09-18 09:28:58.294869,0:00:03.937225,1,left,0,0.3004330829603532,26,m,1,7,2018_Sep_18_0924,MP_PerceptionTuring2,59.949590331182236,
27,resources/videos_generated\model(tmp)-dataset(walking)-numprim(13)_final(0).mov,resources/videos_natural\training(16).mov,False,False,right,0,26,26,26,2018-09-18 09:28:59.712950,2018-09-18 09:29:03.716179,0:00:04.003229,1,left,0,0.6507258205385824,26,m,1,7,2018_Sep_18_0924,MP_PerceptionTuring2,59.949590331182236,
28,resources/videos_generated\model(vcgpdm)-dataset(walking)-mode(ELBO)-parts(2)-dyn(22)-lvm(17)_final(9).mov,resources/videos_natural\training(46).mov,False,False,right,0,27,27,27,2018-09-18 09:29:05.484280,2018-09-18 09:29:09.404504,0:00:03.920224,1,right,1,0.4839301525728388,26,m,1,7,2018_Sep_18_0924,MP_PerceptionTuring2,59.949590331182236,
29,resources/videos_generated\model(vcgpdm)-dataset(walking)-mode(ELBO)-parts(1)-dyn(24)-lvm(25)_final(2).mov,resources/videos_natural\training(25).mov,False,False,right,0,28,28,28,2018-09-18 09:29:11.005596,2018-09-18 09:29:14.942821,0:00:03.937225,1,left,0,1.23455839391886,26,m,1,7,2018_Sep_18_0924,MP_PerceptionTuring2,59.949590331182236,
30,resources/videos_generated\model(vcgpdm)-dataset(walking)-mode(ELBO)-parts(1)-dyn(22)-lvm(25)_final(2).mov,resources/videos_natural\training(18).mov,False,False,right,0,29,29,29,2018-09-18 09:29:17.294956,2018-09-18 09:29:21.231181,0:00:03.936225,1,right,1,0.3171889964401089,26,m,1,7,2018_Sep_18_0924,MP_PerceptionTuring2,59.949590331182236,
31,resources/videos_generated\model(vcgpdm)-dataset(walking)-mode(ELBO)-parts(1)-dyn(25)-lvm(22)_final(8).mov,resources/videos_natural\training(5).mov,False,True,left,0,30,30,30,2018-09-18 09:29:22.666263,2018-09-18 09:29:26.769498,0:00:04.103235,1,left,1,0.4673995145133176,26,m,1,7,2018_Sep_18_0924,MP_PerceptionTuring2,59.949590331182236,
32,resources/videos_generated\model(tmp)-dataset(walking)-numprim(14)_final(2).mov,resources/videos_natural\training(19).mov,False,True,left,0,31,31,31,2018-09-18 09:29:28.353588,2018-09-18 09:29:32.273812,0:00:03.920224,1,left,1,0.8842602352742688,26,m,1,7,2018_Sep_18_0924,MP_PerceptionTuring2,59.949590331182236,
33,resources/videos_generated\model(vcgpdm)-dataset(walking)-mode(ELBO)-parts(2)-dyn(28)-lvm(21)_final(1).mov,resources/videos_natural\training(21).mov,True,False,right,0,32,32,32,2018-09-18 09:29:34.275927,2018-09-18 09:29:38.229153,0:00:03.953226,1,right,1,0.3671489407838635,26,m,1,7,2018_Sep_18_0924,MP_PerceptionTuring2,59.949590331182236,
34,resources/videos_generated\model(vcgpdm)-dataset(walking)-mode(ELBO)-parts(2)-dyn(25)-lvm(22)_final(7).mov,resources/videos_natural\training(33).mov,True,True,left,0,33,33,33,2018-09-18 09:29:39.714238,2018-09-18 09:29:43.650463,0:00:03.936225,1,left,1,0.650755034062513,26,m,1,7,2018_Sep_18_0924,MP_PerceptionTuring2,59.949590331182236,
35,resources/videos_generated\model(vcgpdm)-dataset(walking)-mode(ELBO)-parts(1)-dyn(26)-lvm(22)_final(7).mov,resources/videos_natural\training(3).mov,True,False,right,0,34,34,34,2018-09-18 09:29:45.418564,2018-09-18 09:29:49.338788,0:00:03.920224,1,right,1,0.5005990278220906,26,m,1,7,2018_Sep_18_0924,MP_PerceptionTuring2,59.949590331182236,
36,resources/videos_generated\model(vcgpdm)-dataset(walking)-mode(ELBO)-parts(2)-dyn(23)-lvm(18)_final(3).mov,resources/videos_natural\training(4).mov,False,True,left,0,35,35,35,2018-09-18 09:29:50.956881,2018-09-18 09:29:55.077117,0:00:04.120236,1,left,1,0.5006080629325425,26,m,1,7,2018_Sep_18_0924,MP_PerceptionTuring2,59.949590331182236,
37,resources/videos_generated\model(vcgpdm)-dataset(walking)-mode(ELBO)-parts(2)-dyn(26)-lvm(21)_final(3).mov,resources/videos_natural\training(43).mov,True,False,right,0,36,36,36,2018-09-18 09:29:56.695209,2018-09-18 09:30:00.682437,0:00:03.987228,1,left,0,0.7174730000783711,26,m,1,7,2018_Sep_18_0924,MP_PerceptionTuring2,59.949590331182236,
38,resources/videos_generated\model(vcgpdm)-dataset(walking)-mode(ELBO)-parts(2)-dyn(24)-lvm(17)_final(9).mov,resources/videos_natural\training(8).mov,False,False,right,0,37,37,37,2018-09-18 09:30:02.516542,2018-09-18 09:30:06.620777,0:00:04.104235,1,right,1,0.45056348972093474,26,m,1,7,2018_Sep_18_0924,MP_PerceptionTuring2,59.949590331182236,
39,resources/videos_generated\model(vcgpdm)-dataset(walking)-mode(ELBO)-parts(2)-dyn(28)-lvm(19)_final(5).mov,resources/videos_natural\training(28).mov,True,True,left,0,38,38,38,2018-09-18 09:30:08.188867,2018-09-18 09:30:12.309102,0:00:04.120235,1,left,1,0.23371602045540385,26,m,1,7,2018_Sep_18_0924,MP_PerceptionTuring2,59.949590331182236,
40,resources/videos_generated\model(vcgpdm)-dataset(walking)-mode(ELBO)-parts(1)-dyn(23)-lvm(24)_final(5).mov,resources/videos_natural\training(18).mov,True,False,right,0,39,39,39,2018-09-18 09:30:13.660180,2018-09-18 09:30:17.596405,0:00:03.936225,1,right,1,0.4007011245701051,26,m,1,7,2018_Sep_18_0924,MP_PerceptionTuring2,59.949590331182236,
41,resources/videos_generated\model(vcgpdm)-dataset(walking)-mode(ELBO)-parts(1)-dyn(23)-lvm(22)_final(5)_fail.mov,resources/videos_natural\training(38).mov,False,True,left,0,40,40,40,2018-09-18 09:30:19.114491,2018-09-18 09:30:23.051717,0:00:03.937226,1,left,1,1.0844505749341806,26,m,1,7,2018_Sep_18_0924,MP_PerceptionTuring2,59.949590331182236,
42,resources/videos_generated\model(vcgpdm)-dataset(walking)-mode(ELBO)-parts(1)-dyn(25)-lvm(28)_final(2).mov,resources/videos_natural\training(29).mov,True,False,right,0,41,41,41,2018-09-18 09:30:25.252843,2018-09-18 09:30:29.173067,0:00:03.920224,1,right,1,1.2846017624490287,26,m,1,7,2018_Sep_18_0924,MP_PerceptionTuring2,59.949590331182236,
43,resources/videos_generated\model(vcgpdm)-dataset(walking)-mode(ELBO)-parts(1)-dyn(23)-lvm(26)_final(3)_hip-corrected.mov,resources/videos_natural\training(27).mov,True,True,left,0,42,42,42,2018-09-18 09:30:31.575204,2018-09-18 09:30:35.512429,0:00:03.937225,1,left,1,0.3171031628910441,26,m,1,7,2018_Sep_18_0924,MP_PerceptionTuring2,59.949590331182236,
44,resources/videos_generated\model(vcgpdm)-dataset(walking)-mode(ELBO)-parts(2)-dyn(25)-lvm(18)_final(9).mov,resources/videos_natural\training(37).mov,False,False,right,0,43,43,43,2018-09-18 09:30:36.946511,2018-09-18 09:30:40.883737,0:00:03.937226,1,right,1,0.36716098759779925,26,m,1,7,2018_Sep_18_0924,MP_PerceptionTuring2,59.949590331182236,
45,resources/videos_generated\model(vcgpdm)-dataset(walking)-mode(ELBO)-parts(1)-dyn(22)-lvm(27)_final(6)_fail.mov,resources/videos_natural\training(31).mov,True,True,left,0,44,44,44,2018-09-18 09:30:42.367821,2018-09-18 09:30:46.322048,0:00:03.954227,1,left,1,0.35059842548139386,26,m,1,7,2018_Sep_18_0924,MP_PerceptionTuring2,59.949590331182236,
46,resources/videos_generated\model(vcgpdm)-dataset(walking)-mode(ELBO)-parts(1)-dyn(25)-lvm(22)_final(4).mov,resources/videos_natural\training(11).mov,False,True,left,0,45,45,45,2018-09-18 09:31:27.357395,2018-09-18 09:31:31.460629,0:00:04.103234,2,left,1,0.2670724435156444,26,m,1,7,2018_Sep_18_0924,MP_PerceptionTuring2,59.949590331182236,
47,resources/videos_generated\model(vcgpdm)-dataset(walking)-mode(ELBO)-parts(1)-dyn(26)-lvm(27)_final(9).mov,resources/videos_natural\training(6).mov,False,True,left,0,46,46,46,2018-09-18 09:31:32.844709,2018-09-18 09:31:36.898940,0:00:04.054231,2,left,1,0.5005993289923936,26,m,1,7,2018_Sep_18_0924,MP_PerceptionTuring2,59.949590331182236,
48,resources/videos_generated\model(dmp)-dataset(walking)-npsi(100)_final(4).mov,resources/videos_natural\training(12).mov,False,False,right,0,47,47,47,2018-09-18 09:31:38.517033,2018-09-18 09:31:42.487260,0:00:03.970227,2,left,0,0.6007216041537049,26,m,1,7,2018_Sep_18_0924,MP_PerceptionTuring2,59.949590331182236,
49,resources/videos_generated\model(vcgpdm)-dataset(walking)-mode(ELBO)-parts(1)-dyn(22)-lvm(23)_final(8).mov,resources/videos_natural\training(35).mov,False,False,right,0,48,48,48,2018-09-18 09:31:44.205358,2018-09-18 09:31:48.124583,0:00:03.919225,2,right,1,0.25035929622526965,26,m,1,7,2018_Sep_18_0924,MP_PerceptionTuring2,59.949590331182236,
50,resources/videos_generated\model(vcgpdm)-dataset(walking)-mode(ELBO)-parts(2)-dyn(22)-lvm(23)_final(7).mov,resources/videos_natural\training(29).mov,False,False,right,0,49,49,49,2018-09-18 09:31:49.492661,2018-09-18 09:31:53.412885,0:00:03.920224,2,right,1,0.3004327817900503,26,m,1,7,2018_Sep_18_0924,MP_PerceptionTuring2,59.949590331182236,
51,resources/videos_generated\model(vcgpdm)-dataset(walking)-mode(ELBO)-parts(2)-dyn(27)-lvm(20)_final(9).mov,resources/videos_natural\training(39).mov,False,False,right,0,50,50,50,2018-09-18 09:31:54.830966,2018-09-18 09:31:58.784192,0:00:03.953226,2,right,1,0.2503397201523967,26,m,1,7,2018_Sep_18_0924,MP_PerceptionTuring2,59.949590331182236,
52,resources/videos_generated\model(vcgpdm)-dataset(walking)-mode(ELBO)-parts(1)-dyn(23)-lvm(26)_final(9).mov,resources/videos_natural\training(9).mov,True,False,right,0,51,51,51,2018-09-18 09:32:00.152271,2018-09-18 09:32:04.072495,0:00:03.920224,2,left,0,0.3004644046766316,26,m,1,7,2018_Sep_18_0924,MP_PerceptionTuring2,59.949590331182236,
53,resources/videos_generated\model(vcgpdm)-dataset(walking)-mode(ELBO)-parts(1)-dyn(22)-lvm(27)_final(4)_fail.mov,resources/videos_natural\training(13).mov,True,False,right,0,52,52,52,2018-09-18 09:32:05.489576,2018-09-18 09:32:09.426801,0:00:03.937225,2,right,1,0.2336705437328419,26,m,1,7,2018_Sep_18_0924,MP_PerceptionTuring2,59.949590331182236,
54,resources/videos_generated\model(vcgpdm)-dataset(walking)-mode(ELBO)-parts(1)-dyn(24)-lvm(27)_final(0).mov,resources/videos_natural\training(41).mov,True,False,right,0,53,53,53,2018-09-18 09:32:10.777878,2018-09-18 09:32:14.798108,0:00:04.020230,2,right,1,0.3337880001686244,26,m,1,7,2018_Sep_18_0924,MP_PerceptionTuring2,59.949590331182236,
55,resources/videos_generated\model(vcgpdm)-dataset(walking)-mode(ELBO)-parts(2)-dyn(22)-lvm(23)_final(3).mov,resources/videos_natural\training(7).mov,True,False,right,0,54,54,54,2018-09-18 09:32:16.249191,2018-09-18 09:32:20.269421,0:00:04.020230,2,right,1,0.2670799727741269,26,m,1,7,2018_Sep_18_0924,MP_PerceptionTuring2,59.949590331182236,
56,resources/videos_generated\model(vcgpdm)-dataset(walking)-mode(ELBO)-parts(2)-dyn(27)-lvm(18)_final(3).mov,resources/videos_natural\training(17).mov,False,True,left,0,55,55,55,2018-09-18 09:32:21.653500,2018-09-18 09:32:25.607726,0:00:03.954226,2,left,1,0.5673456050212735,26,m,1,7,2018_Sep_18_0924,MP_PerceptionTuring2,59.949590331182236,
57,resources/videos_generated\model(dmp)-dataset(walking)-npsi(70)_final(8).mov,resources/videos_natural\training(32).mov,False,False,right,0,56,56,56,2018-09-18 09:32:27.291823,2018-09-18 09:32:31.429059,0:00:04.137236,2,right,1,0.7508249055831584,26,m,1,7,2018_Sep_18_0924,MP_PerceptionTuring2,59.949590331182236,
58,resources/videos_generated\model(vcgpdm)-dataset(walking)-mode(ELBO)-parts(1)-dyn(25)-lvm(24)_final(3).mov,resources/videos_natural\training(32).mov,True,True,left,0,57,57,57,2018-09-18 09:32:33.297166,2018-09-18 09:32:37.217391,0:00:03.920225,2,left,1,1.6515733138978703,26,m,1,7,2018_Sep_18_0924,MP_PerceptionTuring2,59.949590331182236,
59,resources/videos_generated\model(vcgpdm)-dataset(walking)-mode(ELBO)-parts(1)-dyn(22)-lvm(25)_final(6).mov,resources/videos_natural\training(36).mov,False,True,left,0,58,58,58,2018-09-18 09:32:39.986549,2018-09-18 09:32:43.956776,0:00:03.970227,2,left,1,0.4004900041561541,26,m,1,7,2018_Sep_18_0924,MP_PerceptionTuring2,59.949590331182236,
60,resources/videos_generated\model(vcgpdm)-dataset(walking)-mode(ELBO)-parts(1)-dyn(25)-lvm(28)_final(4).mov,resources/videos_natural\training(8).mov,True,True,left,0,59,59,59,2018-09-18 09:32:45.474863,2018-09-18 09:32:49.445090,0:00:03.970227,2,left,1,0.5673169938381761,26,m,1,7,2018_Sep_18_0924,MP_PerceptionTuring2,59.949590331182236,
61,resources/videos_generated\model(vcgpdm)-dataset(walking)-mode(ELBO)-parts(1)-dyn(28)-lvm(24)_final(2).mov,resources/videos_natural\training(15).mov,False,True,left,0,60,60,60,2018-09-18 09:32:51.129186,2018-09-18 09:32:55.082412,0:00:03.953226,2,right,0,0.6507246158571434,26,m,1,7,2018_Sep_18_0924,MP_PerceptionTuring2,59.949590331182236,
62,resources/videos_generated\model(vcgpdm)-dataset(walking)-mode(ELBO)-parts(2)-dyn(22)-lvm(23)_final(1).mov,resources/videos_natural\training(16).mov,False,True,left,0,61,61,61,2018-09-18 09:32:56.851514,2018-09-18 09:33:00.871743,0:00:04.020229,2,left,1,0.31720104325404463,26,m,1,7,2018_Sep_18_0924,MP_PerceptionTuring2,59.949590331182236,
63,resources/videos_generated\model(tmp)-dataset(walking)-numprim(12)_final(6).mov,resources/videos_natural\training(23).mov,False,False,right,0,62,62,62,2018-09-18 09:33:02.305825,2018-09-18 09:33:06.243051,0:00:03.937226,2,right,1,0.8509056192363005,26,m,1,7,2018_Sep_18_0924,MP_PerceptionTuring2,59.949590331182236,
64,resources/videos_generated\model(vcgpdm)-dataset(walking)-mode(ELBO)-parts(2)-dyn(24)-lvm(19)_final(9).mov,resources/videos_natural\training(17).mov,True,False,right,0,63,63,63,2018-09-18 09:33:08.211163,2018-09-18 09:33:12.131387,0:00:03.920224,2,left,0,0.53398888079073,26,m,1,7,2018_Sep_18_0924,MP_PerceptionTuring2,59.949590331182236,
65,resources/videos_generated\model(vcgpdm)-dataset(walking)-mode(ELBO)-parts(2)-dyn(28)-lvm(23)_final(5).mov,resources/videos_natural\training(18).mov,True,False,right,0,64,64,64,2018-09-18 09:33:13.782482,2018-09-18 09:33:17.819713,0:00:04.037231,2,right,1,0.6007273263903699,26,m,1,7,2018_Sep_18_0924,MP_PerceptionTuring2,59.949590331182236,
66,resources/videos_generated\model(tmp)-dataset(walking)-numprim(14)_final(4).mov,resources/videos_natural\training(34).mov,True,False,right,0,65,65,65,2018-09-18 09:33:19.537811,2018-09-18 09:33:23.507038,0:00:03.969227,2,left,0,0.9176250911041279,26,m,1,7,2018_Sep_18_0924,MP_PerceptionTuring2,59.949590331182236,
67,resources/videos_generated\model(vcgpdm)-dataset(walking)-mode(ELBO)-parts(2)-dyn(22)-lvm(19)_final(9).mov,resources/videos_natural\training(27).mov,True,False,right,0,66,66,66,2018-09-18 09:33:25.542155,2018-09-18 09:33:29.479380,0:00:03.937225,2,right,1,0.2837193333293726,26,m,1,7,2018_Sep_18_0924,MP_PerceptionTuring2,59.949590331182236,
68,resources/videos_generated\model(vcgpdm)-dataset(walking)-mode(ELBO)-parts(1)-dyn(25)-lvm(28)_final(6).mov,resources/videos_natural\training(7).mov,True,False,right,0,67,67,67,2018-09-18 09:33:30.880460,2018-09-18 09:33:34.983695,0:00:04.103235,2,left,0,1.367921141556053,26,m,1,7,2018_Sep_18_0924,MP_PerceptionTuring2,59.949590331182236,
69,resources/videos_generated\model(vcgpdm)-dataset(walking)-mode(ELBO)-parts(1)-dyn(25)-lvm(26)_final(6)_fail.mov,resources/videos_natural\training(29).mov,True,True,left,0,68,68,68,2018-09-18 09:33:37.469837,2018-09-18 09:33:41.473066,0:00:04.003229,2,left,1,0.31712334130429554,26,m,1,7,2018_Sep_18_0924,MP_PerceptionTuring2,59.949590331182236,
70,resources/videos_generated\model(vcgpdm)-dataset(walking)-mode(ELBO)-parts(1)-dyn(24)-lvm(27)_final(8).mov,resources/videos_natural\training(45).mov,False,True,left,0,69,69,69,2018-09-18 09:33:42.907148,2018-09-18 09:33:47.044384,0:00:04.137236,2,right,0,2.0852742758359,26,m,1,7,2018_Sep_18_0924,MP_PerceptionTuring2,59.949590331182236,
71,resources/videos_generated\model(vcgpdm)-dataset(walking)-mode(ELBO)-parts(2)-dyn(22)-lvm(19)_final(5).mov,resources/videos_natural\training(13).mov,True,True,left,0,70,70,70,2018-09-18 09:33:50.247568,2018-09-18 09:33:54.183793,0:00:03.936225,2,left,1,0.2837596901561028,26,m,1,7,2018_Sep_18_0924,MP_PerceptionTuring2,59.949590331182236,
72,resources/videos_generated\model(vcgpdm)-dataset(walking)-mode(ELBO)-parts(1)-dyn(27)-lvm(22)_final(7).mov,resources/videos_natural\training(17).mov,True,False,right,0,71,71,71,2018-09-18 09:33:55.584873,2018-09-18 09:33:59.522098,0:00:03.937225,2,left,0,0.3504394075378059,26,m,1,7,2018_Sep_18_0924,MP_PerceptionTuring2,59.949590331182236,
73,resources/videos_generated\model(vcgpdm)-dataset(walking)-mode(ELBO)-parts(1)-dyn(25)-lvm(24)_final(5).mov,resources/videos_natural\training(4).mov,True,False,right,0,72,72,72,2018-09-18 09:34:00.990182,2018-09-18 09:34:04.910406,0:00:03.920224,2,right,1,0.28373830706118497,26,m,1,7,2018_Sep_18_0924,MP_PerceptionTuring2,59.949590331182236,
74,resources/videos_generated\model(vcgpdm)-dataset(walking)-mode(ELBO)-parts(2)-dyn(25)-lvm(20)_final(9).mov,resources/videos_natural\training(41).mov,False,False,right,0,73,73,73,2018-09-18 09:34:06.311486,2018-09-18 09:34:10.247712,0:00:03.936226,2,left,0,0.9842367439871396,26,m,1,7,2018_Sep_18_0924,MP_PerceptionTuring2,59.949590331182236,
75,resources/videos_generated\model(vcgpdm)-dataset(walking)-mode(ELBO)-parts(2)-dyn(27)-lvm(20)_final(1).mov,resources/videos_natural\training(12).mov,False,False,right,0,74,74,74,2018-09-18 09:34:12.349832,2018-09-18 09:34:16.320059,0:00:03.970227,2,left,0,0.43386781031085775,26,m,1,7,2018_Sep_18_0924,MP_PerceptionTuring2,59.949590331182236,
76,resources/videos_generated\model(vcgpdm)-dataset(walking)-mode(ELBO)-parts(1)-dyn(27)-lvm(26)_final(7).mov,resources/videos_natural\training(42).mov,False,True,left,0,75,75,75,2018-09-18 09:34:17.871148,2018-09-18 09:34:21.841375,0:00:03.970227,2,left,1,0.3671618911089354,26,m,1,7,2018_Sep_18_0924,MP_PerceptionTuring2,59.949590331182236,
77,resources/videos_generated\model(vcgpdm)-dataset(walking)-mode(ELBO)-parts(1)-dyn(28)-lvm(23)_final(7).mov,resources/videos_natural\training(40).mov,False,False,right,0,76,76,76,2018-09-18 09:34:23.325460,2018-09-18 09:34:27.262685,0:00:03.937225,2,right,1,0.3671733355820379,26,m,1,7,2018_Sep_18_0924,MP_PerceptionTuring2,59.949590331182236,
78,resources/videos_generated\model(vcgpdm)-dataset(walking)-mode(ELBO)-parts(2)-dyn(25)-lvm(18)_final(5).mov,resources/videos_natural\training(45).mov,False,False,right,0,77,77,77,2018-09-18 09:34:28.746770,2018-09-18 09:34:32.666994,0:00:03.920224,2,right,1,0.2503779687867791,26,m,1,7,2018_Sep_18_0924,MP_PerceptionTuring2,59.949590331182236,
79,resources/videos_generated\model(vcgpdm)-dataset(walking)-mode(ELBO)-parts(1)-dyn(27)-lvm(26)_final(3).mov,resources/videos_natural\training(42).mov,True,False,right,0,78,78,78,2018-09-18 09:34:34.035072,2018-09-18 09:34:38.038301,0:00:04.003229,2,right,1,0.28381540667010086,26,m,1,7,2018_Sep_18_0924,MP_PerceptionTuring2,59.949590331182236,
80,resources/videos_generated\model(tmp)-dataset(walking)-numprim(11)_final(4).mov,resources/videos_natural\training(40).mov,True,False,right,0,79,79,79,2018-09-18 09:34:39.439381,2018-09-18 09:34:43.493613,0:00:04.054232,2,right,1,1.7182915810842587,26,m,1,7,2018_Sep_18_0924,MP_PerceptionTuring2,59.949590331182236,
81,resources/videos_generated\model(vcgpdm)-dataset(walking)-mode(ELBO)-parts(1)-dyn(25)-lvm(25)_final(2).mov,resources/videos_natural\training(35).mov,True,True,left,0,80,80,80,2018-09-18 09:34:46.328775,2018-09-18 09:34:50.299002,0:00:03.970227,2,left,1,0.3838268511435672,26,m,1,7,2018_Sep_18_0924,MP_PerceptionTuring2,59.949590331182236,
82,resources/videos_generated\model(vcgpdm)-dataset(walking)-mode(ELBO)-parts(1)-dyn(22)-lvm(22)_final(2).mov,resources/videos_natural\training(22).mov,False,True,left,0,81,81,81,2018-09-18 09:34:51.800088,2018-09-18 09:34:55.737313,0:00:03.937225,2,right,0,0.2503406236635328,26,m,1,7,2018_Sep_18_0924,MP_PerceptionTuring2,59.949590331182236,
83,resources/videos_generated\model(tmp)-dataset(walking)-numprim(14)_final(8).mov,resources/videos_natural\training(18).mov,True,True,left,0,82,82,82,2018-09-18 09:34:57.105392,2018-09-18 09:35:01.108621,0:00:04.003229,2,right,0,0.5839867725983368,26,m,1,7,2018_Sep_18_0924,MP_PerceptionTuring2,59.949590331182236,
84,resources/videos_generated\model(vcgpdm)-dataset(walking)-mode(ELBO)-parts(1)-dyn(27)-lvm(22)_final(1).mov,resources/videos_natural\training(17).mov,False,True,left,0,83,83,83,2018-09-18 09:35:02.809718,2018-09-18 09:35:06.729942,0:00:03.920224,2,right,0,0.5006110746360264,26,m,1,7,2018_Sep_18_0924,MP_PerceptionTuring2,59.949590331182236,
85,resources/videos_generated\model(vcgpdm)-dataset(walking)-mode(ELBO)-parts(2)-dyn(25)-lvm(20)_final(3).mov,resources/videos_natural\training(28).mov,True,True,left,0,84,84,84,2018-09-18 09:35:08.348035,2018-09-18 09:35:12.301261,0:00:03.953226,2,right,0,1.5181343701624428,26,m,1,7,2018_Sep_18_0924,MP_PerceptionTuring2,59.949590331182236,
86,resources/videos_generated\model(vcgpdm)-dataset(walking)-mode(ELBO)-parts(2)-dyn(25)-lvm(18)_final(3).mov,resources/videos_natural\training(4).mov,False,True,left,0,85,85,85,2018-09-18 09:35:14.937412,2018-09-18 09:35:18.907639,0:00:03.970227,2,left,1,0.4172371836957609,26,m,1,7,2018_Sep_18_0924,MP_PerceptionTuring2,59.949590331182236,
87,resources/videos_generated\model(vcgpdm)-dataset(walking)-mode(ELBO)-parts(1)-dyn(22)-lvm(23)_final(4)_fail.mov,resources/videos_natural\training(44).mov,True,False,right,0,86,86,86,2018-09-18 09:35:20.441726,2018-09-18 09:35:24.494958,0:00:04.053232,2,right,1,0.3338813629766264,26,m,1,7,2018_Sep_18_0924,MP_PerceptionTuring2,59.949590331182236,
88,resources/videos_generated\model(vcgpdm)-dataset(walking)-mode(ELBO)-parts(2)-dyn(26)-lvm(17)_final(9).mov,resources/videos_natural\training(15).mov,True,True,left,0,87,87,87,2018-09-18 09:35:25.947041,2018-09-18 09:35:29.900267,0:00:03.953226,2,left,1,0.8842734867694162,26,m,1,7,2018_Sep_18_0924,MP_PerceptionTuring2,59.949590331182236,
89,resources/videos_generated\model(vcgpdm)-dataset(walking)-mode(ELBO)-parts(1)-dyn(25)-lvm(23)_final(7).mov,resources/videos_natural\training(44).mov,True,True,left,0,88,88,88,2018-09-18 09:35:31.901382,2018-09-18 09:35:35.821606,0:00:03.920224,2,left,1,0.2837455351495919,26,m,1,7,2018_Sep_18_0924,MP_PerceptionTuring2,59.949590331182236,
90,resources/videos_generated\model(vcgpdm)-dataset(walking)-mode(ELBO)-parts(1)-dyn(27)-lvm(26)_final(9).mov,resources/videos_natural\training(44).mov,False,False,right,0,89,89,89,2018-09-18 09:35:37.222686,2018-09-18 09:35:41.142910,0:00:03.920224,2,right,1,0.31711731789732767,26,m,1,7,2018_Sep_18_0924,MP_PerceptionTuring2,59.949590331182236,
91,resources/videos_generated\model(vcgpdm)-dataset(walking)-mode(ELBO)-parts(2)-dyn(22)-lvm(19)_final(3).mov,resources/videos_natural\training(37).mov,False,False,right,0,90,90,90,2018-09-18 09:36:14.705830,2018-09-18 09:36:18.676057,0:00:03.970227,3,right,1,0.4005430101374259,26,m,1,7,2018_Sep_18_0924,MP_PerceptionTuring2,59.949590331182236,
92,resources/videos_generated\model(vcgpdm)-dataset(walking)-mode(ELBO)-parts(2)-dyn(25)-lvm(18)_final(7).mov,resources/videos_natural\training(27).mov,True,True,left,0,91,91,91,2018-09-18 09:36:20.193144,2018-09-18 09:36:24.113368,0:00:03.920224,3,left,1,0.3171088851274817,26,m,1,7,2018_Sep_18_0924,MP_PerceptionTuring2,59.949590331182236,
93,resources/videos_generated\model(vcgpdm)-dataset(walking)-mode(ELBO)-parts(2)-dyn(28)-lvm(17)_final(1).mov,resources/videos_natural\training(26).mov,True,True,left,0,92,92,92,2018-09-18 09:36:25.548450,2018-09-18 09:36:29.501676,0:00:03.953226,3,left,1,0.3505059661847554,26,m,1,7,2018_Sep_18_0924,MP_PerceptionTuring2,59.949590331182236,
94,resources/videos_generated\model(dmp)-dataset(walking)-npsi(50)_final(8).mov,resources/videos_natural\training(33).mov,False,True,left,0,93,93,93,2018-09-18 09:36:30.969760,2018-09-18 09:36:34.905986,0:00:03.936226,3,left,1,0.2837413187646689,26,m,1,7,2018_Sep_18_0924,MP_PerceptionTuring2,59.949590331182236,
95,resources/videos_generated\model(tmp)-dataset(walking)-numprim(14)_final(0).mov,resources/videos_natural\training(20).mov,True,True,left,0,94,94,94,2018-09-18 09:36:36.307066,2018-09-18 09:36:40.244291,0:00:03.937225,3,left,1,0.45053096332344467,26,m,1,7,2018_Sep_18_0924,MP_PerceptionTuring2,59.949590331182236,
96,resources/videos_generated\model(vcgpdm)-dataset(walking)-mode(ELBO)-parts(1)-dyn(22)-lvm(25)_final(8).mov,resources/videos_natural\training(42).mov,True,False,right,0,95,95,95,2018-09-18 09:36:41.812381,2018-09-18 09:36:45.782608,0:00:03.970227,3,right,1,0.45054843120351507,26,m,1,7,2018_Sep_18_0924,MP_PerceptionTuring2,59.949590331182236,
97,resources/videos_generated\model(vcgpdm)-dataset(walking)-mode(ELBO)-parts(1)-dyn(27)-lvm(24)_final(1).mov,resources/videos_natural\training(19).mov,True,True,left,0,96,96,96,2018-09-18 09:36:47.350697,2018-09-18 09:36:51.303923,0:00:03.953226,3,left,1,1.4180199254301442,26,m,1,7,2018_Sep_18_0924,MP_PerceptionTuring2,59.949590331182236,
98,resources/videos_generated\model(vcgpdm)-dataset(walking)-mode(ELBO)-parts(1)-dyn(23)-lvm(24)_final(9).mov,resources/videos_natural\training(32).mov,True,False,right,0,97,97,97,2018-09-18 09:36:53.839068,2018-09-18 09:36:57.759293,0:00:03.920225,3,right,1,0.4338693161625997,26,m,1,7,2018_Sep_18_0924,MP_PerceptionTuring2,59.949590331182236,
99,resources/videos_generated\model(vcgpdm)-dataset(walking)-mode(ELBO)-parts(2)-dyn(27)-lvm(20)_final(5).mov,resources/videos_natural\training(1).mov,True,True,left,0,98,98,98,2018-09-18 09:36:59.310381,2018-09-18 09:37:03.297609,0:00:03.987228,3,right,0,0.45055053939609024,26,m,1,7,2018_Sep_18_0924,MP_PerceptionTuring2,59.949590331182236,
100,resources/videos_generated\model(vcgpdm)-dataset(walking)-mode(ELBO)-parts(2)-dyn(28)-lvm(19)_final(1).mov,resources/videos_natural\training(21).mov,True,True,left,0,99,99,99,2018-09-18 09:37:04.865699,2018-09-18 09:37:08.868928,0:00:04.003229,3,right,0,0.3004397087081543,26,m,1,7,2018_Sep_18_0924,MP_PerceptionTuring2,59.949590331182236,
101,resources/videos_generated\model(vcgpdm)-dataset(walking)-mode(ELBO)-parts(1)-dyn(24)-lvm(27)_final(2).mov,resources/videos_natural\training(25).mov,False,False,right,0,100,100,100,2018-09-18 09:37:10.287009,2018-09-18 09:37:14.240235,0:00:03.953226,3,right,1,0.26708418915904986,26,m,1,7,2018_Sep_18_0924,MP_PerceptionTuring2,59.949590331182236,
102,resources/videos_generated\model(vcgpdm)-dataset(walking)-mode(ELBO)-parts(1)-dyn(26)-lvm(25)_final(3).mov,resources/videos_natural\training(24).mov,False,False,right,0,101,101,101,2018-09-18 09:37:15.625315,2018-09-18 09:37:19.745550,0:00:04.120235,3,right,1,0.4005406007745478,26,m,1,7,2018_Sep_18_0924,MP_PerceptionTuring2,59.949590331182236,
103,resources/videos_generated\model(vcgpdm)-dataset(walking)-mode(ELBO)-parts(1)-dyn(23)-lvm(28)_final(8).mov,resources/videos_natural\training(5).mov,True,False,right,0,102,102,102,2018-09-18 09:37:21.262637,2018-09-18 09:37:25.199862,0:00:03.937225,3,right,1,0.3170778645817336,26,m,1,7,2018_Sep_18_0924,MP_PerceptionTuring2,59.949590331182236,
104,resources/videos_generated\model(vcgpdm)-dataset(walking)-mode(ELBO)-parts(2)-dyn(27)-lvm(18)_final(7).mov,resources/videos_natural\training(0).mov,False,False,right,0,103,103,103,2018-09-18 09:37:26.633944,2018-09-18 09:37:30.571169,0:00:03.937225,3,right,1,0.2837569796229218,26,m,1,7,2018_Sep_18_0924,MP_PerceptionTuring2,59.949590331182236,
105,resources/videos_generated\model(tmp)-dataset(walking)-numprim(12)_final(4).mov,resources/videos_natural\training(44).mov,True,False,right,0,104,104,104,2018-09-18 09:37:31.972250,2018-09-18 09:37:35.942477,0:00:03.970227,3,right,1,0.7341593432076934,26,m,1,7,2018_Sep_18_0924,MP_PerceptionTuring2,59.949590331182236,
106,resources/videos_generated\model(dmp)-dataset(walking)-npsi(70)_final(0).mov,resources/videos_natural\training(9).mov,True,True,left,0,105,105,105,2018-09-18 09:37:37.793582,2018-09-18 09:37:41.880816,0:00:04.087234,3,left,1,0.2337133099224502,26,m,1,7,2018_Sep_18_0924,MP_PerceptionTuring2,59.949590331182236,
107,resources/videos_generated\model(vcgpdm)-dataset(walking)-mode(ELBO)-parts(1)-dyn(23)-lvm(24)_final(7).mov,resources/videos_natural\training(46).mov,True,True,left,0,106,106,106,2018-09-18 09:37:43.231894,2018-09-18 09:37:47.152118,0:00:03.920224,3,left,1,0.3004129045471018,26,m,1,7,2018_Sep_18_0924,MP_PerceptionTuring2,59.949590331182236,
108,resources/videos_generated\model(vcgpdm)-dataset(walking)-mode(ELBO)-parts(2)-dyn(24)-lvm(17)_final(7).mov,resources/videos_natural\training(30).mov,False,True,left,0,107,107,107,2018-09-18 09:37:48.570199,2018-09-18 09:37:52.540426,0:00:03.970227,3,left,1,1.801704624169588,26,m,1,7,2018_Sep_18_0924,MP_PerceptionTuring2,59.949590331182236,
109,resources/videos_generated\model(vcgpdm)-dataset(walking)-mode(ELBO)-parts(2)-dyn(24)-lvm(21)_final(3).mov,resources/videos_natural\training(0).mov,False,True,left,0,108,108,108,2018-09-18 09:37:55.459593,2018-09-18 09:37:59.395818,0:00:03.936225,3,right,0,0.38386570211832804,26,m,1,7,2018_Sep_18_0924,MP_PerceptionTuring2,59.949590331182236,
110,resources/videos_generated\model(dmp)-dataset(walking)-npsi(100)_final(6).mov,resources/videos_natural\training(10).mov,False,True,left,0,109,109,109,2018-09-18 09:38:00.896904,2018-09-18 09:38:04.867131,0:00:03.970227,3,left,1,0.26706340840496523,26,m,1,7,2018_Sep_18_0924,MP_PerceptionTuring2,59.949590331182236,
111,resources/videos_generated\model(dmp)-dataset(walking)-npsi(100)_final(2).mov,resources/videos_natural\training(47).mov,True,True,left,0,110,110,110,2018-09-18 09:38:06.252210,2018-09-18 09:38:10.405448,0:00:04.153238,3,left,1,0.567324221926583,26,m,1,7,2018_Sep_18_0924,MP_PerceptionTuring2,59.949590331182236,
112,resources/videos_generated\model(vcgpdm)-dataset(walking)-mode(ELBO)-parts(1)-dyn(22)-lvm(25)_final(0).mov,resources/videos_natural\training(46).mov,False,False,right,0,111,111,111,2018-09-18 09:38:12.090544,2018-09-18 09:38:16.060771,0:00:03.970227,3,right,1,0.28372083918111457,26,m,1,7,2018_Sep_18_0924,MP_PerceptionTuring2,59.949590331182236,
113,resources/videos_generated\model(vcgpdm)-dataset(walking)-mode(ELBO)-parts(2)-dyn(23)-lvm(22)_final(9).mov,resources/videos_natural\training(48).mov,False,True,left,0,112,112,112,2018-09-18 09:38:17.461851,2018-09-18 09:38:21.582087,0:00:04.120236,3,left,1,0.2670667212787521,26,m,1,7,2018_Sep_18_0924,MP_PerceptionTuring2,59.949590331182236,
114,resources/videos_generated\model(vcgpdm)-dataset(walking)-mode(ELBO)-parts(2)-dyn(27)-lvm(18)_final(1).mov,resources/videos_natural\training(23).mov,True,False,right,0,113,113,113,2018-09-18 09:38:22.966166,2018-09-18 09:38:26.936393,0:00:03.970227,3,right,1,0.35052704810891555,26,m,1,7,2018_Sep_18_0924,MP_PerceptionTuring2,59.949590331182236,
115,resources/videos_generated\model(vcgpdm)-dataset(walking)-mode(ELBO)-parts(2)-dyn(23)-lvm(22)_final(1).mov,resources/videos_natural\training(34).mov,False,True,left,0,114,114,114,2018-09-18 09:38:28.404477,2018-09-18 09:38:32.357703,0:00:03.953226,3,left,1,0.23371933332941808,26,m,1,7,2018_Sep_18_0924,MP_PerceptionTuring2,59.949590331182236,
116,resources/videos_generated\model(vcgpdm)-dataset(walking)-mode(ELBO)-parts(1)-dyn(27)-lvm(24)_final(7).mov,resources/videos_natural\training(15).mov,False,True,left,0,115,115,115,2018-09-18 09:38:33.708781,2018-09-18 09:38:37.679008,0:00:03.970227,3,left,1,0.2837217426922507,26,m,1,7,2018_Sep_18_0924,MP_PerceptionTuring2,59.949590331182236,
117,resources/videos_generated\model(vcgpdm)-dataset(walking)-mode(ELBO)-parts(1)-dyn(25)-lvm(24)_final(7).mov,resources/videos_natural\training(11).mov,True,False,right,0,116,116,116,2018-09-18 09:38:39.080088,2018-09-18 09:38:43.167322,0:00:04.087234,3,left,0,0.41722302868947736,26,m,1,7,2018_Sep_18_0924,MP_PerceptionTuring2,59.949590331182236,
118,resources/videos_generated\model(vcgpdm)-dataset(walking)-mode(ELBO)-parts(2)-dyn(24)-lvm(23)_final(9).mov,resources/videos_natural\training(42).mov,False,False,right,0,117,117,117,2018-09-18 09:38:44.701409,2018-09-18 09:38:48.638635,0:00:03.937226,3,right,1,0.5006074605917092,26,m,1,7,2018_Sep_18_0924,MP_PerceptionTuring2,59.949590331182236,
119,resources/videos_generated\model(dmp)-dataset(walking)-npsi(80)_final(2).mov,resources/videos_natural\training(38).mov,False,True,left,0,118,118,118,2018-09-18 09:38:50.256727,2018-09-18 09:38:54.209953,0:00:03.953226,3,right,0,0.33391780458850917,26,m,1,7,2018_Sep_18_0924,MP_PerceptionTuring2,59.949590331182236,
120,resources/videos_generated\model(vcgpdm)-dataset(walking)-mode(ELBO)-parts(1)-dyn(23)-lvm(22)_final(1)_fail.mov,resources/videos_natural\training(45).mov,False,True,left,0,119,119,119,2018-09-18 09:38:55.661036,2018-09-18 09:38:59.631263,0:00:03.970227,3,left,1,0.3171040664019529,26,m,1,7,2018_Sep_18_0924,MP_PerceptionTuring2,59.949590331182236,
121,resources/videos_generated\model(vcgpdm)-dataset(walking)-mode(ELBO)-parts(2)-dyn(24)-lvm(21)_final(1).mov,resources/videos_natural\training(26).mov,False,True,left,0,120,120,120,2018-09-18 09:39:01.066345,2018-09-18 09:39:05.019572,0:00:03.953227,3,left,1,0.3504433227521986,26,m,1,7,2018_Sep_18_0924,MP_PerceptionTuring2,59.949590331182236,
122,resources/videos_generated\model(vcgpdm)-dataset(walking)-mode(ELBO)-parts(1)-dyn(28)-lvm(25)_final(1).mov,resources/videos_natural\training(20).mov,False,False,right,0,121,121,121,2018-09-18 09:39:06.487655,2018-09-18 09:39:10.440882,0:00:03.953227,3,right,1,0.2671088851275272,26,m,1,7,2018_Sep_18_0924,MP_PerceptionTuring2,59.949590331182236,
123,resources/videos_generated\model(vcgpdm)-dataset(walking)-mode(ELBO)-parts(1)-dyn(28)-lvm(27)_final(1).mov,resources/videos_natural\training(41).mov,False,False,right,0,122,122,122,2018-09-18 09:39:11.824961,2018-09-18 09:39:15.795188,0:00:03.970227,3,right,1,0.3337630030298442,26,m,1,7,2018_Sep_18_0924,MP_PerceptionTuring2,59.949590331182236,
124,resources/videos_generated\model(vcgpdm)-dataset(walking)-mode(ELBO)-parts(2)-dyn(26)-lvm(23)_final(1).mov,resources/videos_natural\training(10).mov,True,False,right,0,123,123,123,2018-09-18 09:39:17.246271,2018-09-18 09:39:21.216498,0:00:03.970227,3,right,1,0.2670757563892039,26,m,1,7,2018_Sep_18_0924,MP_PerceptionTuring2,59.949590331182236,
125,resources/videos_generated\model(vcgpdm)-dataset(walking)-mode(ELBO)-parts(2)-dyn(25)-lvm(22)_final(3).mov,resources/videos_natural\training(3).mov,True,False,right,0,124,124,124,2018-09-18 09:39:22.601577,2018-09-18 09:39:26.554803,0:00:03.953226,3,right,1,0.2671314729036567,26,m,1,7,2018_Sep_18_0924,MP_PerceptionTuring2,59.949590331182236,
126,resources/videos_generated\model(vcgpdm)-dataset(walking)-mode(ELBO)-parts(1)-dyn(26)-lvm(22)_final(0).mov,resources/videos_natural\training(38).mov,True,True,left,0,125,125,125,2018-09-18 09:39:27.938882,2018-09-18 09:39:31.893109,0:00:03.954227,3,right,0,0.28363801733553373,26,m,1,7,2018_Sep_18_0924,MP_PerceptionTuring2,59.949590331182236,
127,resources/videos_generated\model(vcgpdm)-dataset(walking)-mode(ELBO)-parts(2)-dyn(28)-lvm(23)_final(7).mov,resources/videos_natural\training(7).mov,False,True,left,0,126,126,126,2018-09-18 09:39:33.294189,2018-09-18 09:39:37.247415,0:00:03.953226,3,left,1,0.3671706250488569,26,m,1,7,2018_Sep_18_0924,MP_PerceptionTuring2,59.949590331182236,
128,resources/videos_generated\model(vcgpdm)-dataset(walking)-mode(ELBO)-parts(2)-dyn(22)-lvm(21)_final(3).mov,resources/videos_natural\training(6).mov,False,False,right,0,127,127,127,2018-09-18 09:39:38.731500,2018-09-18 09:39:42.668725,0:00:03.937225,3,right,1,1.151158903498981,26,m,1,7,2018_Sep_18_0924,MP_PerceptionTuring2,59.949590331182236,
129,resources/videos_generated\model(vcgpdm)-dataset(walking)-mode(ELBO)-parts(1)-dyn(26)-lvm(23)_final(9).mov,resources/videos_natural\training(11).mov,False,False,right,0,128,128,128,2018-09-18 09:39:44.936855,2018-09-18 09:39:48.857079,0:00:03.920224,3,left,0,1.201180286593626,26,m,1,7,2018_Sep_18_0924,MP_PerceptionTuring2,59.949590331182236,
130,resources/videos_generated\model(dmp)-dataset(walking)-npsi(90)_final(0).mov,resources/videos_natural\training(10).mov,False,True,left,0,129,129,129,2018-09-18 09:39:51.176212,2018-09-18 09:39:55.129438,0:00:03.953226,3,left,1,0.35052313289452286,26,m,1,7,2018_Sep_18_0924,MP_PerceptionTuring2,59.949590331182236,
131,resources/videos_generated\model(tmp)-dataset(walking)-numprim(15)_final(6).mov,resources/videos_natural\training(26).mov,False,True,left,0,130,130,130,2018-09-18 09:39:56.597522,2018-09-18 09:40:00.550748,0:00:03.953226,3,left,1,0.20031472301366193,26,m,1,7,2018_Sep_18_0924,MP_PerceptionTuring2,59.949590331182236,
132,resources/videos_generated\model(vcgpdm)-dataset(walking)-mode(ELBO)-parts(1)-dyn(27)-lvm(22)_final(9).mov,resources/videos_natural\training(7).mov,True,True,left,0,131,131,131,2018-09-18 09:40:01.868823,2018-09-18 09:40:05.839050,0:00:03.970227,3,left,1,0.25039302730419877,26,m,1,7,2018_Sep_18_0924,MP_PerceptionTuring2,59.949590331182236,
133,resources/videos_generated\model(vcgpdm)-dataset(walking)-mode(ELBO)-parts(2)-dyn(23)-lvm(20)_final(1).mov,resources/videos_natural\training(37).mov,False,False,right,0,132,132,132,2018-09-18 09:40:07.206128,2018-09-18 09:40:11.143354,0:00:03.937226,3,right,1,0.30042766189421855,26,m,1,7,2018_Sep_18_0924,MP_PerceptionTuring2,59.949590331182236,
134,resources/videos_generated\model(vcgpdm)-dataset(walking)-mode(ELBO)-parts(1)-dyn(26)-lvm(25)_final(9).mov,resources/videos_natural\training(22).mov,False,False,right,0,133,133,133,2018-09-18 09:40:12.561435,2018-09-18 09:40:16.497660,0:00:03.936225,3,right,1,0.3838202253957661,26,m,1,7,2018_Sep_18_0924,MP_PerceptionTuring2,59.949590331182236,
135,resources/videos_generated\model(vcgpdm)-dataset(walking)-mode(ELBO)-parts(2)-dyn(23)-lvm(18)_final(5).mov,resources/videos_natural\training(2).mov,True,True,left,0,134,134,134,2018-09-18 09:40:17.998746,2018-09-18 09:40:22.052978,0:00:04.054232,3,left,1,0.33384401785338014,26,m,1,7,2018_Sep_18_0924,MP_PerceptionTuring2,59.949590331182236,
136,resources/videos_generated\model(vcgpdm)-dataset(walking)-mode(ELBO)-parts(2)-dyn(28)-lvm(23)_final(3).mov,resources/videos_natural\training(23).mov,False,False,right,0,135,135,135,2018-09-18 09:40:56.999976,2018-09-18 09:41:00.970204,0:00:03.970228,4,right,1,0.2837596901561028,26,m,1,7,2018_Sep_18_0924,MP_PerceptionTuring2,59.949590331182236,
137,resources/videos_generated\model(tmp)-dataset(walking)-numprim(13)_final(4).mov,resources/videos_natural\training(19).mov,False,False,right,0,136,136,136,2018-09-18 09:41:02.371284,2018-09-18 09:41:06.307509,0:00:03.936225,4,right,1,0.2837392105723211,26,m,1,7,2018_Sep_18_0924,MP_PerceptionTuring2,59.949590331182236,
138,resources/videos_generated\model(vcgpdm)-dataset(walking)-mode(ELBO)-parts(2)-dyn(23)-lvm(22)_final(5).mov,resources/videos_natural\training(14).mov,True,False,right,0,137,137,137,2018-09-18 09:41:07.708589,2018-09-18 09:41:11.845826,0:00:04.137237,4,right,1,0.2671073792757852,26,m,1,7,2018_Sep_18_0924,MP_PerceptionTuring2,59.949590331182236,
139,resources/videos_generated\model(vcgpdm)-dataset(walking)-mode(ELBO)-parts(1)-dyn(23)-lvm(22)_final(7).mov,resources/videos_natural\training(43).mov,False,True,left,0,138,138,138,2018-09-18 09:41:13.229905,2018-09-18 09:41:17.184131,0:00:03.954226,4,right,0,0.3337958305976372,26,m,1,7,2018_Sep_18_0924,MP_PerceptionTuring2,59.949590331182236,
140,resources/videos_generated\model(dmp)-dataset(walking)-npsi(100)_final(0).mov,resources/videos_natural\training(26).mov,True,False,right,0,139,139,139,2018-09-18 09:41:18.635214,2018-09-18 09:41:22.571439,0:00:03.936225,4,right,1,0.3004372993452762,26,m,1,7,2018_Sep_18_0924,MP_PerceptionTuring2,59.949590331182236,
141,resources/videos_generated\model(vcgpdm)-dataset(walking)-mode(ELBO)-parts(2)-dyn(28)-lvm(17)_final(3).mov,resources/videos_natural\training(36).mov,False,True,left,0,140,140,140,2018-09-18 09:41:23.989520,2018-09-18 09:41:27.942746,0:00:03.953226,4,left,1,0.3171203296008116,26,m,1,7,2018_Sep_18_0924,MP_PerceptionTuring2,59.949590331182236,
142,resources/videos_generated\model(vcgpdm)-dataset(walking)-mode(ELBO)-parts(2)-dyn(27)-lvm(22)_final(1).mov,resources/videos_natural\training(40).mov,False,False,right,0,141,141,141,2018-09-18 09:41:29.377828,2018-09-18 09:41:33.331054,0:00:03.953226,4,right,1,0.2670670224492824,26,m,1,7,2018_Sep_18_0924,MP_PerceptionTuring2,59.949590331182236,
143,resources/videos_generated\model(vcgpdm)-dataset(walking)-mode(ELBO)-parts(1)-dyn(22)-lvm(28)_final(7).mov,resources/videos_natural\training(2).mov,False,True,left,0,142,142,142,2018-09-18 09:41:34.715134,2018-09-18 09:41:38.669360,0:00:03.954226,4,right,0,0.3171206307711145,26,m,1,7,2018_Sep_18_0924,MP_PerceptionTuring2,59.949590331182236,
144,resources/videos_generated\model(vcgpdm)-dataset(walking)-mode(ELBO)-parts(1)-dyn(24)-lvm(27)_final(4).mov,resources/videos_natural\training(26).mov,True,False,right,0,143,143,143,2018-09-18 09:41:40.103442,2018-09-18 09:41:44.040667,0:00:03.937225,4,right,1,0.30056108035842044,26,m,1,7,2018_Sep_18_0924,MP_PerceptionTuring2,59.949590331182236,
145,resources/videos_generated\model(vcgpdm)-dataset(walking)-mode(ELBO)-parts(2)-dyn(25)-lvm(20)_final(5).mov,resources/videos_natural\training(38).mov,True,True,left,0,144,144,144,2018-09-18 09:41:45.457748,2018-09-18 09:41:49.411974,0:00:03.954226,4,left,1,0.26703750775504886,26,m,1,7,2018_Sep_18_0924,MP_PerceptionTuring2,59.949590331182236,
146,resources/videos_generated\model(vcgpdm)-dataset(walking)-mode(ELBO)-parts(2)-dyn(22)-lvm(21)_final(5).mov,resources/videos_natural\training(37).mov,True,True,left,0,145,145,145,2018-09-18 09:41:50.796053,2018-09-18 09:41:54.733279,0:00:03.937226,4,right,0,0.3671706250488569,26,m,1,7,2018_Sep_18_0924,MP_PerceptionTuring2,59.949590331182236,
147,resources/videos_generated\model(vcgpdm)-dataset(walking)-mode(ELBO)-parts(2)-dyn(24)-lvm(19)_final(1).mov,resources/videos_natural\training(5).mov,True,False,right,0,146,146,146,2018-09-18 09:41:56.217363,2018-09-18 09:42:00.154589,0:00:03.937226,4,right,1,0.35046530818772226,26,m,1,7,2018_Sep_18_0924,MP_PerceptionTuring2,59.949590331182236,
148,resources/videos_generated\model(tmp)-dataset(walking)-numprim(15)_final(0).mov,resources/videos_natural\training(33).mov,False,True,left,0,147,147,147,2018-09-18 09:42:01.621673,2018-09-18 09:42:05.591900,0:00:03.970227,4,right,0,0.2670748528785225,26,m,1,7,2018_Sep_18_0924,MP_PerceptionTuring2,59.949590331182236,
149,resources/videos_generated\model(tmp)-dataset(walking)-numprim(11)_final(2).mov,resources/videos_natural\training(9).mov,True,False,right,0,148,148,148,2018-09-18 09:42:06.976979,2018-09-18 09:42:10.930205,0:00:03.953226,4,left,0,0.5172745288191436,26,m,1,7,2018_Sep_18_0924,MP_PerceptionTuring2,59.949590331182236,
150,resources/videos_generated\model(vcgpdm)-dataset(walking)-mode(ELBO)-parts(1)-dyn(22)-lvm(22)_final(4).mov,resources/videos_natural\training(12).mov,False,True,left,0,149,149,149,2018-09-18 09:42:12.565299,2018-09-18 09:42:16.501524,0:00:03.936225,4,left,1,0.2670775634110214,26,m,1,7,2018_Sep_18_0924,MP_PerceptionTuring2,59.949590331182236,
151,resources/videos_generated\model(vcgpdm)-dataset(walking)-mode(ELBO)-parts(1)-dyn(27)-lvm(22)_final(3).mov,resources/videos_natural\training(15).mov,False,False,right,0,150,150,150,2018-09-18 09:42:17.886603,2018-09-18 09:42:21.839829,0:00:03.953226,4,left,0,0.2837542690895134,26,m,1,7,2018_Sep_18_0924,MP_PerceptionTuring2,59.949590331182236,
152,resources/videos_generated\model(vcgpdm)-dataset(walking)-mode(ELBO)-parts(2)-dyn(25)-lvm(22)_final(9).mov,resources/videos_natural\training(21).mov,True,True,left,0,151,151,151,2018-09-18 09:42:23.240909,2018-09-18 09:42:27.361145,0:00:04.120236,4,right,0,0.667369698649054,26,m,1,7,2018_Sep_18_0924,MP_PerceptionTuring2,59.949590331182236,
153,resources/videos_generated\model(vcgpdm)-dataset(walking)-mode(ELBO)-parts(2)-dyn(22)-lvm(17)_final(7).mov,resources/videos_natural\training(2).mov,False,True,left,0,152,152,152,2018-09-18 09:42:29.146247,2018-09-18 09:42:33.082472,0:00:03.936225,4,left,1,0.2503857992155645,26,m,1,7,2018_Sep_18_0924,MP_PerceptionTuring2,59.949590331182236,
154,resources/videos_generated\model(vcgpdm)-dataset(walking)-mode(ELBO)-parts(1)-dyn(25)-lvm(23)_final(0).mov,resources/videos_natural\training(7).mov,True,True,left,0,153,153,153,2018-09-18 09:42:34.450550,2018-09-18 09:42:38.370775,0:00:03.920225,4,left,1,0.30043699817497327,26,m,1,7,2018_Sep_18_0924,MP_PerceptionTuring2,59.949590331182236,
155,resources/videos_generated\model(vcgpdm)-dataset(walking)-mode(ELBO)-parts(1)-dyn(28)-lvm(23)_final(1).mov,resources/videos_natural\training(14).mov,True,True,left,0,154,154,154,2018-09-18 09:42:39.788856,2018-09-18 09:42:43.742082,0:00:03.953226,4,left,1,0.4005131942726621,26,m,1,7,2018_Sep_18_0924,MP_PerceptionTuring2,59.949590331182236,
156,resources/videos_generated\model(vcgpdm)-dataset(walking)-mode(ELBO)-parts(2)-dyn(23)-lvm(22)_final(7).mov,resources/videos_natural\training(7).mov,True,False,right,0,155,155,155,2018-09-18 09:42:45.260169,2018-09-18 09:42:49.246397,0:00:03.986228,4,right,1,0.26699956029142413,26,m,1,7,2018_Sep_18_0924,MP_PerceptionTuring2,59.949590331182236,
157,resources/videos_generated\model(vcgpdm)-dataset(walking)-mode(ELBO)-parts(1)-dyn(22)-lvm(28)_final(0).mov,resources/videos_natural\training(34).mov,True,True,left,0,156,156,156,2018-09-18 09:42:50.631476,2018-09-18 09:42:54.567701,0:00:03.936225,4,left,1,0.7508432769741376,26,m,1,7,2018_Sep_18_0924,MP_PerceptionTuring2,59.949590331182236,
158,resources/videos_generated\model(dmp)-dataset(walking)-npsi(70)_final(2).mov,resources/videos_natural\training(4).mov,False,True,left,0,157,157,157,2018-09-18 09:42:56.435808,2018-09-18 09:43:00.373033,0:00:03.937225,4,left,1,0.2170456393546374,26,m,1,7,2018_Sep_18_0924,MP_PerceptionTuring2,59.949590331182236,
159,resources/videos_generated\model(vcgpdm)-dataset(walking)-mode(ELBO)-parts(1)-dyn(22)-lvm(23)_final(6)_fail.mov,resources/videos_natural\training(21).mov,True,True,left,0,158,158,158,2018-09-18 09:43:01.707109,2018-09-18 09:43:05.661335,0:00:03.954226,4,left,1,0.2337190321586604,26,m,1,7,2018_Sep_18_0924,MP_PerceptionTuring2,59.949590331182236,
160,resources/videos_generated\model(vcgpdm)-dataset(walking)-mode(ELBO)-parts(2)-dyn(23)-lvm(18)_final(1).mov,resources/videos_natural\training(4).mov,True,True,left,0,159,159,159,2018-09-18 09:43:07.012413,2018-09-18 09:43:10.982640,0:00:03.970227,4,left,1,0.2337446316387286,26,m,1,7,2018_Sep_18_0924,MP_PerceptionTuring2,59.949590331182236,
161,resources/videos_generated\model(vcgpdm)-dataset(walking)-mode(ELBO)-parts(2)-dyn(26)-lvm(21)_final(1).mov,resources/videos_natural\training(30).mov,True,True,left,0,160,160,160,2018-09-18 09:43:12.333717,2018-09-18 09:43:16.403950,0:00:04.070233,4,left,1,0.16695558942046773,26,m,1,7,2018_Sep_18_0924,MP_PerceptionTuring2,59.949590331182236,
162,resources/videos_generated\model(dmp)-dataset(walking)-npsi(90)_final(8).mov,resources/videos_natural\training(47).mov,False,False,right,0,161,161,161,2018-09-18 09:43:17.688023,2018-09-18 09:43:21.641249,0:00:03.953226,4,right,1,0.23370698534472467,26,m,1,7,2018_Sep_18_0924,MP_PerceptionTuring2,59.949590331182236,
163,resources/videos_generated\model(vcgpdm)-dataset(walking)-mode(ELBO)-parts(2)-dyn(24)-lvm(17)_final(3).mov,resources/videos_natural\training(2).mov,False,True,left,0,162,162,162,2018-09-18 09:43:22.992327,2018-09-18 09:43:27.112562,0:00:04.120235,4,right,0,0.2503674278245853,26,m,1,7,2018_Sep_18_0924,MP_PerceptionTuring2,59.949590331182236,
164,resources/videos_generated\model(tmp)-dataset(walking)-numprim(12)_final(8).mov,resources/videos_natural\training(5).mov,True,False,right,0,163,163,163,2018-09-18 09:43:28.480641,2018-09-18 09:43:32.416866,0:00:03.936225,4,left,0,0.216996247417228,26,m,1,7,2018_Sep_18_0924,MP_PerceptionTuring2,59.949590331182236,
165,resources/videos_generated\model(dmp)-dataset(walking)-npsi(60)_final(0).mov,resources/videos_natural\training(37).mov,True,True,left,0,164,164,164,2018-09-18 09:43:33.751942,2018-09-18 09:43:37.688167,0:00:03.936225,4,left,1,0.2838747372288708,26,m,1,7,2018_Sep_18_0924,MP_PerceptionTuring2,59.949590331182236,
166,resources/videos_generated\model(vcgpdm)-dataset(walking)-mode(ELBO)-parts(1)-dyn(22)-lvm(27)_final(2)_hip-corrected.mov,resources/videos_natural\training(25).mov,False,True,left,0,165,165,165,2018-09-18 09:43:39.089247,2018-09-18 09:43:43.009472,0:00:03.920225,4,right,0,0.3171811660113235,26,m,1,7,2018_Sep_18_0924,MP_PerceptionTuring2,59.949590331182236,
167,resources/videos_generated\model(vcgpdm)-dataset(walking)-mode(ELBO)-parts(2)-dyn(24)-lvm(23)_final(1).mov,resources/videos_natural\training(14).mov,False,False,right,0,166,166,166,2018-09-18 09:43:44.444554,2018-09-18 09:43:48.380779,0:00:03.936225,4,right,1,0.2503981472000305,26,m,1,7,2018_Sep_18_0924,MP_PerceptionTuring2,59.949590331182236,
168,resources/videos_generated\model(vcgpdm)-dataset(walking)-mode(ELBO)-parts(1)-dyn(23)-lvm(26)_final(7).mov,resources/videos_natural\training(10).mov,False,False,right,0,167,167,167,2018-09-18 09:43:49.748857,2018-09-18 09:43:53.686082,0:00:03.937225,4,left,0,0.267078165752082,26,m,1,7,2018_Sep_18_0924,MP_PerceptionTuring2,59.949590331182236,
169,resources/videos_generated\model(vcgpdm)-dataset(walking)-mode(ELBO)-parts(1)-dyn(27)-lvm(28)_final(7).mov,resources/videos_natural\training(8).mov,True,False,right,0,168,168,168,2018-09-18 09:43:55.070161,2018-09-18 09:43:59.140394,0:00:04.070233,4,left,0,0.26706130021239005,26,m,1,7,2018_Sep_18_0924,MP_PerceptionTuring2,59.949590331182236,
170,resources/videos_generated\model(tmp)-dataset(walking)-numprim(12)_final(2).mov,resources/videos_natural\training(45).mov,False,False,right,0,169,169,169,2018-09-18 09:44:00.524473,2018-09-18 09:44:04.561704,0:00:04.037231,4,left,0,0.3004252525311131,26,m,1,7,2018_Sep_18_0924,MP_PerceptionTuring2,59.949590331182236,
171,resources/videos_generated\model(dmp)-dataset(walking)-npsi(50)_final(4).mov,resources/videos_natural\training(9).mov,True,False,right,0,170,170,170,2018-09-18 09:44:05.979785,2018-09-18 09:44:10.017016,0:00:04.037231,4,right,1,0.3004216384870233,26,m,1,7,2018_Sep_18_0924,MP_PerceptionTuring2,59.949590331182236,
172,resources/videos_generated\model(vcgpdm)-dataset(walking)-mode(ELBO)-parts(1)-dyn(22)-lvm(23)_final(0).mov,resources/videos_natural\training(22).mov,False,False,right,0,171,171,171,2018-09-18 09:44:11.434097,2018-09-18 09:44:15.354322,0:00:03.920225,4,right,1,0.36712334130425006,26,m,1,7,2018_Sep_18_0924,MP_PerceptionTuring2,59.949590331182236,
173,resources/videos_generated\model(vcgpdm)-dataset(walking)-mode(ELBO)-parts(2)-dyn(24)-lvm(21)_final(9).mov,resources/videos_natural\training(2).mov,False,False,right,0,172,172,172,2018-09-18 09:44:16.839407,2018-09-18 09:44:20.775632,0:00:03.936225,4,right,1,0.23371602045517648,26,m,1,7,2018_Sep_18_0924,MP_PerceptionTuring2,59.949590331182236,
174,resources/videos_generated\model(vcgpdm)-dataset(walking)-mode(ELBO)-parts(2)-dyn(26)-lvm(21)_final(5).mov,resources/videos_natural\training(36).mov,False,False,right,0,173,173,173,2018-09-18 09:44:22.126709,2018-09-18 09:44:26.096936,0:00:03.970227,4,right,1,0.26707093766390244,26,m,1,7,2018_Sep_18_0924,MP_PerceptionTuring2,59.949590331182236,
175,resources/videos_generated\model(vcgpdm)-dataset(walking)-mode(ELBO)-parts(2)-dyn(25)-lvm(18)_final(1).mov,resources/videos_natural\training(45).mov,True,True,left,0,174,174,174,2018-09-18 09:44:27.482015,2018-09-18 09:44:31.451242,0:00:03.969227,4,left,1,0.2670721423451141,26,m,1,7,2018_Sep_18_0924,MP_PerceptionTuring2,59.949590331182236,
176,resources/videos_generated\model(vcgpdm)-dataset(walking)-mode(ELBO)-parts(1)-dyn(25)-lvm(26)_final(4)_fail.mov,resources/videos_natural\training(4).mov,False,False,right,0,175,175,175,2018-09-18 09:44:32.836322,2018-09-18 09:44:36.772547,0:00:03.936225,4,right,1,0.25039543666707686,26,m,1,7,2018_Sep_18_0924,MP_PerceptionTuring2,59.949590331182236,
177,resources/videos_generated\model(vcgpdm)-dataset(walking)-mode(ELBO)-parts(2)-dyn(28)-lvm(19)_final(3).mov,resources/videos_natural\training(37).mov,False,False,right,0,176,176,176,2018-09-18 09:44:38.140625,2018-09-18 09:44:42.060849,0:00:03.920224,4,right,1,0.2836452454234859,26,m,1,7,2018_Sep_18_0924,MP_PerceptionTuring2,59.949590331182236,
178,resources/videos_generated\model(vcgpdm)-dataset(walking)-mode(ELBO)-parts(1)-dyn(26)-lvm(25)_final(5).mov,resources/videos_natural\training(22).mov,True,False,right,0,177,177,177,2018-09-18 09:44:43.461929,2018-09-18 09:44:47.399155,0:00:03.937226,4,right,1,0.9343210716847352,26,m,1,7,2018_Sep_18_0924,MP_PerceptionTuring2,59.949590331182236,
179,resources/videos_generated\model(tmp)-dataset(walking)-numprim(14)_final(6).mov,resources/videos_natural\training(46).mov,False,True,left,0,178,178,178,2018-09-18 09:44:49.450272,2018-09-18 09:44:53.387497,0:00:03.937225,4,right,0,0.4005246387464467,26,m,1,7,2018_Sep_18_0924,MP_PerceptionTuring2,59.949590331182236,
180,resources/videos_generated\model(vcgpdm)-dataset(walking)-mode(ELBO)-parts(2)-dyn(28)-lvm(21)_final(9).mov,resources/videos_natural\training(32).mov,False,True,left,0,179,179,179,2018-09-18 09:44:54.905584,2018-09-18 09:44:58.841809,0:00:03.936225,4,right,0,0.23369554087184952,26,m,1,7,2018_Sep_18_0924,MP_PerceptionTuring2,59.949590331182236,
181,resources/videos_generated\model(vcgpdm)-dataset(walking)-mode(ELBO)-parts(2)-dyn(22)-lvm(21)_final(9).mov,resources/videos_natural\training(48).mov,True,True,left,0,180,180,180,2018-09-18 09:45:34.739862,2018-09-18 09:45:38.843097,0:00:04.103235,5,left,1,0.26706732361981267,26,m,1,7,2018_Sep_18_0924,MP_PerceptionTuring2,59.949590331182236,
182,resources/videos_generated\model(vcgpdm)-dataset(walking)-mode(ELBO)-parts(1)-dyn(25)-lvm(22)_final(0).mov,resources/videos_natural\training(6).mov,True,True,left,0,181,181,181,2018-09-18 09:45:40.228176,2018-09-18 09:45:44.164401,0:00:03.936225,5,left,1,0.31717002270806915,26,m,1,7,2018_Sep_18_0924,MP_PerceptionTuring2,59.949590331182236,
183,resources/videos_generated\model(vcgpdm)-dataset(walking)-mode(ELBO)-parts(2)-dyn(26)-lvm(19)_final(1).mov,resources/videos_natural\training(41).mov,False,False,right,0,182,182,182,2018-09-18 09:45:45.599483,2018-09-18 09:45:49.518708,0:00:03.919225,5,right,1,0.23374071642410854,26,m,1,7,2018_Sep_18_0924,MP_PerceptionTuring2,59.949590331182236,
184,resources/videos_generated\model(vcgpdm)-dataset(walking)-mode(ELBO)-parts(1)-dyn(24)-lvm(23)_final(6)_fail.mov,resources/videos_natural\training(16).mov,False,False,right,0,183,183,183,2018-09-18 09:45:50.870785,2018-09-18 09:45:54.840012,0:00:03.969227,5,right,1,0.30042796306452146,26,m,1,7,2018_Sep_18_0924,MP_PerceptionTuring2,59.949590331182236,
185,resources/videos_generated\model(vcgpdm)-dataset(walking)-mode(ELBO)-parts(2)-dyn(26)-lvm(19)_final(9).mov,resources/videos_natural\training(13).mov,True,False,right,0,184,184,184,2018-09-18 09:45:56.258093,2018-09-18 09:46:00.178317,0:00:03.920224,5,right,1,0.4171639993014651,26,m,1,7,2018_Sep_18_0924,MP_PerceptionTuring2,59.949590331182236,
186,resources/videos_generated\model(vcgpdm)-dataset(walking)-mode(ELBO)-parts(1)-dyn(26)-lvm(23)_final(1).mov,resources/videos_natural\training(20).mov,True,True,left,0,185,185,185,2018-09-18 09:46:01.713405,2018-09-18 09:46:05.649630,0:00:03.936225,5,left,1,0.5673534354500589,26,m,1,7,2018_Sep_18_0924,MP_PerceptionTuring2,59.949590331182236,
187,resources/videos_generated\model(vcgpdm)-dataset(walking)-mode(ELBO)-parts(1)-dyn(28)-lvm(27)_final(7).mov,resources/videos_natural\training(28).mov,True,False,right,0,186,186,186,2018-09-18 09:46:07.334727,2018-09-18 09:46:11.287953,0:00:03.953226,5,right,1,0.25038278751208054,26,m,1,7,2018_Sep_18_0924,MP_PerceptionTuring2,59.949590331182236,
188,resources/videos_generated\model(vcgpdm)-dataset(walking)-mode(ELBO)-parts(1)-dyn(22)-lvm(22)_final(8).mov,resources/videos_natural\training(10).mov,False,False,right,0,187,187,187,2018-09-18 09:46:12.656031,2018-09-18 09:46:16.626258,0:00:03.970227,5,right,1,0.21699624741768275,26,m,1,7,2018_Sep_18_0924,MP_PerceptionTuring2,59.949590331182236,
189,resources/videos_generated\model(dmp)-dataset(walking)-npsi(80)_final(4).mov,resources/videos_natural\training(16).mov,True,True,left,0,188,188,188,2018-09-18 09:46:17.960334,2018-09-18 09:46:21.913560,0:00:03.953226,5,left,1,0.33380456453778606,26,m,1,7,2018_Sep_18_0924,MP_PerceptionTuring2,59.949590331182236,
190,resources/videos_generated\model(vcgpdm)-dataset(walking)-mode(ELBO)-parts(1)-dyn(24)-lvm(23)_final(2).mov,resources/videos_natural\training(39).mov,False,True,left,0,189,189,189,2018-09-18 09:46:23.364643,2018-09-18 09:46:27.318870,0:00:03.954227,5,right,0,0.20031412067328347,26,m,1,7,2018_Sep_18_0924,MP_PerceptionTuring2,59.949590331182236,
191,resources/videos_generated\model(vcgpdm)-dataset(walking)-mode(ELBO)-parts(1)-dyn(27)-lvm(26)_final(1).mov,resources/videos_natural\training(39).mov,True,False,right,0,190,190,190,2018-09-18 09:46:28.635945,2018-09-18 09:46:32.590171,0:00:03.954226,5,right,1,0.2669718526194629,26,m,1,7,2018_Sep_18_0924,MP_PerceptionTuring2,59.949590331182236,
192,resources/videos_generated\model(vcgpdm)-dataset(walking)-mode(ELBO)-parts(2)-dyn(23)-lvm(18)_final(7).mov,resources/videos_natural\training(35).mov,True,False,right,0,191,191,191,2018-09-18 09:46:33.974250,2018-09-18 09:46:37.911475,0:00:03.937225,5,right,1,0.21703570073304945,26,m,1,7,2018_Sep_18_0924,MP_PerceptionTuring2,59.949590331182236,
193,resources/videos_generated\model(vcgpdm)-dataset(walking)-mode(ELBO)-parts(1)-dyn(27)-lvm(28)_final(9).mov,resources/videos_natural\training(1).mov,False,False,right,0,192,192,192,2018-09-18 09:46:39.245552,2018-09-18 09:46:43.198778,0:00:03.953226,5,left,0,0.4672519410428322,26,m,1,7,2018_Sep_18_0924,MP_PerceptionTuring2,59.949590331182236,
194,resources/videos_generated\model(vcgpdm)-dataset(walking)-mode(ELBO)-parts(2)-dyn(27)-lvm(20)_final(7).mov,resources/videos_natural\training(3).mov,False,True,left,0,193,193,193,2018-09-18 09:46:44.783869,2018-09-18 09:46:48.770097,0:00:03.986228,5,left,1,0.35050596618430063,26,m,1,7,2018_Sep_18_0924,MP_PerceptionTuring2,59.949590331182236,
195,resources/videos_generated\model(dmp)-dataset(walking)-npsi(80)_final(8).mov,resources/videos_natural\training(36).mov,True,True,left,0,194,194,194,2018-09-18 09:46:50.238181,2018-09-18 09:46:54.308413,0:00:04.070232,5,left,1,0.28372716375861273,26,m,1,7,2018_Sep_18_0924,MP_PerceptionTuring2,59.949590331182236,
196,resources/videos_generated\model(vcgpdm)-dataset(walking)-mode(ELBO)-parts(2)-dyn(24)-lvm(19)_final(5).mov,resources/videos_natural\training(8).mov,True,False,right,0,195,195,195,2018-09-18 09:46:55.709493,2018-09-18 09:46:59.846730,0:00:04.137237,5,right,1,0.25039844837010605,26,m,1,7,2018_Sep_18_0924,MP_PerceptionTuring2,59.949590331182236,
197,resources/videos_generated\model(vcgpdm)-dataset(walking)-mode(ELBO)-parts(2)-dyn(25)-lvm(20)_final(1).mov,resources/videos_natural\training(24).mov,True,True,left,0,196,196,196,2018-09-18 09:47:01.214808,2018-09-18 09:47:05.185035,0:00:03.970227,5,right,0,0.40051289310258653,26,m,1,7,2018_Sep_18_0924,MP_PerceptionTuring2,59.949590331182236,
198,resources/videos_generated\model(vcgpdm)-dataset(walking)-mode(ELBO)-parts(1)-dyn(23)-lvm(24)_final(3).mov,resources/videos_natural\training(24).mov,False,True,left,0,197,197,197,2018-09-18 09:47:06.702122,2018-09-18 09:47:10.656348,0:00:03.954226,5,left,1,0.33381239496657145,26,m,1,7,2018_Sep_18_0924,MP_PerceptionTuring2,59.949590331182236,
199,resources/videos_generated\model(vcgpdm)-dataset(walking)-mode(ELBO)-parts(1)-dyn(26)-lvm(27)_final(3).mov,resources/videos_natural\training(46).mov,False,True,left,0,198,198,198,2018-09-18 09:47:12.107431,2018-09-18 09:47:16.043656,0:00:03.936225,5,left,1,0.23373650003895818,26,m,1,7,2018_Sep_18_0924,MP_PerceptionTuring2,59.949590331182236,
200,resources/videos_generated\model(tmp)-dataset(walking)-numprim(13)_final(8).mov,resources/videos_natural\training(0).mov,False,True,left,0,199,199,199,2018-09-18 09:47:17.394734,2018-09-18 09:47:21.364961,0:00:03.970227,5,left,1,0.3672079701718758,26,m,1,7,2018_Sep_18_0924,MP_PerceptionTuring2,59.949590331182236,
201,resources/videos_generated\model(dmp)-dataset(walking)-npsi(50)_final(0).mov,resources/videos_natural\training(44).mov,True,False,right,0,200,200,200,2018-09-18 09:47:22.850046,2018-09-18 09:47:26.970281,0:00:04.120235,5,left,0,0.25042374667964395,26,m,1,7,2018_Sep_18_0924,MP_PerceptionTuring2,59.949590331182236,
202,resources/videos_generated\model(vcgpdm)-dataset(walking)-mode(ELBO)-parts(2)-dyn(26)-lvm(17)_final(7).mov,resources/videos_natural\training(14).mov,False,False,right,0,201,201,201,2018-09-18 09:47:28.338360,2018-09-18 09:47:32.291586,0:00:03.953226,5,right,1,0.25042073497616,26,m,1,7,2018_Sep_18_0924,MP_PerceptionTuring2,59.949590331182236,
203,resources/videos_generated\model(vcgpdm)-dataset(walking)-mode(ELBO)-parts(2)-dyn(25)-lvm(20)_final(7).mov,resources/videos_natural\training(24).mov,True,True,left,0,202,202,202,2018-09-18 09:47:33.659664,2018-09-18 09:47:37.595889,0:00:03.936225,5,right,0,0.267071238833978,26,m,1,7,2018_Sep_18_0924,MP_PerceptionTuring2,59.949590331182236,
204,resources/videos_generated\model(vcgpdm)-dataset(walking)-mode(ELBO)-parts(1)-dyn(22)-lvm(22)_final(0).mov,resources/videos_natural\training(5).mov,False,True,left,0,203,203,203,2018-09-18 09:47:38.979968,2018-09-18 09:47:42.934195,0:00:03.954227,5,left,1,0.23371722513729765,26,m,1,7,2018_Sep_18_0924,MP_PerceptionTuring2,59.949590331182236,
205,resources/videos_generated\model(vcgpdm)-dataset(walking)-mode(ELBO)-parts(1)-dyn(27)-lvm(28)_final(1).mov,resources/videos_natural\training(21).mov,False,True,left,0,204,204,204,2018-09-18 09:47:44.285272,2018-09-18 09:47:48.221497,0:00:03.936225,5,right,0,0.3003993518814241,26,m,1,7,2018_Sep_18_0924,MP_PerceptionTuring2,59.949590331182236,
206,resources/videos_generated\model(vcgpdm)-dataset(walking)-mode(ELBO)-parts(1)-dyn(23)-lvm(28)_final(6)_hip-corrected.mov,resources/videos_natural\training(0).mov,False,True,left,0,205,205,205,2018-09-18 09:47:49.639578,2018-09-18 09:47:53.576803,0:00:03.937225,5,right,0,0.4338491377493483,26,m,1,7,2018_Sep_18_0924,MP_PerceptionTuring2,59.949590331182236,
207,resources/videos_generated\model(vcgpdm)-dataset(walking)-mode(ELBO)-parts(2)-dyn(28)-lvm(23)_final(1).mov,resources/videos_natural\training(33).mov,True,True,left,0,206,206,206,2018-09-18 09:47:55.127892,2018-09-18 09:47:59.098119,0:00:03.970227,5,left,1,0.2504074834810126,26,m,1,7,2018_Sep_18_0924,MP_PerceptionTuring2,59.949590331182236,
208,resources/videos_generated\model(vcgpdm)-dataset(walking)-mode(ELBO)-parts(2)-dyn(25)-lvm(22)_final(1).mov,resources/videos_natural\training(8).mov,True,False,right,0,207,207,207,2018-09-18 09:48:00.466197,2018-09-18 09:48:04.402422,0:00:03.936225,5,right,1,0.25036140441761745,26,m,1,7,2018_Sep_18_0924,MP_PerceptionTuring2,59.949590331182236,
209,resources/videos_generated\model(tmp)-dataset(walking)-numprim(15)_final(8).mov,resources/videos_natural\training(1).mov,False,False,right,0,208,208,208,2018-09-18 09:48:05.770501,2018-09-18 09:48:09.773730,0:00:04.003229,5,right,1,0.2672347743332466,26,m,1,7,2018_Sep_18_0924,MP_PerceptionTuring2,59.949590331182236,
210,resources/videos_generated\model(tmp)-dataset(walking)-numprim(15)_final(4).mov,resources/videos_natural\training(11).mov,True,False,right,0,209,209,209,2018-09-18 09:48:11.157809,2018-09-18 09:48:15.295045,0:00:04.137236,5,left,0,0.36716911919756967,26,m,1,7,2018_Sep_18_0924,MP_PerceptionTuring2,59.949590331182236,
211,resources/videos_generated\model(vcgpdm)-dataset(walking)-mode(ELBO)-parts(2)-dyn(28)-lvm(21)_final(5).mov,resources/videos_natural\training(23).mov,False,False,right,0,210,210,210,2018-09-18 09:48:16.780130,2018-09-18 09:48:20.800360,0:00:04.020230,5,left,0,0.46723989422889645,26,m,1,7,2018_Sep_18_0924,MP_PerceptionTuring2,59.949590331182236,
212,resources/videos_generated\model(vcgpdm)-dataset(walking)-mode(ELBO)-parts(2)-dyn(26)-lvm(17)_final(3).mov,resources/videos_natural\training(2).mov,True,False,right,0,211,211,211,2018-09-18 09:48:22.384451,2018-09-18 09:48:26.354678,0:00:03.970227,5,right,1,0.05019184551201761,26,m,1,7,2018_Sep_18_0924,MP_PerceptionTuring2,59.949590331182236,
213,resources/videos_generated\model(vcgpdm)-dataset(walking)-mode(ELBO)-parts(1)-dyn(23)-lvm(28)_final(4)_hip-corrected.mov,resources/videos_natural\training(22).mov,True,True,left,0,212,212,212,2018-09-18 09:48:27.522745,2018-09-18 09:48:31.458970,0:00:03.936225,5,left,1,0.30043699817497327,26,m,1,7,2018_Sep_18_0924,MP_PerceptionTuring2,59.949590331182236,
214,resources/videos_generated\model(vcgpdm)-dataset(walking)-mode(ELBO)-parts(1)-dyn(27)-lvm(28)_final(5).mov,resources/videos_natural\training(39).mov,False,True,left,0,213,213,213,2018-09-18 09:48:32.877051,2018-09-18 09:48:36.830277,0:00:03.953226,5,right,0,0.35048036670514193,26,m,1,7,2018_Sep_18_0924,MP_PerceptionTuring2,59.949590331182236,
215,resources/videos_generated\model(vcgpdm)-dataset(walking)-mode(ELBO)-parts(1)-dyn(24)-lvm(23)_final(4)_fail.mov,resources/videos_natural\training(31).mov,False,False,right,0,214,214,214,2018-09-18 09:48:38.298361,2018-09-18 09:48:42.251587,0:00:03.953226,5,right,1,0.4005153024650099,26,m,1,7,2018_Sep_18_0924,MP_PerceptionTuring2,59.949590331182236,
216,resources/videos_generated\model(vcgpdm)-dataset(walking)-mode(ELBO)-parts(2)-dyn(24)-lvm(23)_final(5).mov,resources/videos_natural\training(37).mov,True,False,right,0,215,215,215,2018-09-18 09:48:43.769674,2018-09-18 09:48:47.722900,0:00:03.953226,5,right,1,0.36720194676536266,26,m,1,7,2018_Sep_18_0924,MP_PerceptionTuring2,59.949590331182236,
217,resources/videos_generated\model(vcgpdm)-dataset(walking)-mode(ELBO)-parts(1)-dyn(24)-lvm(27)_final(6).mov,resources/videos_natural\training(20).mov,False,True,left,0,216,216,216,2018-09-18 09:48:49.207985,2018-09-18 09:48:53.161211,0:00:03.953226,5,left,1,0.48393888651298766,26,m,1,7,2018_Sep_18_0924,MP_PerceptionTuring2,59.949590331182236,
218,resources/videos_generated\model(vcgpdm)-dataset(walking)-mode(ELBO)-parts(1)-dyn(25)-lvm(24)_final(9).mov,resources/videos_natural\training(48).mov,False,False,right,0,217,217,217,2018-09-18 09:48:54.762303,2018-09-18 09:48:58.716529,0:00:03.954226,5,left,0,0.2336774706509459,26,m,1,7,2018_Sep_18_0924,MP_PerceptionTuring2,59.949590331182236,
219,resources/videos_generated\model(vcgpdm)-dataset(walking)-mode(ELBO)-parts(2)-dyn(22)-lvm(17)_final(5).mov,resources/videos_natural\training(12).mov,True,False,right,0,218,218,218,2018-09-18 09:49:00.067606,2018-09-18 09:49:04.070835,0:00:04.003229,5,right,1,0.2503598985658755,26,m,1,7,2018_Sep_18_0924,MP_PerceptionTuring2,59.949590331182236,
220,resources/videos_generated\model(vcgpdm)-dataset(walking)-mode(ELBO)-parts(1)-dyn(26)-lvm(27)_final(7).mov,resources/videos_natural\training(47).mov,False,False,right,0,219,219,219,2018-09-18 09:49:05.438914,2018-09-18 09:49:09.509146,0:00:04.070232,5,right,1,0.28380576921881584,26,m,1,7,2018_Sep_18_0924,MP_PerceptionTuring2,59.949590331182236,
221,resources/videos_generated\model(vcgpdm)-dataset(walking)-mode(ELBO)-parts(2)-dyn(22)-lvm(17)_final(1).mov,resources/videos_natural\training(32).mov,True,False,right,0,220,220,220,2018-09-18 09:49:10.910226,2018-09-18 09:49:14.863453,0:00:03.953227,5,left,0,0.2337102982187389,26,m,1,7,2018_Sep_18_0924,MP_PerceptionTuring2,59.949590331182236,
222,resources/videos_generated\model(dmp)-dataset(walking)-npsi(60)_final(4).mov,resources/videos_natural\training(14).mov,True,True,left,0,221,221,221,2018-09-18 09:49:16.214530,2018-09-18 09:49:20.167756,0:00:03.953226,5,right,0,0.233733488335929,26,m,1,7,2018_Sep_18_0924,MP_PerceptionTuring2,59.949590331182236,
223,resources/videos_generated\model(vcgpdm)-dataset(walking)-mode(ELBO)-parts(2)-dyn(26)-lvm(21)_final(7).mov,resources/videos_natural\training(28).mov,False,True,left,0,222,222,222,2018-09-18 09:49:21.518833,2018-09-18 09:49:25.539063,0:00:04.020230,5,right,0,0.23367867533215758,26,m,1,7,2018_Sep_18_0924,MP_PerceptionTuring2,59.949590331182236,
224,resources/videos_generated\model(vcgpdm)-dataset(walking)-mode(ELBO)-parts(2)-dyn(26)-lvm(23)_final(3).mov,resources/videos_natural\training(6).mov,True,False,right,0,223,223,223,2018-09-18 09:49:26.890140,2018-09-18 09:49:30.827366,0:00:03.937226,5,right,1,0.2837419211055021,26,m,1,7,2018_Sep_18_0924,MP_PerceptionTuring2,59.949590331182236,
225,resources/videos_generated\model(vcgpdm)-dataset(walking)-mode(ELBO)-parts(1)-dyn(28)-lvm(25)_final(5).mov,resources/videos_natural\training(33).mov,True,True,left,0,224,224,224,2018-09-18 09:49:32.228446,2018-09-18 09:49:36.298679,0:00:04.070233,5,right,0,0.35033881664185174,26,m,1,7,2018_Sep_18_0924,MP_PerceptionTuring2,59.949590331182236,
226,resources/videos_generated\model(vcgpdm)-dataset(walking)-mode(ELBO)-parts(2)-dyn(23)-lvm(20)_final(9).mov,resources/videos_natural\training(17).mov,False,False,right,0,225,225,225,2018-09-18 09:50:09.310567,2018-09-18 09:50:13.246792,0:00:03.936225,6,right,1,0.6173889735509874,26,m,1,7,2018_Sep_18_0924,MP_PerceptionTuring2,59.949590331182236,
227,resources/videos_generated\model(vcgpdm)-dataset(walking)-mode(ELBO)-parts(2)-dyn(28)-lvm(21)_final(7).mov,resources/videos_natural\training(28).mov,False,True,left,0,226,226,226,2018-09-18 09:50:14.981891,2018-09-18 09:50:18.935117,0:00:03.953226,6,right,0,1.9351504948231195,26,m,1,7,2018_Sep_18_0924,MP_PerceptionTuring2,59.949590331182236,
228,resources/videos_generated\model(vcgpdm)-dataset(walking)-mode(ELBO)-parts(1)-dyn(27)-lvm(28)_final(3).mov,resources/videos_natural\training(6).mov,False,False,right,0,227,227,227,2018-09-18 09:50:21.988292,2018-09-18 09:50:25.924517,0:00:03.936225,6,right,1,0.2503665243134492,26,m,1,7,2018_Sep_18_0924,MP_PerceptionTuring2,59.949590331182236,
229,resources/videos_generated\model(vcgpdm)-dataset(walking)-mode(ELBO)-parts(1)-dyn(23)-lvm(26)_final(5)_hip-corrected.mov,resources/videos_natural\training(47).mov,True,True,left,0,228,228,228,2018-09-18 09:50:27.292595,2018-09-18 09:50:31.379829,0:00:04.087234,6,left,1,0.35052222938338673,26,m,1,7,2018_Sep_18_0924,MP_PerceptionTuring2,59.949590331182236,
230,resources/videos_generated\model(tmp)-dataset(walking)-numprim(12)_final(0).mov,resources/videos_natural\training(1).mov,True,False,right,0,229,229,229,2018-09-18 09:50:32.847913,2018-09-18 09:50:36.767137,0:00:03.919224,6,left,0,0.2670670224492824,26,m,1,7,2018_Sep_18_0924,MP_PerceptionTuring2,59.949590331182236,
231,resources/videos_generated\model(dmp)-dataset(walking)-npsi(60)_final(8).mov,resources/videos_natural\training(41).mov,False,False,right,0,230,230,230,2018-09-18 09:50:38.152216,2018-09-18 09:50:42.222449,0:00:04.070233,6,right,1,0.31706792596014566,26,m,1,7,2018_Sep_18_0924,MP_PerceptionTuring2,59.949590331182236,
232,resources/videos_generated\model(vcgpdm)-dataset(walking)-mode(ELBO)-parts(1)-dyn(28)-lvm(23)_final(9).mov,resources/videos_natural\training(5).mov,False,False,right,0,231,231,231,2018-09-18 09:50:43.656531,2018-09-18 09:50:47.760766,0:00:04.104235,6,right,1,0.40042103614678126,26,m,1,7,2018_Sep_18_0924,MP_PerceptionTuring2,59.949590331182236,
233,resources/videos_generated\model(vcgpdm)-dataset(walking)-mode(ELBO)-parts(1)-dyn(25)-lvm(26)_final(2).mov,resources/videos_natural\training(25).mov,True,True,left,0,232,232,232,2018-09-18 09:50:49.277853,2018-09-18 09:50:53.215078,0:00:03.937225,6,right,0,0.26705045808012073,26,m,1,7,2018_Sep_18_0924,MP_PerceptionTuring2,59.949590331182236,
234,resources/videos_generated\model(dmp)-dataset(walking)-npsi(60)_final(6).mov,resources/videos_natural\training(18).mov,False,False,right,0,233,233,233,2018-09-18 09:50:54.599157,2018-09-18 09:50:58.553383,0:00:03.954226,6,right,1,0.2503957378371524,26,m,1,7,2018_Sep_18_0924,MP_PerceptionTuring2,59.949590331182236,
235,resources/videos_generated\model(dmp)-dataset(walking)-npsi(80)_final(0).mov,resources/videos_natural\training(2).mov,True,False,right,0,234,234,234,2018-09-18 09:50:59.920462,2018-09-18 09:51:03.857687,0:00:03.937225,6,right,1,0.26708599618086737,26,m,1,7,2018_Sep_18_0924,MP_PerceptionTuring2,59.949590331182236,
236,resources/videos_generated\model(vcgpdm)-dataset(walking)-mode(ELBO)-parts(2)-dyn(26)-lvm(19)_final(3).mov,resources/videos_natural\training(27).mov,False,False,right,0,235,235,235,2018-09-18 09:51:05.241766,2018-09-18 09:51:09.178991,0:00:03.937225,6,right,1,0.2003758605942494,26,m,1,7,2018_Sep_18_0924,MP_PerceptionTuring2,59.949590331182236,
237,resources/videos_generated\model(dmp)-dataset(walking)-npsi(90)_final(4).mov,resources/videos_natural\training(35).mov,True,True,left,0,236,236,236,2018-09-18 09:51:10.497066,2018-09-18 09:51:14.416291,0:00:03.919225,6,left,1,0.584001228775378,26,m,1,7,2018_Sep_18_0924,MP_PerceptionTuring2,59.949590331182236,
238,resources/videos_generated\model(vcgpdm)-dataset(walking)-mode(ELBO)-parts(2)-dyn(23)-lvm(18)_final(9).mov,resources/videos_natural\training(13).mov,False,False,right,0,237,237,237,2018-09-18 09:51:16.118388,2018-09-18 09:51:20.054613,0:00:03.936225,6,right,1,0.2336991549159393,26,m,1,7,2018_Sep_18_0924,MP_PerceptionTuring2,59.949590331182236,
239,resources/videos_generated\model(vcgpdm)-dataset(walking)-mode(ELBO)-parts(2)-dyn(27)-lvm(22)_final(7).mov,resources/videos_natural\training(42).mov,True,True,left,0,238,238,238,2018-09-18 09:51:21.405690,2018-09-18 09:51:25.375917,0:00:03.970227,6,left,1,0.25039332847472906,26,m,1,7,2018_Sep_18_0924,MP_PerceptionTuring2,59.949590331182236,
240,resources/videos_generated\model(vcgpdm)-dataset(walking)-mode(ELBO)-parts(2)-dyn(22)-lvm(21)_final(7).mov,resources/videos_natural\training(43).mov,False,False,right,0,239,239,239,2018-09-18 09:51:26.743996,2018-09-18 09:51:30.697222,0:00:03.953226,6,right,1,0.2670664201082218,26,m,1,7,2018_Sep_18_0924,MP_PerceptionTuring2,59.949590331182236,
241,resources/videos_generated\model(vcgpdm)-dataset(walking)-mode(ELBO)-parts(1)-dyn(28)-lvm(27)_final(3).mov,resources/videos_natural\training(34).mov,True,False,right,0,240,240,240,2018-09-18 09:51:32.082301,2018-09-18 09:51:36.035527,0:00:03.953226,6,left,0,0.28372565790687077,26,m,1,7,2018_Sep_18_0924,MP_PerceptionTuring2,59.949590331182236,
242,resources/videos_generated\model(vcgpdm)-dataset(walking)-mode(ELBO)-parts(2)-dyn(26)-lvm(17)_final(5).mov,resources/videos_natural\training(30).mov,True,True,left,0,241,241,241,2018-09-18 09:51:37.436607,2018-09-18 09:51:41.389833,0:00:03.953226,6,left,1,0.150273763846144,26,m,1,7,2018_Sep_18_0924,MP_PerceptionTuring2,59.949590331182236,
243,resources/videos_generated\model(vcgpdm)-dataset(walking)-mode(ELBO)-parts(2)-dyn(24)-lvm(23)_final(3).mov,resources/videos_natural\training(42).mov,True,False,right,0,242,242,242,2018-09-18 09:51:42.657906,2018-09-18 09:51:46.795143,0:00:04.137237,6,left,0,0.43384974008995414,26,m,1,7,2018_Sep_18_0924,MP_PerceptionTuring2,59.949590331182236,
244,resources/videos_generated\model(vcgpdm)-dataset(walking)-mode(ELBO)-parts(1)-dyn(28)-lvm(27)_final(9).mov,resources/videos_natural\training(40).mov,True,True,left,0,243,243,243,2018-09-18 09:51:48.346231,2018-09-18 09:51:52.266456,0:00:03.920225,6,left,1,0.2837172251370248,26,m,1,7,2018_Sep_18_0924,MP_PerceptionTuring2,59.949590331182236,
245,resources/videos_generated\model(vcgpdm)-dataset(walking)-mode(ELBO)-parts(2)-dyn(27)-lvm(22)_final(5).mov,resources/videos_natural\training(30).mov,False,False,right,0,244,244,244,2018-09-18 09:51:53.667536,2018-09-18 09:51:57.720768,0:00:04.053232,6,right,1,0.26708930905533634,26,m,1,7,2018_Sep_18_0924,MP_PerceptionTuring2,59.949590331182236,
246,resources/videos_generated\model(tmp)-dataset(walking)-numprim(13)_final(2).mov,resources/videos_natural\training(26).mov,False,True,left,0,245,245,245,2018-09-18 09:51:59.105847,2018-09-18 09:52:03.192080,0:00:04.086233,6,right,0,0.4339111788408445,26,m,1,7,2018_Sep_18_0924,MP_PerceptionTuring2,59.949590331182236,
247,resources/videos_generated\model(vcgpdm)-dataset(walking)-mode(ELBO)-parts(2)-dyn(24)-lvm(19)_final(3).mov,resources/videos_natural\training(16).mov,True,True,left,0,246,246,246,2018-09-18 09:52:04.743169,2018-09-18 09:52:08.747398,0:00:04.004229,6,left,1,0.36716189110848063,26,m,1,7,2018_Sep_18_0924,MP_PerceptionTuring2,59.949590331182236,
248,resources/videos_generated\model(dmp)-dataset(walking)-npsi(60)_final(2).mov,resources/videos_natural\training(1).mov,False,False,right,0,247,247,247,2018-09-18 09:52:10.231483,2018-09-18 09:52:14.318717,0:00:04.087234,6,right,1,0.3838373921053062,26,m,1,7,2018_Sep_18_0924,MP_PerceptionTuring2,59.949590331182236,
249,resources/videos_generated\model(dmp)-dataset(walking)-npsi(70)_final(6).mov,resources/videos_natural\training(19).mov,False,True,left,0,248,248,248,2018-09-18 09:52:15.819803,2018-09-18 09:52:19.740027,0:00:03.920224,6,left,1,2.9693773001886257,26,m,1,7,2018_Sep_18_0924,MP_PerceptionTuring2,59.949590331182236,
250,resources/videos_generated\model(vcgpdm)-dataset(walking)-mode(ELBO)-parts(1)-dyn(24)-lvm(25)_final(4).mov,resources/videos_natural\training(3).mov,True,False,right,0,249,249,249,2018-09-18 09:52:23.826261,2018-09-18 09:52:27.763486,0:00:03.937225,6,right,1,0.38381480432963144,26,m,1,7,2018_Sep_18_0924,MP_PerceptionTuring2,59.949590331182236,
251,resources/videos_generated\model(vcgpdm)-dataset(walking)-mode(ELBO)-parts(2)-dyn(26)-lvm(23)_final(9).mov,resources/videos_natural\training(14).mov,False,False,right,0,250,250,250,2018-09-18 09:52:29.264572,2018-09-18 09:52:33.217798,0:00:03.953226,6,left,0,0.21702184689684145,26,m,1,7,2018_Sep_18_0924,MP_PerceptionTuring2,59.949590331182236,
252,resources/videos_generated\model(vcgpdm)-dataset(walking)-mode(ELBO)-parts(2)-dyn(28)-lvm(23)_final(9).mov,resources/videos_natural\training(44).mov,True,True,left,0,251,251,251,2018-09-18 09:52:34.552874,2018-09-18 09:52:38.489099,0:00:03.936225,6,left,1,0.2837440292978499,26,m,1,7,2018_Sep_18_0924,MP_PerceptionTuring2,59.949590331182236,
253,resources/videos_generated\model(vcgpdm)-dataset(walking)-mode(ELBO)-parts(2)-dyn(22)-lvm(19)_final(7).mov,resources/videos_natural\training(15).mov,False,False,right,0,252,252,252,2018-09-18 09:52:39.890179,2018-09-18 09:52:43.827405,0:00:03.937226,6,right,1,0.46719471867709217,26,m,1,7,2018_Sep_18_0924,MP_PerceptionTuring2,59.949590331182236,
254,resources/videos_generated\model(vcgpdm)-dataset(walking)-mode(ELBO)-parts(2)-dyn(22)-lvm(23)_final(5).mov,resources/videos_natural\training(25).mov,True,False,right,0,253,253,253,2018-09-18 09:52:45.412495,2018-09-18 09:52:49.365721,0:00:03.953226,6,right,1,0.7508113529174807,26,m,1,7,2018_Sep_18_0924,MP_PerceptionTuring2,59.949590331182236,
255,resources/videos_generated\model(vcgpdm)-dataset(walking)-mode(ELBO)-parts(2)-dyn(27)-lvm(22)_final(3).mov,resources/videos_natural\training(15).mov,False,True,left,0,254,254,254,2018-09-18 09:52:51.233828,2018-09-18 09:52:55.187054,0:00:03.953226,6,right,0,1.3012763599349455,26,m,1,7,2018_Sep_18_0924,MP_PerceptionTuring2,59.949590331182236,
256,resources/videos_generated\model(vcgpdm)-dataset(walking)-mode(ELBO)-parts(1)-dyn(26)-lvm(27)_final(5).mov,resources/videos_natural\training(22).mov,False,True,left,0,255,255,255,2018-09-18 09:52:57.606193,2018-09-18 09:53:01.559419,0:00:03.953226,6,right,0,0.2503695360169331,26,m,1,7,2018_Sep_18_0924,MP_PerceptionTuring2,59.949590331182236,
257,resources/videos_generated\model(vcgpdm)-dataset(walking)-mode(ELBO)-parts(2)-dyn(28)-lvm(17)_final(9).mov,resources/videos_natural\training(27).mov,True,True,left,0,256,256,256,2018-09-18 09:53:02.927497,2018-09-18 09:53:06.880723,0:00:03.953226,6,left,1,0.5173010318094384,26,m,1,7,2018_Sep_18_0924,MP_PerceptionTuring2,59.949590331182236,
258,resources/videos_generated\model(dmp)-dataset(walking)-npsi(80)_final(6).mov,resources/videos_natural\training(39).mov,False,False,right,0,257,257,257,2018-09-18 09:53:08.515817,2018-09-18 09:53:12.552048,0:00:04.036231,6,right,1,0.23364976297898465,26,m,1,7,2018_Sep_18_0924,MP_PerceptionTuring2,59.949590331182236,
259,resources/videos_generated\model(vcgpdm)-dataset(walking)-mode(ELBO)-parts(1)-dyn(23)-lvm(28)_final(2).mov,resources/videos_natural\training(5).mov,True,False,right,0,258,258,258,2018-09-18 09:53:13.903125,2018-09-18 09:53:17.940356,0:00:04.037231,6,left,0,0.18363380095024695,26,m,1,7,2018_Sep_18_0924,MP_PerceptionTuring2,59.949590331182236,
260,resources/videos_generated\model(vcgpdm)-dataset(walking)-mode(ELBO)-parts(1)-dyn(23)-lvm(28)_final(0).mov,resources/videos_natural\training(39).mov,True,False,right,0,259,259,259,2018-09-18 09:53:19.241430,2018-09-18 09:53:23.378667,0:00:04.137237,6,right,1,0.30045868243996665,26,m,1,7,2018_Sep_18_0924,MP_PerceptionTuring2,59.949590331182236,
261,resources/videos_generated\model(vcgpdm)-dataset(walking)-mode(ELBO)-parts(1)-dyn(24)-lvm(25)_final(8).mov,resources/videos_natural\training(21).mov,False,True,left,0,260,260,260,2018-09-18 09:53:24.795748,2018-09-18 09:53:28.732973,0:00:03.937225,6,right,0,0.2503833898526864,26,m,1,7,2018_Sep_18_0924,MP_PerceptionTuring2,59.949590331182236,
262,resources/videos_generated\model(vcgpdm)-dataset(walking)-mode(ELBO)-parts(1)-dyn(25)-lvm(22)_final(2).mov,resources/videos_natural\training(14).mov,True,True,left,0,261,261,261,2018-09-18 09:53:30.101051,2018-09-18 09:53:34.087279,0:00:03.986228,6,right,0,0.2837491491941364,26,m,1,7,2018_Sep_18_0924,MP_PerceptionTuring2,59.949590331182236,
263,resources/videos_generated\model(vcgpdm)-dataset(walking)-mode(ELBO)-parts(1)-dyn(28)-lvm(25)_final(7).mov,resources/videos_natural\training(8).mov,False,False,right,0,262,262,262,2018-09-18 09:53:35.488359,2018-09-18 09:53:39.442586,0:00:03.954227,6,right,1,0.2170236539191137,26,m,1,7,2018_Sep_18_0924,MP_PerceptionTuring2,59.949590331182236,
264,resources/videos_generated\model(tmp)-dataset(walking)-numprim(11)_final(0).mov,resources/videos_natural\training(19).mov,False,True,left,0,263,263,263,2018-09-18 09:53:40.776662,2018-09-18 09:53:44.712887,0:00:03.936225,6,right,0,0.3003984483707427,26,m,1,7,2018_Sep_18_0924,MP_PerceptionTuring2,59.949590331182236,
265,resources/videos_generated\model(vcgpdm)-dataset(walking)-mode(ELBO)-parts(2)-dyn(28)-lvm(19)_final(9).mov,resources/videos_natural\training(40).mov,False,True,left,0,264,264,264,2018-09-18 09:53:46.130968,2018-09-18 09:53:50.251204,0:00:04.120236,6,left,1,0.5506399869891538,26,m,1,7,2018_Sep_18_0924,MP_PerceptionTuring2,59.949590331182236,
266,resources/videos_generated\model(vcgpdm)-dataset(walking)-mode(ELBO)-parts(1)-dyn(25)-lvm(24)_final(1).mov,resources/videos_natural\training(19).mov,False,True,left,0,265,265,265,2018-09-18 09:53:51.919299,2018-09-18 09:53:55.872525,0:00:03.953226,6,right,0,0.2670381100956547,26,m,1,7,2018_Sep_18_0924,MP_PerceptionTuring2,59.949590331182236,
267,resources/videos_generated\model(vcgpdm)-dataset(walking)-mode(ELBO)-parts(1)-dyn(27)-lvm(26)_final(5).mov,resources/videos_natural\training(13).mov,True,True,left,0,266,266,266,2018-09-18 09:53:57.257605,2018-09-18 09:54:01.227832,0:00:03.970227,6,left,1,0.500571320149902,26,m,1,7,2018_Sep_18_0924,MP_PerceptionTuring2,59.949590331182236,
268,resources/videos_generated\model(vcgpdm)-dataset(walking)-mode(ELBO)-parts(2)-dyn(24)-lvm(21)_final(5).mov,resources/videos_natural\training(48).mov,True,True,left,0,267,267,267,2018-09-18 09:54:02.845924,2018-09-18 09:54:06.832152,0:00:03.986228,6,left,1,0.3171094874683149,26,m,1,7,2018_Sep_18_0924,MP_PerceptionTuring2,59.949590331182236,
269,resources/videos_generated\model(vcgpdm)-dataset(walking)-mode(ELBO)-parts(1)-dyn(23)-lvm(22)_final(9)_fail.mov,resources/videos_natural\training(36).mov,True,True,left,0,268,268,268,2018-09-18 09:54:08.267234,2018-09-18 09:54:12.220460,0:00:03.953226,6,left,1,0.2503918226229871,26,m,1,7,2018_Sep_18_0924,MP_PerceptionTuring2,59.949590331182236,
270,resources/videos_generated\model(tmp)-dataset(walking)-numprim(11)_final(6).mov,resources/videos_natural\training(36).mov,True,False,right,0,269,269,269,2018-09-18 09:54:13.588539,2018-09-18 09:54:17.558766,0:00:03.970227,6,left,0,0.2670393147773211,26,m,1,7,2018_Sep_18_0924,MP_PerceptionTuring2,59.949590331182236,
271,resources/videos_generated\model(vcgpdm)-dataset(walking)-mode(ELBO)-parts(2)-dyn(24)-lvm(23)_final(7).mov,resources/videos_natural\training(40).mov,True,False,right,0,270,270,270,2018-09-18 09:54:58.060082,2018-09-18 09:55:02.130315,0:00:04.070233,7,right,1,1.367999747016711,26,m,1,7,2018_Sep_18_0924,MP_PerceptionTuring2,59.949590331182236,
272,resources/videos_generated\model(vcgpdm)-dataset(walking)-mode(ELBO)-parts(1)-dyn(25)-lvm(26)_final(8).mov,resources/videos_natural\training(31).mov,True,False,right,0,271,271,271,2018-09-18 09:55:04.615457,2018-09-18 09:55:08.568683,0:00:03.953226,7,right,1,0.23372294737328048,26,m,1,7,2018_Sep_18_0924,MP_PerceptionTuring2,59.949590331182236,
273,resources/videos_generated\model(vcgpdm)-dataset(walking)-mode(ELBO)-parts(2)-dyn(24)-lvm(17)_final(1).mov,resources/videos_natural\training(3).mov,False,True,left,0,272,272,272,2018-09-18 09:55:09.920761,2018-09-18 09:55:13.889988,0:00:03.969227,7,left,1,0.23370066076768126,26,m,1,7,2018_Sep_18_0924,MP_PerceptionTuring2,59.949590331182236,
274,resources/videos_generated\model(vcgpdm)-dataset(walking)-mode(ELBO)-parts(2)-dyn(23)-lvm(20)_final(5).mov,resources/videos_natural\training(47).mov,True,True,left,0,273,273,273,2018-09-18 09:55:15.242065,2018-09-18 09:55:19.178290,0:00:03.936225,7,left,1,0.23367476011799226,26,m,1,7,2018_Sep_18_0924,MP_PerceptionTuring2,59.949590331182236,
275,resources/videos_generated\model(vcgpdm)-dataset(walking)-mode(ELBO)-parts(1)-dyn(28)-lvm(25)_final(9).mov,resources/videos_natural\training(31).mov,True,False,right,0,274,274,274,2018-09-18 09:55:20.529367,2018-09-18 09:55:24.482594,0:00:03.953227,7,left,0,0.43392232214409887,26,m,1,7,2018_Sep_18_0924,MP_PerceptionTuring2,59.949590331182236,
276,resources/videos_generated\model(vcgpdm)-dataset(walking)-mode(ELBO)-parts(2)-dyn(28)-lvm(19)_final(7).mov,resources/videos_natural\training(17).mov,False,False,right,0,275,275,275,2018-09-18 09:55:26.034682,2018-09-18 09:55:29.970908,0:00:03.936226,7,right,1,0.3004376005155791,26,m,1,7,2018_Sep_18_0924,MP_PerceptionTuring2,59.949590331182236,
277,resources/videos_generated\model(vcgpdm)-dataset(walking)-mode(ELBO)-parts(1)-dyn(22)-lvm(25)_final(4).mov,resources/videos_natural\training(43).mov,True,False,right,0,276,276,276,2018-09-18 09:55:31.388989,2018-09-18 09:55:35.325214,0:00:03.936225,7,right,1,0.2670814786260962,26,m,1,7,2018_Sep_18_0924,MP_PerceptionTuring2,59.949590331182236,
278,resources/videos_generated\model(vcgpdm)-dataset(walking)-mode(ELBO)-parts(2)-dyn(23)-lvm(20)_final(7).mov,resources/videos_natural\training(47).mov,False,False,right,0,277,277,277,2018-09-18 09:55:36.710293,2018-09-18 09:55:40.646518,0:00:03.936225,7,right,1,0.38379733644933367,26,m,1,7,2018_Sep_18_0924,MP_PerceptionTuring2,59.949590331182236,
279,resources/videos_generated\model(vcgpdm)-dataset(walking)-mode(ELBO)-parts(1)-dyn(22)-lvm(22)_final(6).mov,resources/videos_natural\training(18).mov,True,True,left,0,278,278,278,2018-09-18 09:55:42.148604,2018-09-18 09:55:46.101830,0:00:03.953226,7,left,1,0.30043699817497327,26,m,1,7,2018_Sep_18_0924,MP_PerceptionTuring2,59.949590331182236,
280,resources/videos_generated\model(vcgpdm)-dataset(walking)-mode(ELBO)-parts(2)-dyn(27)-lvm(20)_final(3).mov,resources/videos_natural\training(8).mov,False,True,left,0,279,279,279,2018-09-18 09:55:47.519911,2018-09-18 09:55:51.540141,0:00:04.020230,7,right,0,0.30044392509307727,26,m,1,7,2018_Sep_18_0924,MP_PerceptionTuring2,59.949590331182236,
281,resources/videos_generated\model(vcgpdm)-dataset(walking)-mode(ELBO)-parts(1)-dyn(23)-lvm(22)_final(3)_fail.mov,resources/videos_natural\training(29).mov,True,True,left,0,280,280,280,2018-09-18 09:55:52.957222,2018-09-18 09:55:56.877446,0:00:03.920224,7,left,1,0.3671239436448559,26,m,1,7,2018_Sep_18_0924,MP_PerceptionTuring2,59.949590331182236,
282,resources/videos_generated\model(vcgpdm)-dataset(walking)-mode(ELBO)-parts(1)-dyn(28)-lvm(23)_final(3)_fail.mov,resources/videos_natural\training(48).mov,False,False,right,0,281,281,281,2018-09-18 09:55:58.362531,2018-09-18 09:56:02.315758,0:00:03.953227,7,right,1,0.21702546094138597,26,m,1,7,2018_Sep_18_0924,MP_PerceptionTuring2,59.949590331182236,
283,resources/videos_generated\model(dmp)-dataset(walking)-npsi(90)_final(6).mov,resources/videos_natural\training(12).mov,False,False,right,0,282,282,282,2018-09-18 09:56:03.649834,2018-09-18 09:56:07.620061,0:00:03.970227,7,right,1,0.250396340178213,26,m,1,7,2018_Sep_18_0924,MP_PerceptionTuring2,59.949590331182236,
284,resources/videos_generated\model(vcgpdm)-dataset(walking)-mode(ELBO)-parts(1)-dyn(25)-lvm(28)_final(8).mov,resources/videos_natural\training(28).mov,False,True,left,0,283,283,283,2018-09-18 09:56:08.988139,2018-09-18 09:56:12.924364,0:00:03.936225,7,left,1,0.26703780892557916,26,m,1,7,2018_Sep_18_0924,MP_PerceptionTuring2,59.949590331182236,
285,resources/videos_generated\model(vcgpdm)-dataset(walking)-mode(ELBO)-parts(1)-dyn(28)-lvm(24)_final(7).mov,resources/videos_natural\training(27).mov,True,True,left,0,284,284,284,2018-09-18 09:56:14.309444,2018-09-18 09:56:18.379676,0:00:04.070232,7,left,1,0.6006824520086411,26,m,1,7,2018_Sep_18_0924,MP_PerceptionTuring2,59.949590331182236,
286,resources/videos_generated\model(vcgpdm)-dataset(walking)-mode(ELBO)-parts(2)-dyn(23)-lvm(22)_final(3).mov,resources/videos_natural\training(34).mov,True,True,left,0,285,285,285,2018-09-18 09:56:20.097775,2018-09-18 09:56:24.051001,0:00:03.953226,7,left,1,0.3338211289069477,26,m,1,7,2018_Sep_18_0924,MP_PerceptionTuring2,59.949590331182236,
287,resources/videos_generated\model(vcgpdm)-dataset(walking)-mode(ELBO)-parts(2)-dyn(27)-lvm(22)_final(9).mov,resources/videos_natural\training(31).mov,True,True,left,0,286,286,286,2018-09-18 09:56:25.502084,2018-09-18 09:56:29.439309,0:00:03.937225,7,left,1,0.4171748414337344,26,m,1,7,2018_Sep_18_0924,MP_PerceptionTuring2,59.949590331182236,
288,resources/videos_generated\model(vcgpdm)-dataset(walking)-mode(ELBO)-parts(1)-dyn(22)-lvm(23)_final(2).mov,resources/videos_natural\training(0).mov,False,False,right,0,287,287,287,2018-09-18 09:56:30.973397,2018-09-18 09:56:34.943624,0:00:03.970227,7,right,1,0.21696793740466092,26,m,1,7,2018_Sep_18_0924,MP_PerceptionTuring2,59.949590331182236,
289,resources/videos_generated\model(vcgpdm)-dataset(walking)-mode(ELBO)-parts(2)-dyn(27)-lvm(18)_final(5).mov,resources/videos_natural\training(45).mov,False,True,left,0,288,288,288,2018-09-18 09:56:36.278700,2018-09-18 09:56:40.247927,0:00:03.969227,7,right,0,0.26703780892557916,26,m,1,7,2018_Sep_18_0924,MP_PerceptionTuring2,59.949590331182236,
290,resources/videos_generated\model(vcgpdm)-dataset(walking)-mode(ELBO)-parts(1)-dyn(26)-lvm(27)_final(1).mov,resources/videos_natural\training(34).mov,False,False,right,0,289,289,289,2018-09-18 09:56:41.633006,2018-09-18 09:56:45.586232,0:00:03.953226,7,right,1,0.28375969015587543,26,m,1,7,2018_Sep_18_0924,MP_PerceptionTuring2,59.949590331182236,
291,resources/videos_generated\model(dmp)-dataset(walking)-npsi(90)_final(2).mov,resources/videos_natural\training(0).mov,True,True,left,0,290,290,290,2018-09-18 09:56:46.987313,2018-09-18 09:56:50.940539,0:00:03.953226,7,right,0,0.4672398942293512,26,m,1,7,2018_Sep_18_0924,MP_PerceptionTuring2,59.949590331182236,
