n_trial,mov_file_generated,mov_file_natural,mirrored,switch_stim_pos,correct_answer,trials.thisRepN,trials.thisTrialN,trials.thisN,trials.thisIndex,stimulus_onset,stimulus_off,stimulus_length,block,response.keys,response.corr,response.rt,age,gender,condition,participant,date,expName,frameRate,
1,resources/videos_generated\model(vcgpdm)-dataset(walking)-mode(ELBO)-parts(1)-dyn(26)-lvm(27)_final(9).mov,resources/videos_natural\training(14).mov,False,True,left,0,0,0,0,2018-09-20 14:04:57.635230,2018-09-20 14:05:02.106485,0:00:04.471255,1,left,1,0.9177130328456542,24,f,1,8,2018_Sep_20_1404,MP_PerceptionTuring2,59.941581698958004,
2,resources/videos_generated\model(vcgpdm)-dataset(walking)-mode(ELBO)-parts(2)-dyn(28)-lvm(21)_final(5).mov,resources/videos_natural\training(30).mov,True,False,right,0,1,1,1,2018-09-20 14:05:04.141602,2018-09-20 14:05:08.044825,0:00:03.903223,1,right,1,0.5674802281666302,24,f,1,8,2018_Sep_20_1404,MP_PerceptionTuring2,59.941581698958004,
3,resources/videos_generated\model(vcgpdm)-dataset(walking)-mode(ELBO)-parts(1)-dyn(28)-lvm(27)_final(3).mov,resources/videos_natural\training(29).mov,False,False,right,0,2,2,2,2018-09-20 14:05:09.729921,2018-09-20 14:05:13.616144,0:00:03.886223,1,right,1,0.7342439720754896,24,f,1,8,2018_Sep_20_1404,MP_PerceptionTuring2,59.941581698958004,
4,resources/videos_generated\model(dmp)-dataset(walking)-npsi(90)_final(8).mov,resources/videos_natural\training(4).mov,True,False,right,0,3,3,3,2018-09-20 14:05:15.467250,2018-09-20 14:05:19.354472,0:00:03.887222,1,left,0,1.101244737048205,24,f,1,8,2018_Sep_20_1404,MP_PerceptionTuring2,59.941581698958004,
5,resources/videos_generated\model(vcgpdm)-dataset(walking)-mode(ELBO)-parts(2)-dyn(28)-lvm(17)_final(9).mov,resources/videos_natural\training(9).mov,True,False,right,0,4,4,4,2018-09-20 14:05:21.572599,2018-09-20 14:05:25.526825,0:00:03.954226,1,right,1,0.48401749197381605,24,f,1,8,2018_Sep_20_1404,MP_PerceptionTuring2,59.941581698958004,
6,resources/videos_generated\model(vcgpdm)-dataset(walking)-mode(ELBO)-parts(1)-dyn(27)-lvm(24)_final(1).mov,resources/videos_natural\training(39).mov,False,False,right,0,5,5,5,2018-09-20 14:05:27.127916,2018-09-20 14:05:31.065142,0:00:03.937226,1,right,1,0.5675440762803987,24,f,1,8,2018_Sep_20_1404,MP_PerceptionTuring2,59.941581698958004,
7,resources/videos_generated\model(vcgpdm)-dataset(walking)-mode(ELBO)-parts(1)-dyn(28)-lvm(23)_final(7).mov,resources/videos_natural\training(5).mov,True,False,right,0,6,6,6,2018-09-20 14:05:32.749238,2018-09-20 14:05:36.636460,0:00:03.887222,1,right,1,0.48420933748548123,24,f,1,8,2018_Sep_20_1404,MP_PerceptionTuring2,59.941581698958004,
8,resources/videos_generated\model(tmp)-dataset(walking)-numprim(12)_final(8).mov,resources/videos_natural\training(20).mov,True,True,left,0,7,7,7,2018-09-20 14:05:38.237552,2018-09-20 14:05:42.174777,0:00:03.937225,1,left,1,0.5674856492329354,24,f,1,8,2018_Sep_20_1404,MP_PerceptionTuring2,59.941581698958004,
9,resources/videos_generated\model(vcgpdm)-dataset(walking)-mode(ELBO)-parts(2)-dyn(25)-lvm(20)_final(3).mov,resources/videos_natural\training(43).mov,False,False,right,0,8,8,8,2018-09-20 14:05:43.858873,2018-09-20 14:05:47.779098,0:00:03.920225,1,right,1,0.46736698811582755,24,f,1,8,2018_Sep_20_1404,MP_PerceptionTuring2,59.941581698958004,
10,resources/videos_generated\model(vcgpdm)-dataset(walking)-mode(ELBO)-parts(1)-dyn(27)-lvm(22)_final(5).mov,resources/videos_natural\training(7).mov,True,True,left,0,9,9,9,2018-09-20 14:05:49.363188,2018-09-20 14:05:53.333415,0:00:03.970227,1,right,0,0.46713117173339924,24,f,1,8,2018_Sep_20_1404,MP_PerceptionTuring2,59.941581698958004,
11,resources/videos_generated\model(vcgpdm)-dataset(walking)-mode(ELBO)-parts(2)-dyn(25)-lvm(20)_final(9).mov,resources/videos_natural\training(30).mov,True,True,left,0,10,10,10,2018-09-20 14:05:54.918506,2018-09-20 14:05:58.838730,0:00:03.920224,1,left,1,0.31719562218785313,24,f,1,8,2018_Sep_20_1404,MP_PerceptionTuring2,59.941581698958004,
12,resources/videos_generated\model(vcgpdm)-dataset(walking)-mode(ELBO)-parts(1)-dyn(22)-lvm(25)_final(6).mov,resources/videos_natural\training(21).mov,False,True,left,0,11,11,11,2018-09-20 14:06:00.272812,2018-09-20 14:06:04.210037,0:00:03.937225,1,left,1,0.7342120480186054,24,f,1,8,2018_Sep_20_1404,MP_PerceptionTuring2,59.941581698958004,
13,resources/videos_generated\model(vcgpdm)-dataset(walking)-mode(ELBO)-parts(1)-dyn(24)-lvm(23)_final(2).mov,resources/videos_natural\training(48).mov,False,True,left,0,12,12,12,2018-09-20 14:06:06.061143,2018-09-20 14:06:09.981368,0:00:03.920225,1,left,1,0.550757443425141,24,f,1,8,2018_Sep_20_1404,MP_PerceptionTuring2,59.941581698958004,
14,resources/videos_generated\model(vcgpdm)-dataset(walking)-mode(ELBO)-parts(2)-dyn(26)-lvm(21)_final(9).mov,resources/videos_natural\training(5).mov,True,True,left,0,13,13,13,2018-09-20 14:06:11.649463,2018-09-20 14:06:15.586688,0:00:03.937225,1,left,1,0.4673730115227954,24,f,1,8,2018_Sep_20_1404,MP_PerceptionTuring2,59.941581698958004,
15,resources/videos_generated\model(vcgpdm)-dataset(walking)-mode(ELBO)-parts(1)-dyn(24)-lvm(23)_final(6)_fail.mov,resources/videos_natural\training(0).mov,False,True,left,0,14,14,14,2018-09-20 14:06:17.170779,2018-09-20 14:06:21.091003,0:00:03.920224,1,left,1,0.3172892861661012,24,f,1,8,2018_Sep_20_1404,MP_PerceptionTuring2,59.941581698958004,
16,resources/videos_generated\model(vcgpdm)-dataset(walking)-mode(ELBO)-parts(2)-dyn(22)-lvm(17)_final(3).mov,resources/videos_natural\training(19).mov,True,False,right,0,15,15,15,2018-09-20 14:06:22.526085,2018-09-20 14:06:26.579317,0:00:04.053232,1,left,0,0.6841912672646231,24,f,1,8,2018_Sep_20_1404,MP_PerceptionTuring2,59.941581698958004,
17,resources/videos_generated\model(vcgpdm)-dataset(walking)-mode(ELBO)-parts(2)-dyn(23)-lvm(20)_final(7).mov,resources/videos_natural\training(8).mov,False,True,left,0,16,16,16,2018-09-20 14:06:28.380420,2018-09-20 14:06:32.484655,0:00:04.104235,1,left,1,0.36721248772732906,24,f,1,8,2018_Sep_20_1404,MP_PerceptionTuring2,59.941581698958004,
18,resources/videos_generated\model(vcgpdm)-dataset(walking)-mode(ELBO)-parts(1)-dyn(23)-lvm(24)_final(5).mov,resources/videos_natural\training(42).mov,True,True,left,0,17,17,17,2018-09-20 14:06:33.968740,2018-09-20 14:06:38.055973,0:00:04.087233,1,left,1,0.4006457092260689,24,f,1,8,2018_Sep_20_1404,MP_PerceptionTuring2,59.941581698958004,
19,resources/videos_generated\model(tmp)-dataset(walking)-numprim(15)_final(2).mov,resources/videos_natural\training(36).mov,False,True,left,0,18,18,18,2018-09-20 14:06:39.574060,2018-09-20 14:06:43.477283,0:00:03.903223,1,right,0,1.1512076930953299,24,f,1,8,2018_Sep_20_1404,MP_PerceptionTuring2,59.941581698958004,
20,resources/videos_generated\model(vcgpdm)-dataset(walking)-mode(ELBO)-parts(1)-dyn(25)-lvm(26)_final(6)_fail.mov,resources/videos_natural\training(28).mov,False,False,right,0,19,19,19,2018-09-20 14:06:45.745413,2018-09-20 14:06:49.849648,0:00:04.104235,1,right,1,0.5679355977327987,24,f,1,8,2018_Sep_20_1404,MP_PerceptionTuring2,59.941581698958004,
21,resources/videos_generated\model(vcgpdm)-dataset(walking)-mode(ELBO)-parts(1)-dyn(23)-lvm(26)_final(9).mov,resources/videos_natural\training(14).mov,True,True,left,0,20,20,20,2018-09-20 14:06:51.533744,2018-09-20 14:06:55.437968,0:00:03.904224,1,left,1,0.2838123949668443,24,f,1,8,2018_Sep_20_1404,MP_PerceptionTuring2,59.941581698958004,
22,resources/videos_generated\model(tmp)-dataset(walking)-numprim(11)_final(8).mov,resources/videos_natural\training(43).mov,True,True,left,0,21,21,21,2018-09-20 14:06:56.839048,2018-09-20 14:07:00.742271,0:00:03.903223,1,left,1,0.26751757328986514,24,f,1,8,2018_Sep_20_1404,MP_PerceptionTuring2,59.941581698958004,
23,resources/videos_generated\model(dmp)-dataset(walking)-npsi(90)_final(0).mov,resources/videos_natural\training(31).mov,True,False,right,0,22,22,22,2018-09-20 14:07:02.126350,2018-09-20 14:07:06.063575,0:00:03.937225,1,left,0,0.4007390720338435,24,f,1,8,2018_Sep_20_1404,MP_PerceptionTuring2,59.941581698958004,
24,resources/videos_generated\model(vcgpdm)-dataset(walking)-mode(ELBO)-parts(1)-dyn(25)-lvm(26)_final(2).mov,resources/videos_natural\training(25).mov,True,False,right,0,23,23,23,2018-09-20 14:07:07.581662,2018-09-20 14:07:11.517887,0:00:03.936225,1,left,0,0.6508899583782295,24,f,1,8,2018_Sep_20_1404,MP_PerceptionTuring2,59.941581698958004,
25,resources/videos_generated\model(vcgpdm)-dataset(walking)-mode(ELBO)-parts(1)-dyn(25)-lvm(22)_final(6).mov,resources/videos_natural\training(16).mov,True,False,right,0,24,24,24,2018-09-20 14:07:13.285988,2018-09-20 14:07:17.206213,0:00:03.920225,1,right,1,0.46722212517840944,24,f,1,8,2018_Sep_20_1404,MP_PerceptionTuring2,59.941581698958004,
26,resources/videos_generated\model(vcgpdm)-dataset(walking)-mode(ELBO)-parts(2)-dyn(28)-lvm(23)_final(1).mov,resources/videos_natural\training(29).mov,True,False,right,0,25,25,25,2018-09-20 14:07:18.791303,2018-09-20 14:07:22.727528,0:00:03.936225,1,left,0,0.48400333696747566,24,f,1,8,2018_Sep_20_1404,MP_PerceptionTuring2,59.941581698958004,
27,resources/videos_generated\model(tmp)-dataset(walking)-numprim(15)_final(6).mov,resources/videos_natural\training(13).mov,True,True,left,0,26,26,26,2018-09-20 14:07:24.329620,2018-09-20 14:07:28.282846,0:00:03.953226,1,left,1,0.38392202097350037,24,f,1,8,2018_Sep_20_1404,MP_PerceptionTuring2,59.941581698958004,
28,resources/videos_generated\model(vcgpdm)-dataset(walking)-mode(ELBO)-parts(2)-dyn(28)-lvm(19)_final(5).mov,resources/videos_natural\training(33).mov,True,True,left,0,27,27,27,2018-09-20 14:07:29.783932,2018-09-20 14:07:33.904168,0:00:04.120236,1,left,1,0.38394852396413626,24,f,1,8,2018_Sep_20_1404,MP_PerceptionTuring2,59.941581698958004,
29,resources/videos_generated\model(dmp)-dataset(walking)-npsi(70)_final(4).mov,resources/videos_natural\training(26).mov,False,True,left,0,28,28,28,2018-09-20 14:07:35.405254,2018-09-20 14:07:39.342479,0:00:03.937225,1,right,0,0.6520115167541007,24,f,1,8,2018_Sep_20_1404,MP_PerceptionTuring2,59.941581698958004,
30,resources/videos_generated\model(vcgpdm)-dataset(walking)-mode(ELBO)-parts(2)-dyn(24)-lvm(19)_final(1).mov,resources/videos_natural\training(10).mov,True,False,right,0,29,29,29,2018-09-20 14:07:41.110580,2018-09-20 14:07:45.196814,0:00:04.086234,1,left,0,0.5173877688698667,24,f,1,8,2018_Sep_20_1404,MP_PerceptionTuring2,59.941581698958004,
31,resources/videos_generated\model(vcgpdm)-dataset(walking)-mode(ELBO)-parts(1)-dyn(24)-lvm(27)_final(0).mov,resources/videos_natural\training(45).mov,True,False,right,0,30,30,30,2018-09-20 14:07:46.831907,2018-09-20 14:07:50.902140,0:00:04.070233,1,right,1,0.31724802582834855,24,f,1,8,2018_Sep_20_1404,MP_PerceptionTuring2,59.941581698958004,
32,resources/videos_generated\model(vcgpdm)-dataset(walking)-mode(ELBO)-parts(2)-dyn(28)-lvm(17)_final(3).mov,resources/videos_natural\training(16).mov,False,True,left,0,31,31,31,2018-09-20 14:07:52.337222,2018-09-20 14:07:56.256446,0:00:03.919224,1,left,1,0.4506526361441274,24,f,1,8,2018_Sep_20_1404,MP_PerceptionTuring2,59.941581698958004,
33,resources/videos_generated\model(vcgpdm)-dataset(walking)-mode(ELBO)-parts(1)-dyn(22)-lvm(22)_final(2).mov,resources/videos_natural\training(20).mov,True,False,right,0,32,32,32,2018-09-20 14:07:57.824536,2018-09-20 14:08:01.828765,0:00:04.004229,1,right,1,0.43390154138978687,24,f,1,8,2018_Sep_20_1404,MP_PerceptionTuring2,59.941581698958004,
34,resources/videos_generated\model(vcgpdm)-dataset(walking)-mode(ELBO)-parts(2)-dyn(26)-lvm(17)_final(5).mov,resources/videos_natural\training(1).mov,False,False,right,0,33,33,33,2018-09-20 14:08:03.379854,2018-09-20 14:08:07.283077,0:00:03.903223,1,left,0,0.6007568410844897,24,f,1,8,2018_Sep_20_1404,MP_PerceptionTuring2,59.941581698958004,
35,resources/videos_generated\model(dmp)-dataset(walking)-npsi(60)_final(4).mov,resources/videos_natural\training(8).mov,True,False,right,0,34,34,34,2018-09-20 14:08:09.001175,2018-09-20 14:08:12.921399,0:00:03.920224,1,left,0,0.6176250911040597,24,f,1,8,2018_Sep_20_1404,MP_PerceptionTuring2,59.941581698958004,
36,resources/videos_generated\model(tmp)-dataset(walking)-numprim(13)_final(0).mov,resources/videos_natural\training(2).mov,True,False,right,0,35,35,35,2018-09-20 14:08:14.655498,2018-09-20 14:08:18.559722,0:00:03.904224,1,left,0,0.30052975864202836,24,f,1,8,2018_Sep_20_1404,MP_PerceptionTuring2,59.941581698958004,
37,resources/videos_generated\model(vcgpdm)-dataset(walking)-mode(ELBO)-parts(1)-dyn(25)-lvm(26)_final(8).mov,resources/videos_natural\training(29).mov,False,False,right,0,36,36,36,2018-09-20 14:08:19.976803,2018-09-20 14:08:23.914028,0:00:03.937225,1,left,0,0.6840933869015089,24,f,1,8,2018_Sep_20_1404,MP_PerceptionTuring2,59.941581698958004,
38,resources/videos_generated\model(vcgpdm)-dataset(walking)-mode(ELBO)-parts(2)-dyn(28)-lvm(19)_final(3).mov,resources/videos_natural\training(46).mov,False,True,left,0,37,37,37,2018-09-20 14:08:25.715131,2018-09-20 14:08:29.669357,0:00:03.954226,1,right,0,0.4672395930585935,24,f,1,8,2018_Sep_20_1404,MP_PerceptionTuring2,59.941581698958004,
39,resources/videos_generated\model(vcgpdm)-dataset(walking)-mode(ELBO)-parts(1)-dyn(25)-lvm(24)_final(1).mov,resources/videos_natural\training(45).mov,False,False,right,0,38,38,38,2018-09-20 14:08:31.253448,2018-09-20 14:08:35.190673,0:00:03.937225,1,left,0,0.4339906878127522,24,f,1,8,2018_Sep_20_1404,MP_PerceptionTuring2,59.941581698958004,
40,resources/videos_generated\model(vcgpdm)-dataset(walking)-mode(ELBO)-parts(2)-dyn(27)-lvm(22)_final(7).mov,resources/videos_natural\training(45).mov,True,False,right,0,39,39,39,2018-09-20 14:08:36.741762,2018-09-20 14:08:40.844996,0:00:04.103234,1,right,1,0.5675446786210614,24,f,1,8,2018_Sep_20_1404,MP_PerceptionTuring2,59.941581698958004,
41,resources/videos_generated\model(tmp)-dataset(walking)-numprim(13)_final(2).mov,resources/videos_natural\training(11).mov,True,False,right,0,40,40,40,2018-09-20 14:08:42.530093,2018-09-20 14:08:46.583325,0:00:04.053232,1,right,1,0.5842132527000103,24,f,1,8,2018_Sep_20_1404,MP_PerceptionTuring2,59.941581698958004,
42,resources/videos_generated\model(vcgpdm)-dataset(walking)-mode(ELBO)-parts(2)-dyn(27)-lvm(20)_final(5).mov,resources/videos_natural\training(34).mov,False,True,left,0,41,41,41,2018-09-20 14:08:48.285422,2018-09-20 14:08:52.255649,0:00:03.970227,1,left,1,0.333892506279426,24,f,1,8,2018_Sep_20_1404,MP_PerceptionTuring2,59.941581698958004,
43,resources/videos_generated\model(tmp)-dataset(walking)-numprim(11)_final(6).mov,resources/videos_natural\training(11).mov,True,False,right,0,42,42,42,2018-09-20 14:08:53.706732,2018-09-20 14:08:57.609955,0:00:03.903223,1,left,0,0.4005387937525029,24,f,1,8,2018_Sep_20_1404,MP_PerceptionTuring2,59.941581698958004,
44,resources/videos_generated\model(vcgpdm)-dataset(walking)-mode(ELBO)-parts(2)-dyn(25)-lvm(20)_final(5).mov,resources/videos_natural\training(19).mov,False,True,left,0,43,43,43,2018-09-20 14:08:59.128042,2018-09-20 14:09:03.181274,0:00:04.053232,1,left,1,0.3004668140392823,24,f,1,8,2018_Sep_20_1404,MP_PerceptionTuring2,59.941581698958004,
45,resources/videos_generated\model(vcgpdm)-dataset(walking)-mode(ELBO)-parts(1)-dyn(22)-lvm(23)_final(2).mov,resources/videos_natural\training(38).mov,True,True,left,0,44,44,44,2018-09-20 14:09:04.599355,2018-09-20 14:09:08.686589,0:00:04.087234,1,left,1,0.33380667273024756,24,f,1,8,2018_Sep_20_1404,MP_PerceptionTuring2,59.941581698958004,
46,resources/videos_generated\model(vcgpdm)-dataset(walking)-mode(ELBO)-parts(1)-dyn(22)-lvm(22)_final(4).mov,resources/videos_natural\training(34).mov,True,False,right,0,45,45,45,2018-09-20 14:09:42.165504,2018-09-20 14:09:46.101729,0:00:03.936225,2,right,1,1.4014874803485782,24,f,1,8,2018_Sep_20_1404,MP_PerceptionTuring2,59.941581698958004,
47,resources/videos_generated\model(dmp)-dataset(walking)-npsi(100)_final(4).mov,resources/videos_natural\training(8).mov,True,True,left,0,46,46,46,2018-09-20 14:09:48.620873,2018-09-20 14:09:52.708107,0:00:04.087234,2,right,0,0.2838635939259575,24,f,1,8,2018_Sep_20_1404,MP_PerceptionTuring2,59.941581698958004,
48,resources/videos_generated\model(vcgpdm)-dataset(walking)-mode(ELBO)-parts(2)-dyn(22)-lvm(23)_final(9).mov,resources/videos_natural\training(17).mov,False,False,right,0,47,47,47,2018-09-20 14:09:54.109187,2018-09-20 14:09:58.045412,0:00:03.936225,2,right,1,0.2503867027268143,24,f,1,8,2018_Sep_20_1404,MP_PerceptionTuring2,59.941581698958004,
49,resources/videos_generated\model(vcgpdm)-dataset(walking)-mode(ELBO)-parts(1)-dyn(28)-lvm(24)_final(2).mov,resources/videos_natural\training(35).mov,True,True,left,0,48,48,48,2018-09-20 14:09:59.413490,2018-09-20 14:10:03.483723,0:00:04.070233,2,right,0,0.41733205235539117,24,f,1,8,2018_Sep_20_1404,MP_PerceptionTuring2,59.941581698958004,
50,resources/videos_generated\model(dmp)-dataset(walking)-npsi(50)_final(4).mov,resources/videos_natural\training(48).mov,True,False,right,0,49,49,49,2018-09-20 14:10:05.017811,2018-09-20 14:10:08.972037,0:00:03.954226,2,right,1,0.5006836566898301,24,f,1,8,2018_Sep_20_1404,MP_PerceptionTuring2,59.941581698958004,
51,resources/videos_generated\model(vcgpdm)-dataset(walking)-mode(ELBO)-parts(1)-dyn(28)-lvm(25)_final(7).mov,resources/videos_natural\training(35).mov,True,False,right,0,50,50,50,2018-09-20 14:10:10.589130,2018-09-20 14:10:14.626360,0:00:04.037230,2,right,1,0.3505014486293021,24,f,1,8,2018_Sep_20_1404,MP_PerceptionTuring2,59.941581698958004,
52,resources/videos_generated\model(dmp)-dataset(walking)-npsi(80)_final(8).mov,resources/videos_natural\training(6).mov,False,False,right,0,51,51,51,2018-09-20 14:10:16.094444,2018-09-20 14:10:20.197679,0:00:04.103235,2,right,1,0.5341617525704123,24,f,1,8,2018_Sep_20_1404,MP_PerceptionTuring2,59.941581698958004,
53,resources/videos_generated\model(dmp)-dataset(walking)-npsi(100)_final(2).mov,resources/videos_natural\training(12).mov,False,False,right,0,52,52,52,2018-09-20 14:10:21.849774,2018-09-20 14:10:25.986010,0:00:04.136236,2,right,1,0.38397020822912964,24,f,1,8,2018_Sep_20_1404,MP_PerceptionTuring2,59.941581698958004,
54,resources/videos_generated\model(vcgpdm)-dataset(walking)-mode(ELBO)-parts(2)-dyn(23)-lvm(20)_final(3).mov,resources/videos_natural\training(34).mov,True,True,left,0,53,53,53,2018-09-20 14:10:27.488096,2018-09-20 14:10:31.391319,0:00:03.903223,2,left,1,0.4507005222294538,24,f,1,8,2018_Sep_20_1404,MP_PerceptionTuring2,59.941581698958004,
55,resources/videos_generated\model(dmp)-dataset(walking)-npsi(50)_final(2).mov,resources/videos_natural\training(18).mov,False,True,left,0,54,54,54,2018-09-20 14:10:32.959409,2018-09-20 14:10:36.995640,0:00:04.036231,2,right,0,0.3006204109168493,24,f,1,8,2018_Sep_20_1404,MP_PerceptionTuring2,59.941581698958004,
56,resources/videos_generated\model(tmp)-dataset(walking)-numprim(13)_final(4).mov,resources/videos_natural\training(47).mov,True,False,right,0,55,55,55,2018-09-20 14:10:38.413721,2018-09-20 14:10:42.516956,0:00:04.103235,2,right,1,0.35061800155403944,24,f,1,8,2018_Sep_20_1404,MP_PerceptionTuring2,59.941581698958004,
57,resources/videos_generated\model(vcgpdm)-dataset(walking)-mode(ELBO)-parts(1)-dyn(24)-lvm(25)_final(4).mov,resources/videos_natural\training(32).mov,False,True,left,0,56,56,56,2018-09-20 14:10:43.985040,2018-09-20 14:10:48.105275,0:00:04.120235,2,right,0,0.7174730000782574,24,f,1,8,2018_Sep_20_1404,MP_PerceptionTuring2,59.941581698958004,
58,resources/videos_generated\model(vcgpdm)-dataset(walking)-mode(ELBO)-parts(2)-dyn(22)-lvm(19)_final(5).mov,resources/videos_natural\training(27).mov,False,True,left,0,57,57,57,2018-09-20 14:10:49.940380,2018-09-20 14:10:53.993612,0:00:04.053232,2,left,1,0.6007782241791801,24,f,1,8,2018_Sep_20_1404,MP_PerceptionTuring2,59.941581698958004,
59,resources/videos_generated\model(vcgpdm)-dataset(walking)-mode(ELBO)-parts(1)-dyn(28)-lvm(23)_final(3)_fail.mov,resources/videos_natural\training(0).mov,True,False,right,0,58,58,58,2018-09-20 14:10:55.711710,2018-09-20 14:10:59.648936,0:00:03.937226,2,right,1,0.2838458248754705,24,f,1,8,2018_Sep_20_1404,MP_PerceptionTuring2,59.941581698958004,
60,resources/videos_generated\model(vcgpdm)-dataset(walking)-mode(ELBO)-parts(2)-dyn(27)-lvm(20)_final(3).mov,resources/videos_natural\training(23).mov,True,True,left,0,59,59,59,2018-09-20 14:11:01.050016,2018-09-20 14:11:05.137249,0:00:04.087233,2,left,1,0.9009619380914273,24,f,1,8,2018_Sep_20_1404,MP_PerceptionTuring2,59.941581698958004,
61,resources/videos_generated\model(vcgpdm)-dataset(walking)-mode(ELBO)-parts(1)-dyn(23)-lvm(24)_final(7).mov,resources/videos_natural\training(10).mov,False,True,left,0,60,60,60,2018-09-20 14:11:07.155365,2018-09-20 14:11:11.075589,0:00:03.920224,2,left,1,0.650807136532535,24,f,1,8,2018_Sep_20_1404,MP_PerceptionTuring2,59.941581698958004,
62,resources/videos_generated\model(tmp)-dataset(walking)-numprim(11)_final(2).mov,resources/videos_natural\training(37).mov,False,False,right,0,61,61,61,2018-09-20 14:11:12.843690,2018-09-20 14:11:16.913923,0:00:04.070233,2,left,0,0.4003851968751633,24,f,1,8,2018_Sep_20_1404,MP_PerceptionTuring2,59.941581698958004,
63,resources/videos_generated\model(vcgpdm)-dataset(walking)-mode(ELBO)-parts(2)-dyn(22)-lvm(21)_final(7).mov,resources/videos_natural\training(42).mov,False,True,left,0,62,62,62,2018-09-20 14:11:18.432010,2018-09-20 14:11:22.352234,0:00:03.920224,2,right,0,0.4004900041561541,24,f,1,8,2018_Sep_20_1404,MP_PerceptionTuring2,59.941581698958004,
64,resources/videos_generated\model(vcgpdm)-dataset(walking)-mode(ELBO)-parts(2)-dyn(28)-lvm(23)_final(5).mov,resources/videos_natural\training(36).mov,False,True,left,0,63,63,63,2018-09-20 14:11:23.869321,2018-09-20 14:11:27.773544,0:00:03.904223,2,left,1,0.5006932941410014,24,f,1,8,2018_Sep_20_1404,MP_PerceptionTuring2,59.941581698958004,
65,resources/videos_generated\model(vcgpdm)-dataset(walking)-mode(ELBO)-parts(1)-dyn(26)-lvm(22)_final(7).mov,resources/videos_natural\training(25).mov,False,False,right,0,64,64,64,2018-09-20 14:11:29.391637,2018-09-20 14:11:33.310861,0:00:03.919224,2,left,0,0.5005857763268295,24,f,1,8,2018_Sep_20_1404,MP_PerceptionTuring2,59.941581698958004,
66,resources/videos_generated\model(vcgpdm)-dataset(walking)-mode(ELBO)-parts(1)-dyn(24)-lvm(25)_final(0).mov,resources/videos_natural\training(22).mov,False,True,left,0,65,65,65,2018-09-20 14:11:34.928953,2018-09-20 14:11:39.033188,0:00:04.104235,2,right,0,0.45066829700215294,24,f,1,8,2018_Sep_20_1404,MP_PerceptionTuring2,59.941581698958004,
67,resources/videos_generated\model(vcgpdm)-dataset(walking)-mode(ELBO)-parts(2)-dyn(25)-lvm(22)_final(9).mov,resources/videos_natural\training(40).mov,True,False,right,0,66,66,66,2018-09-20 14:11:40.601278,2018-09-20 14:11:44.687512,0:00:04.086234,2,right,1,1.6183012185352936,24,f,1,8,2018_Sep_20_1404,MP_PerceptionTuring2,59.941581698958004,
68,resources/videos_generated\model(vcgpdm)-dataset(walking)-mode(ELBO)-parts(1)-dyn(27)-lvm(26)_final(9).mov,resources/videos_natural\training(2).mov,False,False,right,0,67,67,67,2018-09-20 14:11:47.423668,2018-09-20 14:11:51.459899,0:00:04.036231,2,right,1,0.3004394075377377,24,f,1,8,2018_Sep_20_1404,MP_PerceptionTuring2,59.941581698958004,
69,resources/videos_generated\model(vcgpdm)-dataset(walking)-mode(ELBO)-parts(2)-dyn(24)-lvm(19)_final(9).mov,resources/videos_natural\training(46).mov,False,False,right,0,68,68,68,2018-09-20 14:11:52.877980,2018-09-20 14:11:56.815205,0:00:03.937225,2,right,1,0.31721459591972234,24,f,1,8,2018_Sep_20_1404,MP_PerceptionTuring2,59.941581698958004,
70,resources/videos_generated\model(vcgpdm)-dataset(walking)-mode(ELBO)-parts(1)-dyn(26)-lvm(27)_final(3).mov,resources/videos_natural\training(28).mov,True,False,right,0,69,69,69,2018-09-20 14:11:58.249287,2018-09-20 14:12:02.336521,0:00:04.087234,2,left,0,0.4339933983460469,24,f,1,8,2018_Sep_20_1404,MP_PerceptionTuring2,59.941581698958004,
71,resources/videos_generated\model(vcgpdm)-dataset(walking)-mode(ELBO)-parts(2)-dyn(23)-lvm(18)_final(7).mov,resources/videos_natural\training(20).mov,True,True,left,0,70,70,70,2018-09-20 14:12:03.887610,2018-09-20 14:12:07.840836,0:00:03.953226,2,left,1,0.30054813003334857,24,f,1,8,2018_Sep_20_1404,MP_PerceptionTuring2,59.941581698958004,
72,resources/videos_generated\model(vcgpdm)-dataset(walking)-mode(ELBO)-parts(2)-dyn(22)-lvm(19)_final(3).mov,resources/videos_natural\training(32).mov,True,False,right,0,71,71,71,2018-09-20 14:12:09.258917,2018-09-20 14:12:13.262146,0:00:04.003229,2,right,1,0.4173305465036492,24,f,1,8,2018_Sep_20_1404,MP_PerceptionTuring2,59.941581698958004,
73,resources/videos_generated\model(vcgpdm)-dataset(walking)-mode(ELBO)-parts(1)-dyn(27)-lvm(26)_final(1).mov,resources/videos_natural\training(36).mov,False,True,left,0,72,72,72,2018-09-20 14:12:14.797234,2018-09-20 14:12:18.717458,0:00:03.920224,2,left,1,0.6507447942705085,24,f,1,8,2018_Sep_20_1404,MP_PerceptionTuring2,59.941581698958004,
74,resources/videos_generated\model(vcgpdm)-dataset(walking)-mode(ELBO)-parts(1)-dyn(22)-lvm(27)_final(2)_hip-corrected.mov,resources/videos_natural\training(33).mov,True,False,right,0,73,73,73,2018-09-20 14:12:20.485559,2018-09-20 14:12:24.538791,0:00:04.053232,2,left,0,0.367177250796658,24,f,1,8,2018_Sep_20_1404,MP_PerceptionTuring2,59.941581698958004,
75,resources/videos_generated\model(vcgpdm)-dataset(walking)-mode(ELBO)-parts(1)-dyn(22)-lvm(27)_final(6)_fail.mov,resources/videos_natural\training(0).mov,True,False,right,0,74,74,74,2018-09-20 14:12:26.023876,2018-09-20 14:12:29.960101,0:00:03.936225,2,right,1,0.4339467169420459,24,f,1,8,2018_Sep_20_1404,MP_PerceptionTuring2,59.941581698958004,
76,resources/videos_generated\model(vcgpdm)-dataset(walking)-mode(ELBO)-parts(2)-dyn(22)-lvm(21)_final(3).mov,resources/videos_natural\training(41).mov,False,False,right,0,75,75,75,2018-09-20 14:12:31.511190,2018-09-20 14:12:35.631425,0:00:04.120235,2,right,1,0.3004797643643542,24,f,1,8,2018_Sep_20_1404,MP_PerceptionTuring2,59.941581698958004,
77,resources/videos_generated\model(vcgpdm)-dataset(walking)-mode(ELBO)-parts(1)-dyn(22)-lvm(25)_final(4).mov,resources/videos_natural\training(31).mov,False,True,left,0,76,76,76,2018-09-20 14:12:37.049507,2018-09-20 14:12:40.952730,0:00:03.903223,2,left,1,0.33383558508364786,24,f,1,8,2018_Sep_20_1404,MP_PerceptionTuring2,59.941581698958004,
78,resources/videos_generated\model(vcgpdm)-dataset(walking)-mode(ELBO)-parts(1)-dyn(22)-lvm(22)_final(0).mov,resources/videos_natural\training(32).mov,True,True,left,0,77,77,77,2018-09-20 14:12:42.404813,2018-09-20 14:12:46.324037,0:00:03.919224,2,left,1,0.5340331528318529,24,f,1,8,2018_Sep_20_1404,MP_PerceptionTuring2,59.941581698958004,
79,resources/videos_generated\model(vcgpdm)-dataset(walking)-mode(ELBO)-parts(1)-dyn(26)-lvm(23)_final(7).mov,resources/videos_natural\training(32).mov,False,False,right,0,78,78,78,2018-09-20 14:12:47.976132,2018-09-20 14:12:51.912357,0:00:03.936225,2,right,1,0.3338654009480706,24,f,1,8,2018_Sep_20_1404,MP_PerceptionTuring2,59.941581698958004,
80,resources/videos_generated\model(dmp)-dataset(walking)-npsi(90)_final(4).mov,resources/videos_natural\training(47).mov,False,True,left,0,79,79,79,2018-09-20 14:12:53.363440,2018-09-20 14:12:57.283664,0:00:03.920224,2,left,1,0.4674434853841376,24,f,1,8,2018_Sep_20_1404,MP_PerceptionTuring2,59.941581698958004,
81,resources/videos_generated\model(vcgpdm)-dataset(walking)-mode(ELBO)-parts(1)-dyn(25)-lvm(24)_final(5).mov,resources/videos_natural\training(30).mov,False,False,right,0,80,80,80,2018-09-20 14:12:58.868755,2018-09-20 14:13:02.854983,0:00:03.986228,2,right,1,0.3338271523139156,24,f,1,8,2018_Sep_20_1404,MP_PerceptionTuring2,59.941581698958004,
82,resources/videos_generated\model(vcgpdm)-dataset(walking)-mode(ELBO)-parts(1)-dyn(25)-lvm(24)_final(9).mov,resources/videos_natural\training(27).mov,True,False,right,0,81,81,81,2018-09-20 14:13:04.307066,2018-09-20 14:13:08.226290,0:00:03.919224,2,right,1,0.3004403110487601,24,f,1,8,2018_Sep_20_1404,MP_PerceptionTuring2,59.941581698958004,
83,resources/videos_generated\model(dmp)-dataset(walking)-npsi(70)_final(6).mov,resources/videos_natural\training(1).mov,False,False,right,0,82,82,82,2018-09-20 14:13:09.644371,2018-09-20 14:13:13.664601,0:00:04.020230,2,right,1,0.584087363494632,24,f,1,8,2018_Sep_20_1404,MP_PerceptionTuring2,59.941581698958004,
84,resources/videos_generated\model(vcgpdm)-dataset(walking)-mode(ELBO)-parts(2)-dyn(24)-lvm(17)_final(9).mov,resources/videos_natural\training(48).mov,True,False,right,0,83,83,83,2018-09-20 14:13:15.365698,2018-09-20 14:13:19.369927,0:00:04.004229,2,right,1,0.3171932128250319,24,f,1,8,2018_Sep_20_1404,MP_PerceptionTuring2,59.941581698958004,
85,resources/videos_generated\model(dmp)-dataset(walking)-npsi(60)_final(8).mov,resources/videos_natural\training(41).mov,False,False,right,0,84,84,84,2018-09-20 14:13:20.804009,2018-09-20 14:13:24.858241,0:00:04.054232,2,right,1,0.40049572639270536,24,f,1,8,2018_Sep_20_1404,MP_PerceptionTuring2,59.941581698958004,
86,resources/videos_generated\model(vcgpdm)-dataset(walking)-mode(ELBO)-parts(1)-dyn(26)-lvm(22)_final(0).mov,resources/videos_natural\training(7).mov,False,False,right,0,85,85,85,2018-09-20 14:13:26.375328,2018-09-20 14:13:30.495564,0:00:04.120236,2,right,1,0.33387955595446783,24,f,1,8,2018_Sep_20_1404,MP_PerceptionTuring2,59.941581698958004,
87,resources/videos_generated\model(vcgpdm)-dataset(walking)-mode(ELBO)-parts(1)-dyn(25)-lvm(26)_final(4)_fail.mov,resources/videos_natural\training(41).mov,True,False,right,0,86,86,86,2018-09-20 14:13:31.947647,2018-09-20 14:13:35.850870,0:00:03.903223,2,right,1,0.3003373107897005,24,f,1,8,2018_Sep_20_1404,MP_PerceptionTuring2,59.941581698958004,
88,resources/videos_generated\model(vcgpdm)-dataset(walking)-mode(ELBO)-parts(2)-dyn(26)-lvm(21)_final(3).mov,resources/videos_natural\training(34).mov,False,True,left,0,87,87,87,2018-09-20 14:13:37.267951,2018-09-20 14:13:41.188175,0:00:03.920224,2,left,1,0.3170098000831558,24,f,1,8,2018_Sep_20_1404,MP_PerceptionTuring2,59.941581698958004,
89,resources/videos_generated\model(dmp)-dataset(walking)-npsi(50)_final(6).mov,resources/videos_natural\training(39).mov,True,True,left,0,88,88,88,2018-09-20 14:13:42.623257,2018-09-20 14:13:46.543481,0:00:03.920224,2,left,1,0.35072070064268246,24,f,1,8,2018_Sep_20_1404,MP_PerceptionTuring2,59.941581698958004,
90,resources/videos_generated\model(tmp)-dataset(walking)-numprim(11)_final(4).mov,resources/videos_natural\training(9).mov,False,True,left,0,89,89,89,2018-09-20 14:13:48.010565,2018-09-20 14:13:51.947791,0:00:03.937226,2,right,0,0.35054903354432554,24,f,1,8,2018_Sep_20_1404,MP_PerceptionTuring2,59.941581698958004,
91,resources/videos_generated\model(tmp)-dataset(walking)-numprim(14)_final(6).mov,resources/videos_natural\training(30).mov,True,True,left,0,90,90,90,2018-09-20 14:14:25.476708,2018-09-20 14:14:29.379932,0:00:03.903224,3,left,1,0.3005469253519095,24,f,1,8,2018_Sep_20_1404,MP_PerceptionTuring2,59.941581698958004,
92,resources/videos_generated\model(vcgpdm)-dataset(walking)-mode(ELBO)-parts(1)-dyn(27)-lvm(22)_final(3).mov,resources/videos_natural\training(24).mov,False,True,left,0,91,91,91,2018-09-20 14:14:30.798013,2018-09-20 14:14:34.885246,0:00:04.087233,3,right,0,0.3169718526193037,24,f,1,8,2018_Sep_20_1404,MP_PerceptionTuring2,59.941581698958004,
93,resources/videos_generated\model(vcgpdm)-dataset(walking)-mode(ELBO)-parts(1)-dyn(25)-lvm(22)_final(2).mov,resources/videos_natural\training(32).mov,False,False,right,0,92,92,92,2018-09-20 14:14:36.319328,2018-09-20 14:14:40.356559,0:00:04.037231,3,right,1,0.33384853540860604,24,f,1,8,2018_Sep_20_1404,MP_PerceptionTuring2,59.941581698958004,
94,resources/videos_generated\model(vcgpdm)-dataset(walking)-mode(ELBO)-parts(2)-dyn(23)-lvm(18)_final(3).mov,resources/videos_natural\training(27).mov,False,False,right,0,93,93,93,2018-09-20 14:14:41.807642,2018-09-20 14:14:45.710866,0:00:03.903224,3,right,1,0.33373559652818585,24,f,1,8,2018_Sep_20_1404,MP_PerceptionTuring2,59.941581698958004,
95,resources/videos_generated\model(vcgpdm)-dataset(walking)-mode(ELBO)-parts(1)-dyn(22)-lvm(25)_final(2).mov,resources/videos_natural\training(43).mov,True,True,left,0,94,94,94,2018-09-20 14:14:47.161949,2018-09-20 14:14:51.099174,0:00:03.937225,3,left,1,0.25040808582150476,24,f,1,8,2018_Sep_20_1404,MP_PerceptionTuring2,59.941581698958004,
96,resources/videos_generated\model(vcgpdm)-dataset(walking)-mode(ELBO)-parts(1)-dyn(23)-lvm(26)_final(5)_hip-corrected.mov,resources/videos_natural\training(24).mov,False,True,left,0,95,95,95,2018-09-20 14:14:52.467252,2018-09-20 14:14:56.370475,0:00:03.903223,3,right,0,0.46723567784420084,24,f,1,8,2018_Sep_20_1404,MP_PerceptionTuring2,59.941581698958004,
97,resources/videos_generated\model(vcgpdm)-dataset(walking)-mode(ELBO)-parts(2)-dyn(27)-lvm(18)_final(5).mov,resources/videos_natural\training(4).mov,True,False,right,0,96,96,96,2018-09-20 14:14:57.954566,2018-09-20 14:15:01.907792,0:00:03.953226,3,right,1,0.26709563363237976,24,f,1,8,2018_Sep_20_1404,MP_PerceptionTuring2,59.941581698958004,
98,resources/videos_generated\model(vcgpdm)-dataset(walking)-mode(ELBO)-parts(1)-dyn(25)-lvm(24)_final(7).mov,resources/videos_natural\training(18).mov,True,True,left,0,97,97,97,2018-09-20 14:15:03.292871,2018-09-20 14:15:07.246097,0:00:03.953226,3,left,1,0.23387744776186992,24,f,1,8,2018_Sep_20_1404,MP_PerceptionTuring2,59.941581698958004,
99,resources/videos_generated\model(vcgpdm)-dataset(walking)-mode(ELBO)-parts(1)-dyn(22)-lvm(22)_final(8).mov,resources/videos_natural\training(6).mov,False,False,right,0,98,98,98,2018-09-20 14:15:08.597175,2018-09-20 14:15:12.517399,0:00:03.920224,3,right,1,0.350549937055348,24,f,1,8,2018_Sep_20_1404,MP_PerceptionTuring2,59.941581698958004,
100,resources/videos_generated\model(vcgpdm)-dataset(walking)-mode(ELBO)-parts(2)-dyn(22)-lvm(17)_final(5).mov,resources/videos_natural\training(37).mov,False,True,left,0,99,99,99,2018-09-20 14:15:13.985483,2018-09-20 14:15:17.855704,0:00:03.870221,3,left,1,0.21708750203288218,24,f,1,8,2018_Sep_20_1404,MP_PerceptionTuring2,59.941581698958004,
101,resources/videos_generated\model(vcgpdm)-dataset(walking)-mode(ELBO)-parts(1)-dyn(25)-lvm(28)_final(4).mov,resources/videos_natural\training(42).mov,False,True,left,0,100,100,100,2018-09-20 14:15:19.189780,2018-09-20 14:15:23.127006,0:00:03.937226,3,left,1,0.25051439895423755,24,f,1,8,2018_Sep_20_1404,MP_PerceptionTuring2,59.941581698958004,
102,resources/videos_generated\model(vcgpdm)-dataset(walking)-mode(ELBO)-parts(1)-dyn(27)-lvm(24)_final(9).mov,resources/videos_natural\training(17).mov,False,True,left,0,101,101,101,2018-09-20 14:15:24.494084,2018-09-20 14:15:28.414308,0:00:03.920224,3,left,1,0.2837506550454236,24,f,1,8,2018_Sep_20_1404,MP_PerceptionTuring2,59.941581698958004,
103,resources/videos_generated\model(vcgpdm)-dataset(walking)-mode(ELBO)-parts(1)-dyn(26)-lvm(23)_final(9).mov,resources/videos_natural\training(44).mov,False,True,left,0,102,102,102,2018-09-20 14:15:29.815388,2018-09-20 14:15:33.702611,0:00:03.887223,3,left,1,0.5673962016394398,24,f,1,8,2018_Sep_20_1404,MP_PerceptionTuring2,59.941581698958004,
104,resources/videos_generated\model(vcgpdm)-dataset(walking)-mode(ELBO)-parts(1)-dyn(24)-lvm(27)_final(4).mov,resources/videos_natural\training(17).mov,False,True,left,0,103,103,103,2018-09-20 14:15:35.386707,2018-09-20 14:15:39.423938,0:00:04.037231,3,right,0,0.4506713087055232,24,f,1,8,2018_Sep_20_1404,MP_PerceptionTuring2,59.941581698958004,
105,resources/videos_generated\model(vcgpdm)-dataset(walking)-mode(ELBO)-parts(2)-dyn(28)-lvm(21)_final(9).mov,resources/videos_natural\training(38).mov,True,True,left,0,104,104,104,2018-09-20 14:15:40.992027,2018-09-20 14:15:44.929253,0:00:03.937226,3,left,1,0.35060715942154275,24,f,1,8,2018_Sep_20_1404,MP_PerceptionTuring2,59.941581698958004,
106,resources/videos_generated\model(vcgpdm)-dataset(walking)-mode(ELBO)-parts(2)-dyn(24)-lvm(23)_final(5).mov,resources/videos_natural\training(45).mov,False,False,right,0,105,105,105,2018-09-20 14:15:46.396337,2018-09-20 14:15:50.350563,0:00:03.954226,3,right,1,0.30048729362306403,24,f,1,8,2018_Sep_20_1404,MP_PerceptionTuring2,59.941581698958004,
107,resources/videos_generated\model(vcgpdm)-dataset(walking)-mode(ELBO)-parts(1)-dyn(27)-lvm(28)_final(7).mov,resources/videos_natural\training(29).mov,False,False,right,0,106,106,106,2018-09-20 14:15:51.767644,2018-09-20 14:15:55.687868,0:00:03.920224,3,left,0,0.45041772327272156,24,f,1,8,2018_Sep_20_1404,MP_PerceptionTuring2,59.941581698958004,
108,resources/videos_generated\model(vcgpdm)-dataset(walking)-mode(ELBO)-parts(2)-dyn(23)-lvm(20)_final(9).mov,resources/videos_natural\training(10).mov,False,False,right,0,107,107,107,2018-09-20 14:15:57.255958,2018-09-20 14:16:01.143180,0:00:03.887222,3,right,1,0.2174588450718602,24,f,1,8,2018_Sep_20_1404,MP_PerceptionTuring2,59.941581698958004,
109,resources/videos_generated\model(tmp)-dataset(walking)-numprim(11)_final(0).mov,resources/videos_natural\training(34).mov,True,True,left,0,108,108,108,2018-09-20 14:16:02.477256,2018-09-20 14:16:06.414482,0:00:03.937226,3,left,1,0.4516365596709875,24,f,1,8,2018_Sep_20_1404,MP_PerceptionTuring2,59.941581698958004,
110,resources/videos_generated\model(vcgpdm)-dataset(walking)-mode(ELBO)-parts(1)-dyn(22)-lvm(28)_final(0).mov,resources/videos_natural\training(28).mov,False,True,left,0,109,109,109,2018-09-20 14:16:07.982571,2018-09-20 14:16:12.052804,0:00:04.070233,3,left,1,0.3839759304657946,24,f,1,8,2018_Sep_20_1404,MP_PerceptionTuring2,59.941581698958004,
111,resources/videos_generated\model(vcgpdm)-dataset(walking)-mode(ELBO)-parts(2)-dyn(25)-lvm(22)_final(7).mov,resources/videos_natural\training(37).mov,False,False,right,0,110,110,110,2018-09-20 14:16:13.553890,2018-09-20 14:16:17.657125,0:00:04.103235,3,right,1,0.30052132587252345,24,f,1,8,2018_Sep_20_1404,MP_PerceptionTuring2,59.941581698958004,
112,resources/videos_generated\model(vcgpdm)-dataset(walking)-mode(ELBO)-parts(2)-dyn(28)-lvm(21)_final(1).mov,resources/videos_natural\training(3).mov,True,True,left,0,111,111,111,2018-09-20 14:16:19.075206,2018-09-20 14:16:23.178440,0:00:04.103234,3,left,1,0.3173374734215031,24,f,1,8,2018_Sep_20_1404,MP_PerceptionTuring2,59.941581698958004,
113,resources/videos_generated\model(vcgpdm)-dataset(walking)-mode(ELBO)-parts(1)-dyn(23)-lvm(24)_final(3).mov,resources/videos_natural\training(3).mov,False,True,left,0,112,112,112,2018-09-20 14:16:24.613522,2018-09-20 14:16:28.583750,0:00:03.970228,3,left,1,0.31725284455410474,24,f,1,8,2018_Sep_20_1404,MP_PerceptionTuring2,59.941581698958004,
114,resources/videos_generated\model(vcgpdm)-dataset(walking)-mode(ELBO)-parts(1)-dyn(22)-lvm(28)_final(7).mov,resources/videos_natural\training(16).mov,True,False,right,0,113,113,113,2018-09-20 14:16:30.017832,2018-09-20 14:16:33.938056,0:00:03.920224,3,left,0,0.550782139393732,24,f,1,8,2018_Sep_20_1404,MP_PerceptionTuring2,59.941581698958004,
115,resources/videos_generated\model(vcgpdm)-dataset(walking)-mode(ELBO)-parts(1)-dyn(28)-lvm(25)_final(5).mov,resources/videos_natural\training(6).mov,True,False,right,0,114,114,114,2018-09-20 14:16:35.606151,2018-09-20 14:16:39.576378,0:00:03.970227,3,left,0,0.8510140405614948,24,f,1,8,2018_Sep_20_1404,MP_PerceptionTuring2,59.941581698958004,
116,resources/videos_generated\model(vcgpdm)-dataset(walking)-mode(ELBO)-parts(2)-dyn(26)-lvm(17)_final(7).mov,resources/videos_natural\training(40).mov,True,False,right,0,115,115,115,2018-09-20 14:16:41.544491,2018-09-20 14:16:45.464715,0:00:03.920224,3,right,1,0.4338084797523152,24,f,1,8,2018_Sep_20_1404,MP_PerceptionTuring2,59.941581698958004,
117,resources/videos_generated\model(vcgpdm)-dataset(walking)-mode(ELBO)-parts(1)-dyn(27)-lvm(26)_final(5).mov,resources/videos_natural\training(3).mov,True,False,right,0,116,116,116,2018-09-20 14:16:47.015804,2018-09-20 14:16:50.953029,0:00:03.937225,3,right,1,0.4006661888097369,24,f,1,8,2018_Sep_20_1404,MP_PerceptionTuring2,59.941581698958004,
118,resources/videos_generated\model(vcgpdm)-dataset(walking)-mode(ELBO)-parts(2)-dyn(25)-lvm(18)_final(9).mov,resources/videos_natural\training(2).mov,False,False,right,0,117,117,117,2018-09-20 14:16:52.470116,2018-09-20 14:16:56.390340,0:00:03.920224,3,left,0,0.48389310861989543,24,f,1,8,2018_Sep_20_1404,MP_PerceptionTuring2,59.941581698958004,
119,resources/videos_generated\model(vcgpdm)-dataset(walking)-mode(ELBO)-parts(2)-dyn(24)-lvm(19)_final(3).mov,resources/videos_natural\training(21).mov,False,False,right,0,118,118,118,2018-09-20 14:16:57.992432,2018-09-20 14:17:01.911656,0:00:03.919224,3,left,0,0.4174043332388919,24,f,1,8,2018_Sep_20_1404,MP_PerceptionTuring2,59.941581698958004,
120,resources/videos_generated\model(vcgpdm)-dataset(walking)-mode(ELBO)-parts(2)-dyn(27)-lvm(20)_final(7).mov,resources/videos_natural\training(41).mov,False,True,left,0,119,119,119,2018-09-20 14:17:03.446744,2018-09-20 14:17:07.382969,0:00:03.936225,3,left,1,0.4005053638438767,24,f,1,8,2018_Sep_20_1404,MP_PerceptionTuring2,59.941581698958004,
121,resources/videos_generated\model(vcgpdm)-dataset(walking)-mode(ELBO)-parts(2)-dyn(26)-lvm(21)_final(5).mov,resources/videos_natural\training(15).mov,False,False,right,0,120,120,120,2018-09-20 14:17:08.901056,2018-09-20 14:17:12.955287,0:00:04.054231,3,right,1,0.26724200242142615,24,f,1,8,2018_Sep_20_1404,MP_PerceptionTuring2,59.941581698958004,
122,resources/videos_generated\model(vcgpdm)-dataset(walking)-mode(ELBO)-parts(2)-dyn(27)-lvm(20)_final(9).mov,resources/videos_natural\training(12).mov,True,False,right,0,121,121,121,2018-09-20 14:17:14.339367,2018-09-20 14:17:18.259591,0:00:03.920224,3,right,1,0.9679139134677825,24,f,1,8,2018_Sep_20_1404,MP_PerceptionTuring2,59.941581698958004,
123,resources/videos_generated\model(vcgpdm)-dataset(walking)-mode(ELBO)-parts(2)-dyn(23)-lvm(22)_final(7).mov,resources/videos_natural\training(3).mov,False,True,left,0,122,122,122,2018-09-20 14:17:20.344710,2018-09-20 14:17:24.297936,0:00:03.953226,3,left,1,0.3338916027682899,24,f,1,8,2018_Sep_20_1404,MP_PerceptionTuring2,59.941581698958004,
124,resources/videos_generated\model(vcgpdm)-dataset(walking)-mode(ELBO)-parts(1)-dyn(26)-lvm(27)_final(7).mov,resources/videos_natural\training(19).mov,True,True,left,0,123,123,123,2018-09-20 14:17:25.749019,2018-09-20 14:17:29.686244,0:00:03.937225,3,left,1,0.48395876375593616,24,f,1,8,2018_Sep_20_1404,MP_PerceptionTuring2,59.941581698958004,
125,resources/videos_generated\model(vcgpdm)-dataset(walking)-mode(ELBO)-parts(2)-dyn(24)-lvm(21)_final(3).mov,resources/videos_natural\training(1).mov,True,True,left,0,124,124,124,2018-09-20 14:17:31.287336,2018-09-20 14:17:35.341568,0:00:04.054232,3,left,1,0.3506038465475285,24,f,1,8,2018_Sep_20_1404,MP_PerceptionTuring2,59.941581698958004,
126,resources/videos_generated\model(vcgpdm)-dataset(walking)-mode(ELBO)-parts(1)-dyn(26)-lvm(23)_final(1).mov,resources/videos_natural\training(0).mov,True,False,right,0,125,125,125,2018-09-20 14:17:36.808652,2018-09-20 14:17:40.728876,0:00:03.920224,3,right,1,0.5339843632355041,24,f,1,8,2018_Sep_20_1404,MP_PerceptionTuring2,59.941581698958004,
127,resources/videos_generated\model(vcgpdm)-dataset(walking)-mode(ELBO)-parts(1)-dyn(24)-lvm(23)_final(0).mov,resources/videos_natural\training(34).mov,False,True,left,0,126,126,126,2018-09-20 14:17:42.379970,2018-09-20 14:17:46.317196,0:00:03.937226,3,right,0,0.31739288876565297,24,f,1,8,2018_Sep_20_1404,MP_PerceptionTuring2,59.941581698958004,
128,resources/videos_generated\model(dmp)-dataset(walking)-npsi(60)_final(6).mov,resources/videos_natural\training(4).mov,False,True,left,0,127,127,127,2018-09-20 14:17:47.752278,2018-09-20 14:17:51.655501,0:00:03.903223,3,left,1,0.33396749769622147,24,f,1,8,2018_Sep_20_1404,MP_PerceptionTuring2,59.941581698958004,
129,resources/videos_generated\model(vcgpdm)-dataset(walking)-mode(ELBO)-parts(2)-dyn(22)-lvm(21)_final(1).mov,resources/videos_natural\training(20).mov,True,False,right,0,128,128,128,2018-09-20 14:17:53.106584,2018-09-20 14:17:57.026808,0:00:03.920224,3,right,1,0.40067733211253653,24,f,1,8,2018_Sep_20_1404,MP_PerceptionTuring2,59.941581698958004,
130,resources/videos_generated\model(vcgpdm)-dataset(walking)-mode(ELBO)-parts(2)-dyn(24)-lvm(23)_final(3).mov,resources/videos_natural\training(11).mov,False,False,right,0,129,129,129,2018-09-20 14:17:58.543895,2018-09-20 14:18:02.481120,0:00:03.937225,3,left,0,1.201226967997627,24,f,1,8,2018_Sep_20_1404,MP_PerceptionTuring2,59.941581698958004,
131,resources/videos_generated\model(vcgpdm)-dataset(walking)-mode(ELBO)-parts(2)-dyn(26)-lvm(19)_final(1).mov,resources/videos_natural\training(16).mov,True,True,left,0,130,130,130,2018-09-20 14:18:04.799253,2018-09-20 14:18:08.736478,0:00:03.937225,3,right,0,0.6172648913677676,24,f,1,8,2018_Sep_20_1404,MP_PerceptionTuring2,59.941581698958004,
132,resources/videos_generated\model(vcgpdm)-dataset(walking)-mode(ELBO)-parts(2)-dyn(27)-lvm(20)_final(1).mov,resources/videos_natural\training(45).mov,False,True,left,0,131,131,131,2018-09-20 14:18:10.471577,2018-09-20 14:18:14.407802,0:00:03.936225,3,right,0,0.3672760346707946,24,f,1,8,2018_Sep_20_1404,MP_PerceptionTuring2,59.941581698958004,
133,resources/videos_generated\model(vcgpdm)-dataset(walking)-mode(ELBO)-parts(2)-dyn(24)-lvm(17)_final(5).mov,resources/videos_natural\training(29).mov,False,False,right,0,132,132,132,2018-09-20 14:18:15.892887,2018-09-20 14:18:19.896116,0:00:04.003229,3,right,1,0.3171784554779151,24,f,1,8,2018_Sep_20_1404,MP_PerceptionTuring2,59.941581698958004,
134,resources/videos_generated\model(vcgpdm)-dataset(walking)-mode(ELBO)-parts(2)-dyn(24)-lvm(17)_final(7).mov,resources/videos_natural\training(6).mov,True,True,left,0,133,133,133,2018-09-20 14:18:21.331198,2018-09-20 14:18:25.250423,0:00:03.919225,3,left,1,0.30056047801758723,24,f,1,8,2018_Sep_20_1404,MP_PerceptionTuring2,59.941581698958004,
135,resources/videos_generated\model(vcgpdm)-dataset(walking)-mode(ELBO)-parts(1)-dyn(27)-lvm(24)_final(5).mov,resources/videos_natural\training(48).mov,True,True,left,0,134,134,134,2018-09-20 14:18:26.668504,2018-09-20 14:18:30.738736,0:00:04.070232,3,left,1,0.3670444346730619,24,f,1,8,2018_Sep_20_1404,MP_PerceptionTuring2,59.941581698958004,
136,resources/videos_generated\model(dmp)-dataset(walking)-npsi(80)_final(6).mov,resources/videos_natural\training(47).mov,True,False,right,0,135,135,135,2018-09-20 14:19:04.067643,2018-09-20 14:19:08.070872,0:00:04.003229,4,left,0,0.5506643817875556,24,f,1,8,2018_Sep_20_1404,MP_PerceptionTuring2,59.941581698958004,
137,resources/videos_generated\model(vcgpdm)-dataset(walking)-mode(ELBO)-parts(2)-dyn(22)-lvm(19)_final(7).mov,resources/videos_natural\training(41).mov,True,False,right,0,136,136,136,2018-09-20 14:19:09.738967,2018-09-20 14:19:13.692193,0:00:03.953226,4,right,1,0.30044964732951485,24,f,1,8,2018_Sep_20_1404,MP_PerceptionTuring2,59.941581698958004,
138,resources/videos_generated\model(tmp)-dataset(walking)-numprim(12)_final(4).mov,resources/videos_natural\training(25).mov,False,False,right,0,137,137,137,2018-09-20 14:19:15.110274,2018-09-20 14:19:19.063500,0:00:03.953226,4,right,1,0.3170986453358182,24,f,1,8,2018_Sep_20_1404,MP_PerceptionTuring2,59.941581698958004,
139,resources/videos_generated\model(vcgpdm)-dataset(walking)-mode(ELBO)-parts(2)-dyn(26)-lvm(21)_final(1).mov,resources/videos_natural\training(36).mov,False,False,right,0,138,138,138,2018-09-20 14:19:20.498583,2018-09-20 14:19:24.418807,0:00:03.920224,4,right,1,0.23377806154712744,24,f,1,8,2018_Sep_20_1404,MP_PerceptionTuring2,59.941581698958004,
140,resources/videos_generated\model(vcgpdm)-dataset(walking)-mode(ELBO)-parts(2)-dyn(28)-lvm(17)_final(7).mov,resources/videos_natural\training(4).mov,False,True,left,0,139,139,139,2018-09-20 14:19:25.769884,2018-09-20 14:19:29.690108,0:00:03.920224,4,left,1,0.23378107325061137,24,f,1,8,2018_Sep_20_1404,MP_PerceptionTuring2,59.941581698958004,
141,resources/videos_generated\model(dmp)-dataset(walking)-npsi(80)_final(0).mov,resources/videos_natural\training(7).mov,True,False,right,0,140,140,140,2018-09-20 14:19:31.041186,2018-09-20 14:19:34.977411,0:00:03.936225,4,left,0,0.2504580800991789,24,f,1,8,2018_Sep_20_1404,MP_PerceptionTuring2,59.941581698958004,
142,resources/videos_generated\model(vcgpdm)-dataset(walking)-mode(ELBO)-parts(1)-dyn(26)-lvm(25)_final(9).mov,resources/videos_natural\training(5).mov,False,True,left,0,141,141,141,2018-09-20 14:19:36.345489,2018-09-20 14:19:40.248712,0:00:03.903223,4,left,1,0.6173525319391047,24,f,1,8,2018_Sep_20_1404,MP_PerceptionTuring2,59.941581698958004,
143,resources/videos_generated\model(vcgpdm)-dataset(walking)-mode(ELBO)-parts(2)-dyn(24)-lvm(21)_final(1).mov,resources/videos_natural\training(12).mov,True,False,right,0,142,142,142,2018-09-20 14:19:41.983811,2018-09-20 14:19:45.887035,0:00:03.903224,4,left,0,0.3839828573838986,24,f,1,8,2018_Sep_20_1404,MP_PerceptionTuring2,59.941581698958004,
144,resources/videos_generated\model(vcgpdm)-dataset(walking)-mode(ELBO)-parts(1)-dyn(23)-lvm(22)_final(1)_fail.mov,resources/videos_natural\training(26).mov,True,True,left,0,143,143,143,2018-09-20 14:19:47.388121,2018-09-20 14:19:51.292344,0:00:03.904223,4,left,1,0.23374523397933444,24,f,1,8,2018_Sep_20_1404,MP_PerceptionTuring2,59.941581698958004,
145,resources/videos_generated\model(vcgpdm)-dataset(walking)-mode(ELBO)-parts(2)-dyn(26)-lvm(23)_final(1).mov,resources/videos_natural\training(25).mov,True,False,right,0,144,144,144,2018-09-20 14:19:52.643421,2018-09-20 14:19:56.562645,0:00:03.919224,4,right,1,0.2838211289069932,24,f,1,8,2018_Sep_20_1404,MP_PerceptionTuring2,59.941581698958004,
146,resources/videos_generated\model(dmp)-dataset(walking)-npsi(50)_final(0).mov,resources/videos_natural\training(12).mov,False,False,right,0,145,145,145,2018-09-20 14:19:57.964725,2018-09-20 14:20:01.900951,0:00:03.936226,4,left,0,0.5840147814406009,24,f,1,8,2018_Sep_20_1404,MP_PerceptionTuring2,59.941581698958004,
147,resources/videos_generated\model(vcgpdm)-dataset(walking)-mode(ELBO)-parts(2)-dyn(28)-lvm(21)_final(7).mov,resources/videos_natural\training(47).mov,False,False,right,0,146,146,146,2018-09-20 14:20:03.602048,2018-09-20 14:20:07.672281,0:00:04.070233,4,right,1,0.267117920237979,24,f,1,8,2018_Sep_20_1404,MP_PerceptionTuring2,59.941581698958004,
148,resources/videos_generated\model(tmp)-dataset(walking)-numprim(15)_final(0).mov,resources/videos_natural\training(42).mov,False,False,right,0,147,147,147,2018-09-20 14:20:09.057360,2018-09-20 14:20:12.994585,0:00:03.937225,4,left,0,0.36711490853463147,24,f,1,8,2018_Sep_20_1404,MP_PerceptionTuring2,59.941581698958004,
149,resources/videos_generated\model(vcgpdm)-dataset(walking)-mode(ELBO)-parts(2)-dyn(24)-lvm(23)_final(1).mov,resources/videos_natural\training(14).mov,True,True,left,0,148,148,148,2018-09-20 14:20:14.478670,2018-09-20 14:20:18.548903,0:00:04.070233,4,right,0,0.46723868954768477,24,f,1,8,2018_Sep_20_1404,MP_PerceptionTuring2,59.941581698958004,
150,resources/videos_generated\model(vcgpdm)-dataset(walking)-mode(ELBO)-parts(2)-dyn(23)-lvm(22)_final(5).mov,resources/videos_natural\training(15).mov,True,False,right,0,149,149,149,2018-09-20 14:20:20.132993,2018-09-20 14:20:24.070219,0:00:03.937226,4,right,1,0.2336283798842942,24,f,1,8,2018_Sep_20_1404,MP_PerceptionTuring2,59.941581698958004,
151,resources/videos_generated\model(vcgpdm)-dataset(walking)-mode(ELBO)-parts(1)-dyn(26)-lvm(27)_final(5).mov,resources/videos_natural\training(46).mov,True,True,left,0,150,150,150,2018-09-20 14:20:25.421296,2018-09-20 14:20:29.374522,0:00:03.953226,4,left,1,0.6675004065798475,24,f,1,8,2018_Sep_20_1404,MP_PerceptionTuring2,59.941581698958004,
152,resources/videos_generated\model(vcgpdm)-dataset(walking)-mode(ELBO)-parts(1)-dyn(25)-lvm(25)_final(2).mov,resources/videos_natural\training(18).mov,False,False,right,0,151,151,151,2018-09-20 14:20:31.159624,2018-09-20 14:20:35.096849,0:00:03.937225,4,right,1,0.3673184996898726,24,f,1,8,2018_Sep_20_1404,MP_PerceptionTuring2,59.941581698958004,
153,resources/videos_generated\model(vcgpdm)-dataset(walking)-mode(ELBO)-parts(2)-dyn(26)-lvm(23)_final(9).mov,resources/videos_natural\training(19).mov,True,True,left,0,152,152,152,2018-09-20 14:20:36.580934,2018-09-20 14:20:40.668168,0:00:04.087234,4,left,1,0.46728506978115547,24,f,1,8,2018_Sep_20_1404,MP_PerceptionTuring2,59.941581698958004,
154,resources/videos_generated\model(vcgpdm)-dataset(walking)-mode(ELBO)-parts(2)-dyn(27)-lvm(22)_final(1).mov,resources/videos_natural\training(21).mov,False,True,left,0,153,153,153,2018-09-20 14:20:42.252259,2018-09-20 14:20:46.205485,0:00:03.953226,4,left,1,0.26714412205842564,24,f,1,8,2018_Sep_20_1404,MP_PerceptionTuring2,59.941581698958004,
155,resources/videos_generated\model(vcgpdm)-dataset(walking)-mode(ELBO)-parts(2)-dyn(28)-lvm(23)_final(9).mov,resources/videos_natural\training(31).mov,False,False,right,0,154,154,154,2018-09-20 14:20:47.590564,2018-09-20 14:20:51.577792,0:00:03.987228,4,right,1,0.7341367554315639,24,f,1,8,2018_Sep_20_1404,MP_PerceptionTuring2,59.941581698958004,
156,resources/videos_generated\model(vcgpdm)-dataset(walking)-mode(ELBO)-parts(2)-dyn(22)-lvm(23)_final(3).mov,resources/videos_natural\training(30).mov,False,False,right,0,155,155,155,2018-09-20 14:20:53.428898,2018-09-20 14:20:57.349122,0:00:03.920224,4,right,1,0.41733446171838295,24,f,1,8,2018_Sep_20_1404,MP_PerceptionTuring2,59.941581698958004,
157,resources/videos_generated\model(vcgpdm)-dataset(walking)-mode(ELBO)-parts(2)-dyn(24)-lvm(19)_final(7).mov,resources/videos_natural\training(39).mov,False,True,left,0,156,156,156,2018-09-20 14:20:58.883210,2018-09-20 14:21:02.787433,0:00:03.904223,4,right,0,0.25046410350637416,24,f,1,8,2018_Sep_20_1404,MP_PerceptionTuring2,59.941581698958004,
158,resources/videos_generated\model(vcgpdm)-dataset(walking)-mode(ELBO)-parts(2)-dyn(26)-lvm(23)_final(3).mov,resources/videos_natural\training(0).mov,False,True,left,0,157,157,157,2018-09-20 14:21:04.154511,2018-09-20 14:21:08.091737,0:00:03.937226,4,left,1,0.30045205669239294,24,f,1,8,2018_Sep_20_1404,MP_PerceptionTuring2,59.941581698958004,
159,resources/videos_generated\model(vcgpdm)-dataset(walking)-mode(ELBO)-parts(1)-dyn(24)-lvm(27)_final(6).mov,resources/videos_natural\training(2).mov,True,True,left,0,158,158,158,2018-09-20 14:21:09.509818,2018-09-20 14:21:13.396040,0:00:03.886222,4,left,1,0.3840111673964657,24,f,1,8,2018_Sep_20_1404,MP_PerceptionTuring2,59.941581698958004,
160,resources/videos_generated\model(vcgpdm)-dataset(walking)-mode(ELBO)-parts(1)-dyn(23)-lvm(24)_final(1).mov,resources/videos_natural\training(14).mov,True,False,right,0,159,159,159,2018-09-20 14:21:14.897126,2018-09-20 14:21:18.834351,0:00:03.937225,4,right,1,0.31726820424159996,24,f,1,8,2018_Sep_20_1404,MP_PerceptionTuring2,59.941581698958004,
161,resources/videos_generated\model(vcgpdm)-dataset(walking)-mode(ELBO)-parts(1)-dyn(25)-lvm(26)_final(0).mov,resources/videos_natural\training(22).mov,False,True,left,0,160,160,160,2018-09-20 14:21:20.268433,2018-09-20 14:21:24.171656,0:00:03.903223,4,right,0,0.3505433113077743,24,f,1,8,2018_Sep_20_1404,MP_PerceptionTuring2,59.941581698958004,
162,resources/videos_generated\model(vcgpdm)-dataset(walking)-mode(ELBO)-parts(1)-dyn(26)-lvm(27)_final(1).mov,resources/videos_natural\training(38).mov,True,False,right,0,161,161,161,2018-09-20 14:21:25.639740,2018-09-20 14:21:29.576965,0:00:03.937225,4,right,1,0.3838425120015927,24,f,1,8,2018_Sep_20_1404,MP_PerceptionTuring2,59.941581698958004,
163,resources/videos_generated\model(vcgpdm)-dataset(walking)-mode(ELBO)-parts(2)-dyn(25)-lvm(18)_final(1).mov,resources/videos_natural\training(46).mov,False,False,right,0,162,162,162,2018-09-20 14:21:31.078051,2018-09-20 14:21:35.081280,0:00:04.003229,4,right,1,0.4339250326770525,24,f,1,8,2018_Sep_20_1404,MP_PerceptionTuring2,59.941581698958004,
164,resources/videos_generated\model(dmp)-dataset(walking)-npsi(60)_final(0).mov,resources/videos_natural\training(23).mov,False,False,right,0,163,163,163,2018-09-20 14:21:36.633369,2018-09-20 14:21:40.553593,0:00:03.920224,4,left,0,0.3004442262633802,24,f,1,8,2018_Sep_20_1404,MP_PerceptionTuring2,59.941581698958004,
165,resources/videos_generated\model(vcgpdm)-dataset(walking)-mode(ELBO)-parts(2)-dyn(22)-lvm(23)_final(7).mov,resources/videos_natural\training(44).mov,True,True,left,0,164,164,164,2018-09-20 14:21:41.970674,2018-09-20 14:21:45.873898,0:00:03.903224,4,left,1,1.017782603195883,24,f,1,8,2018_Sep_20_1404,MP_PerceptionTuring2,59.941581698958004,
166,resources/videos_generated\model(dmp)-dataset(walking)-npsi(100)_final(8).mov,resources/videos_natural\training(9).mov,False,False,right,0,165,165,165,2018-09-20 14:21:48.009020,2018-09-20 14:21:51.996248,0:00:03.987228,4,right,1,0.4339425005571229,24,f,1,8,2018_Sep_20_1404,MP_PerceptionTuring2,59.941581698958004,
167,resources/videos_generated\model(vcgpdm)-dataset(walking)-mode(ELBO)-parts(2)-dyn(22)-lvm(23)_final(1).mov,resources/videos_natural\training(14).mov,True,False,right,0,166,166,166,2018-09-20 14:21:53.547336,2018-09-20 14:21:57.484562,0:00:03.937226,4,right,1,0.3339696058885693,24,f,1,8,2018_Sep_20_1404,MP_PerceptionTuring2,59.941581698958004,
168,resources/videos_generated\model(vcgpdm)-dataset(walking)-mode(ELBO)-parts(1)-dyn(27)-lvm(28)_final(5).mov,resources/videos_natural\training(26).mov,False,True,left,0,167,167,167,2018-09-20 14:21:58.935645,2018-09-20 14:22:02.905872,0:00:03.970227,4,left,1,0.3337714357994628,24,f,1,8,2018_Sep_20_1404,MP_PerceptionTuring2,59.941581698958004,
169,resources/videos_generated\model(vcgpdm)-dataset(walking)-mode(ELBO)-parts(1)-dyn(26)-lvm(25)_final(7).mov,resources/videos_natural\training(17).mov,False,False,right,0,168,168,168,2018-09-20 14:22:04.356955,2018-09-20 14:22:08.444188,0:00:04.087233,4,right,1,0.6007851510971705,24,f,1,8,2018_Sep_20_1404,MP_PerceptionTuring2,59.941581698958004,
170,resources/videos_generated\model(dmp)-dataset(walking)-npsi(60)_final(2).mov,resources/videos_natural\training(9).mov,True,True,left,0,169,169,169,2018-09-20 14:22:10.162287,2018-09-20 14:22:14.098512,0:00:03.936225,4,left,1,0.3672802510554902,24,f,1,8,2018_Sep_20_1404,MP_PerceptionTuring2,59.941581698958004,
171,resources/videos_generated\model(vcgpdm)-dataset(walking)-mode(ELBO)-parts(1)-dyn(22)-lvm(27)_final(0)_hip-correted.mov,resources/videos_natural\training(11).mov,True,False,right,0,170,170,170,2018-09-20 14:22:15.583597,2018-09-20 14:22:19.503821,0:00:03.920224,4,left,0,0.35038519687509506,24,f,1,8,2018_Sep_20_1404,MP_PerceptionTuring2,59.941581698958004,
172,resources/videos_generated\model(dmp)-dataset(walking)-npsi(70)_final(0).mov,resources/videos_natural\training(22).mov,True,True,left,0,171,171,171,2018-09-20 14:22:20.970905,2018-09-20 14:22:24.908130,0:00:03.937225,4,left,1,0.3839623778001169,24,f,1,8,2018_Sep_20_1404,MP_PerceptionTuring2,59.941581698958004,
173,resources/videos_generated\model(vcgpdm)-dataset(walking)-mode(ELBO)-parts(1)-dyn(22)-lvm(23)_final(4)_fail.mov,resources/videos_natural\training(35).mov,False,True,left,0,172,172,172,2018-09-20 14:22:26.409216,2018-09-20 14:22:30.329440,0:00:03.920224,4,left,1,0.23373619886888264,24,f,1,8,2018_Sep_20_1404,MP_PerceptionTuring2,59.941581698958004,
174,resources/videos_generated\model(vcgpdm)-dataset(walking)-mode(ELBO)-parts(1)-dyn(23)-lvm(26)_final(3)_hip-corrected.mov,resources/videos_natural\training(39).mov,False,True,left,0,173,173,173,2018-09-20 14:22:31.680518,2018-09-20 14:22:35.650745,0:00:03.970227,4,left,1,0.45075292586989235,24,f,1,8,2018_Sep_20_1404,MP_PerceptionTuring2,59.941581698958004,
175,resources/videos_generated\model(dmp)-dataset(walking)-npsi(80)_final(2).mov,resources/videos_natural\training(40).mov,False,True,left,0,174,174,174,2018-09-20 14:22:37.218834,2018-09-20 14:22:41.155059,0:00:03.936225,4,right,0,0.3171582770646637,24,f,1,8,2018_Sep_20_1404,MP_PerceptionTuring2,59.941581698958004,
176,resources/videos_generated\model(vcgpdm)-dataset(walking)-mode(ELBO)-parts(2)-dyn(28)-lvm(17)_final(5).mov,resources/videos_natural\training(1).mov,True,False,right,0,175,175,175,2018-09-20 14:22:42.590142,2018-09-20 14:22:46.527367,0:00:03.937225,4,right,1,0.3172275462447942,24,f,1,8,2018_Sep_20_1404,MP_PerceptionTuring2,59.941581698958004,
177,resources/videos_generated\model(tmp)-dataset(walking)-numprim(13)_final(6).mov,resources/videos_natural\training(15).mov,False,True,left,0,176,176,176,2018-09-20 14:22:47.961449,2018-09-20 14:22:51.914675,0:00:03.953226,4,right,0,0.46732873948144515,24,f,1,8,2018_Sep_20_1404,MP_PerceptionTuring2,59.941581698958004,
178,resources/videos_generated\model(vcgpdm)-dataset(walking)-mode(ELBO)-parts(2)-dyn(24)-lvm(21)_final(9).mov,resources/videos_natural\training(40).mov,False,True,left,0,177,177,177,2018-09-20 14:22:53.499766,2018-09-20 14:22:57.435991,0:00:03.936225,4,left,1,0.4840147814406919,24,f,1,8,2018_Sep_20_1404,MP_PerceptionTuring2,59.941581698958004,
179,resources/videos_generated\model(vcgpdm)-dataset(walking)-mode(ELBO)-parts(1)-dyn(27)-lvm(22)_final(9).mov,resources/videos_natural\training(43).mov,False,False,right,0,178,178,178,2018-09-20 14:22:59.037082,2018-09-20 14:23:02.957306,0:00:03.920224,4,right,1,0.4004827760677472,24,f,1,8,2018_Sep_20_1404,MP_PerceptionTuring2,59.941581698958004,
180,resources/videos_generated\model(dmp)-dataset(walking)-npsi(90)_final(2).mov,resources/videos_natural\training(38).mov,True,False,right,0,179,179,179,2018-09-20 14:23:04.475393,2018-09-20 14:23:08.562627,0:00:04.087234,4,left,0,0.2838388979573665,24,f,1,8,2018_Sep_20_1404,MP_PerceptionTuring2,59.941581698958004,
181,resources/videos_generated\model(vcgpdm)-dataset(walking)-mode(ELBO)-parts(1)-dyn(25)-lvm(24)_final(3).mov,resources/videos_natural\training(16).mov,False,True,left,0,180,180,180,2018-09-20 14:23:41.891533,2018-09-20 14:23:45.794757,0:00:03.903224,5,left,1,0.2506487209295756,24,f,1,8,2018_Sep_20_1404,MP_PerceptionTuring2,59.941581698958004,
182,resources/videos_generated\model(vcgpdm)-dataset(walking)-mode(ELBO)-parts(2)-dyn(27)-lvm(18)_final(9).mov,resources/videos_natural\training(13).mov,False,False,right,0,181,181,181,2018-09-20 14:23:47.162835,2018-09-20 14:23:51.083059,0:00:03.920224,5,right,1,0.2838235382696439,24,f,1,8,2018_Sep_20_1404,MP_PerceptionTuring2,59.941581698958004,
183,resources/videos_generated\model(vcgpdm)-dataset(walking)-mode(ELBO)-parts(1)-dyn(23)-lvm(22)_final(9)_fail.mov,resources/videos_natural\training(7).mov,True,True,left,0,182,182,182,2018-09-20 14:23:52.484139,2018-09-20 14:23:56.370362,0:00:03.886223,5,left,1,0.26707033532306923,24,f,1,8,2018_Sep_20_1404,MP_PerceptionTuring2,59.941581698958004,
184,resources/videos_generated\model(vcgpdm)-dataset(walking)-mode(ELBO)-parts(2)-dyn(25)-lvm(18)_final(7).mov,resources/videos_natural\training(29).mov,True,False,right,0,183,183,183,2018-09-20 14:23:57.754441,2018-09-20 14:24:01.691666,0:00:03.937225,5,right,1,0.23384793306809115,24,f,1,8,2018_Sep_20_1404,MP_PerceptionTuring2,59.941581698958004,
185,resources/videos_generated\model(vcgpdm)-dataset(walking)-mode(ELBO)-parts(2)-dyn(23)-lvm(22)_final(3).mov,resources/videos_natural\training(19).mov,True,False,right,0,184,184,184,2018-09-20 14:24:03.042743,2018-09-20 14:24:06.962967,0:00:03.920224,5,right,1,0.317266698389858,24,f,1,8,2018_Sep_20_1404,MP_PerceptionTuring2,59.941581698958004,
186,resources/videos_generated\model(vcgpdm)-dataset(walking)-mode(ELBO)-parts(1)-dyn(27)-lvm(22)_final(7).mov,resources/videos_natural\training(24).mov,False,False,right,0,185,185,185,2018-09-20 14:24:08.397049,2018-09-20 14:24:12.451281,0:00:04.054232,5,left,0,0.2838238394399468,24,f,1,8,2018_Sep_20_1404,MP_PerceptionTuring2,59.941581698958004,
187,resources/videos_generated\model(vcgpdm)-dataset(walking)-mode(ELBO)-parts(1)-dyn(24)-lvm(23)_final(8).mov,resources/videos_natural\training(32).mov,True,True,left,0,186,186,186,2018-09-20 14:24:13.852361,2018-09-20 14:24:17.888592,0:00:04.036231,5,left,1,0.5840882670056544,24,f,1,8,2018_Sep_20_1404,MP_PerceptionTuring2,59.941581698958004,
188,resources/videos_generated\model(vcgpdm)-dataset(walking)-mode(ELBO)-parts(1)-dyn(23)-lvm(27)_final(2).mov,resources/videos_natural\training(46).mov,True,False,right,0,187,187,187,2018-09-20 14:24:19.590690,2018-09-20 14:24:23.510914,0:00:03.920224,5,left,0,1.0177603165902838,24,f,1,8,2018_Sep_20_1404,MP_PerceptionTuring2,59.941581698958004,
189,resources/videos_generated\model(vcgpdm)-dataset(walking)-mode(ELBO)-parts(1)-dyn(24)-lvm(23)_final(4)_fail.mov,resources/videos_natural\training(41).mov,False,True,left,0,188,188,188,2018-09-20 14:24:25.646036,2018-09-20 14:24:29.616263,0:00:03.970227,5,left,1,0.38386991850325103,24,f,1,8,2018_Sep_20_1404,MP_PerceptionTuring2,59.941581698958004,
190,resources/videos_generated\model(vcgpdm)-dataset(walking)-mode(ELBO)-parts(1)-dyn(22)-lvm(25)_final(0).mov,resources/videos_natural\training(44).mov,False,True,left,0,189,189,189,2018-09-20 14:24:31.117349,2018-09-20 14:24:35.120578,0:00:04.003229,5,left,1,0.4006360717748976,24,f,1,8,2018_Sep_20_1404,MP_PerceptionTuring2,59.941581698958004,
191,resources/videos_generated\model(vcgpdm)-dataset(walking)-mode(ELBO)-parts(2)-dyn(28)-lvm(19)_final(7).mov,resources/videos_natural\training(19).mov,False,True,left,0,190,190,190,2018-09-20 14:24:36.638665,2018-09-20 14:24:40.641894,0:00:04.003229,5,left,1,0.8842819195394895,24,f,1,8,2018_Sep_20_1404,MP_PerceptionTuring2,59.941581698958004,
192,resources/videos_generated\model(tmp)-dataset(walking)-numprim(12)_final(2).mov,resources/videos_natural\training(17).mov,True,False,right,0,191,191,191,2018-09-20 14:24:42.644008,2018-09-20 14:24:46.747243,0:00:04.103235,5,left,0,0.31839277432095514,24,f,1,8,2018_Sep_20_1404,MP_PerceptionTuring2,59.941581698958004,
193,resources/videos_generated\model(vcgpdm)-dataset(walking)-mode(ELBO)-parts(1)-dyn(28)-lvm(27)_final(9).mov,resources/videos_natural\training(34).mov,False,False,right,0,192,192,192,2018-09-20 14:24:48.181325,2018-09-20 14:24:52.118550,0:00:03.937225,5,right,1,0.533950632156575,24,f,1,8,2018_Sep_20_1404,MP_PerceptionTuring2,59.941581698958004,
194,resources/videos_generated\model(vcgpdm)-dataset(walking)-mode(ELBO)-parts(1)-dyn(22)-lvm(27)_final(4)_fail.mov,resources/videos_natural\training(15).mov,True,True,left,0,193,193,193,2018-09-20 14:24:53.769645,2018-09-20 14:24:57.723871,0:00:03.954226,5,left,1,0.8009643474542827,24,f,1,8,2018_Sep_20_1404,MP_PerceptionTuring2,59.941581698958004,
195,resources/videos_generated\model(vcgpdm)-dataset(walking)-mode(ELBO)-parts(2)-dyn(24)-lvm(21)_final(7).mov,resources/videos_natural\training(40).mov,False,True,left,0,194,194,194,2018-09-20 14:24:59.641980,2018-09-20 14:25:03.595207,0:00:03.953227,5,left,1,0.7175681699081906,24,f,1,8,2018_Sep_20_1404,MP_PerceptionTuring2,59.941581698958004,
196,resources/videos_generated\model(dmp)-dataset(walking)-npsi(70)_final(2).mov,resources/videos_natural\training(30).mov,True,False,right,0,195,195,195,2018-09-20 14:25:05.430312,2018-09-20 14:25:09.350536,0:00:03.920224,5,left,0,0.2838864828725036,24,f,1,8,2018_Sep_20_1404,MP_PerceptionTuring2,59.941581698958004,
197,resources/videos_generated\model(vcgpdm)-dataset(walking)-mode(ELBO)-parts(1)-dyn(23)-lvm(22)_final(5)_fail.mov,resources/videos_natural\training(39).mov,True,True,left,0,196,196,196,2018-09-20 14:25:10.751616,2018-09-20 14:25:14.704842,0:00:03.953226,5,left,1,0.3340033369674984,24,f,1,8,2018_Sep_20_1404,MP_PerceptionTuring2,59.941581698958004,
198,resources/videos_generated\model(vcgpdm)-dataset(walking)-mode(ELBO)-parts(1)-dyn(25)-lvm(28)_final(8).mov,resources/videos_natural\training(10).mov,False,True,left,0,197,197,197,2018-09-20 14:25:16.155925,2018-09-20 14:25:20.093150,0:00:03.937225,5,left,1,0.3338253452916433,24,f,1,8,2018_Sep_20_1404,MP_PerceptionTuring2,59.941581698958004,
199,resources/videos_generated\model(vcgpdm)-dataset(walking)-mode(ELBO)-parts(1)-dyn(24)-lvm(27)_final(8).mov,resources/videos_natural\training(7).mov,False,False,right,0,198,198,198,2018-09-20 14:25:21.544233,2018-09-20 14:25:25.480458,0:00:03.936225,5,right,1,0.33384462019421335,24,f,1,8,2018_Sep_20_1404,MP_PerceptionTuring2,59.941581698958004,
200,resources/videos_generated\model(vcgpdm)-dataset(walking)-mode(ELBO)-parts(2)-dyn(23)-lvm(18)_final(1).mov,resources/videos_natural\training(35).mov,False,False,right,0,199,199,199,2018-09-20 14:25:26.932541,2018-09-20 14:25:30.901768,0:00:03.969227,5,right,1,0.45062251910940176,24,f,1,8,2018_Sep_20_1404,MP_PerceptionTuring2,59.941581698958004,
201,resources/videos_generated\model(vcgpdm)-dataset(walking)-mode(ELBO)-parts(2)-dyn(25)-lvm(18)_final(3).mov,resources/videos_natural\training(39).mov,True,False,right,0,200,200,200,2018-09-20 14:25:32.469858,2018-09-20 14:25:36.390082,0:00:03.920224,5,right,1,0.26849095585430405,24,f,1,8,2018_Sep_20_1404,MP_PerceptionTuring2,59.941581698958004,
202,resources/videos_generated\model(tmp)-dataset(walking)-numprim(14)_final(0).mov,resources/videos_natural\training(11).mov,True,False,right,0,201,201,201,2018-09-20 14:25:37.775162,2018-09-20 14:25:41.861395,0:00:04.086233,5,left,0,0.36727693818170337,24,f,1,8,2018_Sep_20_1404,MP_PerceptionTuring2,59.941581698958004,
203,resources/videos_generated\model(vcgpdm)-dataset(walking)-mode(ELBO)-parts(2)-dyn(25)-lvm(22)_final(3).mov,resources/videos_natural\training(37).mov,True,False,right,0,202,202,202,2018-09-20 14:25:43.346480,2018-09-20 14:25:47.266704,0:00:03.920224,5,left,0,0.6842469837788485,24,f,1,8,2018_Sep_20_1404,MP_PerceptionTuring2,59.941581698958004,
204,resources/videos_generated\model(vcgpdm)-dataset(walking)-mode(ELBO)-parts(1)-dyn(23)-lvm(28)_final(4)_hip-corrected.mov,resources/videos_natural\training(23).mov,True,True,left,0,203,203,203,2018-09-20 14:25:49.067807,2018-09-20 14:25:53.038035,0:00:03.970228,5,left,1,0.43398315855415603,24,f,1,8,2018_Sep_20_1404,MP_PerceptionTuring2,59.941581698958004,
205,resources/videos_generated\model(vcgpdm)-dataset(walking)-mode(ELBO)-parts(1)-dyn(26)-lvm(25)_final(5).mov,resources/videos_natural\training(37).mov,False,True,left,0,204,204,204,2018-09-20 14:25:54.589123,2018-09-20 14:25:58.509347,0:00:03.920224,5,left,1,0.5174299327186418,24,f,1,8,2018_Sep_20_1404,MP_PerceptionTuring2,59.941581698958004,
206,resources/videos_generated\model(vcgpdm)-dataset(walking)-mode(ELBO)-parts(1)-dyn(23)-lvm(28)_final(0).mov,resources/videos_natural\training(44).mov,True,False,right,0,205,205,205,2018-09-20 14:26:00.144441,2018-09-20 14:26:04.064665,0:00:03.920224,5,left,0,1.0178395243917748,24,f,1,8,2018_Sep_20_1404,MP_PerceptionTuring2,59.941581698958004,
207,resources/videos_generated\model(vcgpdm)-dataset(walking)-mode(ELBO)-parts(2)-dyn(25)-lvm(22)_final(5).mov,resources/videos_natural\training(2).mov,True,False,right,0,206,206,206,2018-09-20 14:26:06.198787,2018-09-20 14:26:10.103011,0:00:03.904224,5,left,0,0.6842274077064303,24,f,1,8,2018_Sep_20_1404,MP_PerceptionTuring2,59.941581698958004,
208,resources/videos_generated\model(tmp)-dataset(walking)-numprim(14)_final(8).mov,resources/videos_natural\training(31).mov,True,False,right,0,207,207,207,2018-09-20 14:26:11.904114,2018-09-20 14:26:15.807337,0:00:03.903223,5,left,0,0.4006125804878593,24,f,1,8,2018_Sep_20_1404,MP_PerceptionTuring2,59.941581698958004,
209,resources/videos_generated\model(vcgpdm)-dataset(walking)-mode(ELBO)-parts(2)-dyn(26)-lvm(23)_final(7).mov,resources/videos_natural\training(11).mov,False,False,right,0,208,208,208,2018-09-20 14:26:17.325424,2018-09-20 14:26:21.245648,0:00:03.920224,5,right,1,0.3837889036797151,24,f,1,8,2018_Sep_20_1404,MP_PerceptionTuring2,59.941581698958004,
210,resources/videos_generated\model(vcgpdm)-dataset(walking)-mode(ELBO)-parts(1)-dyn(28)-lvm(25)_final(3).mov,resources/videos_natural\training(2).mov,False,True,left,0,209,209,209,2018-09-20 14:26:22.746734,2018-09-20 14:26:26.649957,0:00:03.903223,5,left,1,0.517412464838344,24,f,1,8,2018_Sep_20_1404,MP_PerceptionTuring2,59.941581698958004,
211,resources/videos_generated\model(dmp)-dataset(walking)-npsi(100)_final(0).mov,resources/videos_natural\training(46).mov,True,False,right,0,210,210,210,2018-09-20 14:26:28.285051,2018-09-20 14:26:32.188274,0:00:03.903223,5,left,0,0.8343246857286886,24,f,1,8,2018_Sep_20_1404,MP_PerceptionTuring2,59.941581698958004,
212,resources/videos_generated\model(vcgpdm)-dataset(walking)-mode(ELBO)-parts(1)-dyn(23)-lvm(28)_final(8).mov,resources/videos_natural\training(5).mov,False,False,right,0,211,211,211,2018-09-20 14:26:34.140385,2018-09-20 14:26:38.076611,0:00:03.936226,5,right,1,0.534078027213809,24,f,1,8,2018_Sep_20_1404,MP_PerceptionTuring2,59.941581698958004,
213,resources/videos_generated\model(vcgpdm)-dataset(walking)-mode(ELBO)-parts(1)-dyn(27)-lvm(22)_final(1).mov,resources/videos_natural\training(28).mov,False,False,right,0,212,212,212,2018-09-20 14:26:39.728705,2018-09-20 14:26:43.681931,0:00:03.953226,5,left,0,0.4673034411725894,24,f,1,8,2018_Sep_20_1404,MP_PerceptionTuring2,59.941581698958004,
214,resources/videos_generated\model(vcgpdm)-dataset(walking)-mode(ELBO)-parts(1)-dyn(24)-lvm(25)_final(8).mov,resources/videos_natural\training(3).mov,False,True,left,0,213,213,213,2018-09-20 14:26:45.266022,2018-09-20 14:26:49.153244,0:00:03.887222,5,left,1,0.7508197856870993,24,f,1,8,2018_Sep_20_1404,MP_PerceptionTuring2,59.941581698958004,
215,resources/videos_generated\model(vcgpdm)-dataset(walking)-mode(ELBO)-parts(1)-dyn(24)-lvm(25)_final(2).mov,resources/videos_natural\training(45).mov,False,False,right,0,214,214,214,2018-09-20 14:26:51.021351,2018-09-20 14:26:54.974577,0:00:03.953226,5,right,1,0.6340966997754549,24,f,1,8,2018_Sep_20_1404,MP_PerceptionTuring2,59.941581698958004,
216,resources/videos_generated\model(vcgpdm)-dataset(walking)-mode(ELBO)-parts(2)-dyn(23)-lvm(22)_final(1).mov,resources/videos_natural\training(42).mov,True,True,left,0,215,215,215,2018-09-20 14:26:56.726677,2018-09-20 14:27:00.679903,0:00:03.953226,5,left,1,0.400497232244561,24,f,1,8,2018_Sep_20_1404,MP_PerceptionTuring2,59.941581698958004,
217,resources/videos_generated\model(vcgpdm)-dataset(walking)-mode(ELBO)-parts(2)-dyn(22)-lvm(17)_final(1).mov,resources/videos_natural\training(20).mov,False,False,right,0,216,216,216,2018-09-20 14:27:02.197990,2018-09-20 14:27:06.151216,0:00:03.953226,5,right,1,0.7508411687817897,24,f,1,8,2018_Sep_20_1404,MP_PerceptionTuring2,59.941581698958004,
218,resources/videos_generated\model(dmp)-dataset(walking)-npsi(80)_final(4).mov,resources/videos_natural\training(6).mov,False,False,right,0,217,217,217,2018-09-20 14:27:08.019323,2018-09-20 14:27:11.940547,0:00:03.921224,5,left,0,0.3673880700400787,24,f,1,8,2018_Sep_20_1404,MP_PerceptionTuring2,59.941581698958004,
219,resources/videos_generated\model(vcgpdm)-dataset(walking)-mode(ELBO)-parts(1)-dyn(23)-lvm(24)_final(9).mov,resources/videos_natural\training(16).mov,False,True,left,0,218,218,218,2018-09-20 14:27:13.423632,2018-09-20 14:27:17.360857,0:00:03.937225,5,left,1,0.5006125804877684,24,f,1,8,2018_Sep_20_1404,MP_PerceptionTuring2,59.941581698958004,
220,resources/videos_generated\model(vcgpdm)-dataset(walking)-mode(ELBO)-parts(2)-dyn(26)-lvm(19)_final(3).mov,resources/videos_natural\training(26).mov,False,True,left,0,219,219,219,2018-09-20 14:27:18.978950,2018-09-20 14:27:22.932176,0:00:03.953226,5,right,0,0.30032044525023593,24,f,1,8,2018_Sep_20_1404,MP_PerceptionTuring2,59.941581698958004,
221,resources/videos_generated\model(dmp)-dataset(walking)-npsi(100)_final(6).mov,resources/videos_natural\training(45).mov,True,False,right,0,220,220,220,2018-09-20 14:27:24.350257,2018-09-20 14:27:28.236480,0:00:03.886223,5,left,0,0.5507475048036667,24,f,1,8,2018_Sep_20_1404,MP_PerceptionTuring2,59.941581698958004,
222,resources/videos_generated\model(vcgpdm)-dataset(walking)-mode(ELBO)-parts(2)-dyn(27)-lvm(22)_final(3).mov,resources/videos_natural\training(31).mov,True,False,right,0,221,221,221,2018-09-20 14:27:29.904575,2018-09-20 14:27:33.791797,0:00:03.887222,5,right,1,0.5006225191091289,24,f,1,8,2018_Sep_20_1404,MP_PerceptionTuring2,59.941581698958004,
223,resources/videos_generated\model(vcgpdm)-dataset(walking)-mode(ELBO)-parts(2)-dyn(26)-lvm(23)_final(5).mov,resources/videos_natural\training(8).mov,False,False,right,0,222,222,222,2018-09-20 14:27:35.409890,2018-09-20 14:27:39.296112,0:00:03.886222,5,right,1,0.3341123606335259,24,f,1,8,2018_Sep_20_1404,MP_PerceptionTuring2,59.941581698958004,
224,resources/videos_generated\model(vcgpdm)-dataset(walking)-mode(ELBO)-parts(1)-dyn(27)-lvm(26)_final(7).mov,resources/videos_natural\training(24).mov,False,False,right,0,223,223,223,2018-09-20 14:27:40.747195,2018-09-20 14:27:44.667419,0:00:03.920224,5,right,1,0.5672094760238906,24,f,1,8,2018_Sep_20_1404,MP_PerceptionTuring2,59.941581698958004,
225,resources/videos_generated\model(vcgpdm)-dataset(walking)-mode(ELBO)-parts(1)-dyn(26)-lvm(23)_final(5).mov,resources/videos_natural\training(23).mov,True,False,right,0,224,224,224,2018-09-20 14:27:46.352516,2018-09-20 14:27:50.255739,0:00:03.903223,5,right,1,0.28367295309567453,24,f,1,8,2018_Sep_20_1404,MP_PerceptionTuring2,59.941581698958004,
226,resources/videos_generated\model(vcgpdm)-dataset(walking)-mode(ELBO)-parts(2)-dyn(24)-lvm(23)_final(7).mov,resources/videos_natural\training(34).mov,True,True,left,0,225,225,225,2018-09-20 14:28:27.387863,2018-09-20 14:28:31.358090,0:00:03.970227,6,left,1,0.33279534270172917,24,f,1,8,2018_Sep_20_1404,MP_PerceptionTuring2,59.941581698958004,
227,resources/videos_generated\model(vcgpdm)-dataset(walking)-mode(ELBO)-parts(1)-dyn(27)-lvm(28)_final(1).mov,resources/videos_natural\training(35).mov,False,False,right,0,226,226,226,2018-09-20 14:28:32.809173,2018-09-20 14:28:36.712396,0:00:03.903223,6,right,1,0.6509556135142702,24,f,1,8,2018_Sep_20_1404,MP_PerceptionTuring2,59.941581698958004,
228,resources/videos_generated\model(vcgpdm)-dataset(walking)-mode(ELBO)-parts(1)-dyn(28)-lvm(23)_final(1).mov,resources/videos_natural\training(5).mov,False,True,left,0,227,227,227,2018-09-20 14:28:38.480497,2018-09-20 14:28:42.417722,0:00:03.937225,6,left,1,0.5340921822200926,24,f,1,8,2018_Sep_20_1404,MP_PerceptionTuring2,59.941581698958004,
229,resources/videos_generated\model(vcgpdm)-dataset(walking)-mode(ELBO)-parts(2)-dyn(28)-lvm(23)_final(3).mov,resources/videos_natural\training(44).mov,True,True,left,0,228,228,228,2018-09-20 14:28:44.068817,2018-09-20 14:28:48.106048,0:00:04.037231,6,left,1,0.4172727217967349,24,f,1,8,2018_Sep_20_1404,MP_PerceptionTuring2,59.941581698958004,
230,resources/videos_generated\model(vcgpdm)-dataset(walking)-mode(ELBO)-parts(2)-dyn(22)-lvm(17)_final(7).mov,resources/videos_natural\training(6).mov,True,False,right,0,229,229,229,2018-09-20 14:28:49.640136,2018-09-20 14:28:53.527358,0:00:03.887222,6,left,0,0.26711069214957206,24,f,1,8,2018_Sep_20_1404,MP_PerceptionTuring2,59.941581698958004,
231,resources/videos_generated\model(vcgpdm)-dataset(walking)-mode(ELBO)-parts(2)-dyn(25)-lvm(20)_final(7).mov,resources/videos_natural\training(26).mov,True,True,left,0,230,230,230,2018-09-20 14:28:54.911437,2018-09-20 14:28:58.848662,0:00:03.937225,6,left,1,0.5339497286456663,24,f,1,8,2018_Sep_20_1404,MP_PerceptionTuring2,59.941581698958004,
232,resources/videos_generated\model(vcgpdm)-dataset(walking)-mode(ELBO)-parts(2)-dyn(28)-lvm(19)_final(9).mov,resources/videos_natural\training(40).mov,False,True,left,0,231,231,231,2018-09-20 14:29:00.499757,2018-09-20 14:29:04.586990,0:00:04.087233,6,left,1,0.2671100898089662,24,f,1,8,2018_Sep_20_1404,MP_PerceptionTuring2,59.941581698958004,
233,resources/videos_generated\model(vcgpdm)-dataset(walking)-mode(ELBO)-parts(2)-dyn(23)-lvm(20)_final(1).mov,resources/videos_natural\training(18).mov,False,True,left,0,232,232,232,2018-09-20 14:29:05.971070,2018-09-20 14:29:09.891294,0:00:03.920224,6,left,1,0.2670926219288958,24,f,1,8,2018_Sep_20_1404,MP_PerceptionTuring2,59.941581698958004,
234,resources/videos_generated\model(vcgpdm)-dataset(walking)-mode(ELBO)-parts(1)-dyn(26)-lvm(25)_final(3).mov,resources/videos_natural\training(47).mov,True,True,left,0,233,233,233,2018-09-20 14:29:11.275373,2018-09-20 14:29:15.396609,0:00:04.121236,6,left,1,0.33388678404298844,24,f,1,8,2018_Sep_20_1404,MP_PerceptionTuring2,59.941581698958004,
235,resources/videos_generated\model(vcgpdm)-dataset(walking)-mode(ELBO)-parts(2)-dyn(25)-lvm(20)_final(1).mov,resources/videos_natural\training(28).mov,True,False,right,0,234,234,234,2018-09-20 14:29:16.847692,2018-09-20 14:29:20.733914,0:00:03.886222,6,right,1,0.4172269439040974,24,f,1,8,2018_Sep_20_1404,MP_PerceptionTuring2,59.941581698958004,
236,resources/videos_generated\model(vcgpdm)-dataset(walking)-mode(ELBO)-parts(1)-dyn(27)-lvm(28)_final(9).mov,resources/videos_natural\training(20).mov,True,False,right,0,235,235,235,2018-09-20 14:29:22.269002,2018-09-20 14:29:26.189226,0:00:03.920224,6,left,0,0.8843141447666767,24,f,1,8,2018_Sep_20_1404,MP_PerceptionTuring2,59.941581698958004,
237,resources/videos_generated\model(vcgpdm)-dataset(walking)-mode(ELBO)-parts(1)-dyn(25)-lvm(22)_final(4).mov,resources/videos_natural\training(13).mov,False,False,right,0,236,236,236,2018-09-20 14:29:28.190341,2018-09-20 14:29:32.294575,0:00:04.104234,6,right,1,0.817653099946483,24,f,1,8,2018_Sep_20_1404,MP_PerceptionTuring2,59.941581698958004,
238,resources/videos_generated\model(tmp)-dataset(walking)-numprim(13)_final(8).mov,resources/videos_natural\training(40).mov,True,True,left,0,237,237,237,2018-09-20 14:29:34.228686,2018-09-20 14:29:38.198913,0:00:03.970227,6,left,1,0.8008706834759778,24,f,1,8,2018_Sep_20_1404,MP_PerceptionTuring2,59.941581698958004,
239,resources/videos_generated\model(vcgpdm)-dataset(walking)-mode(ELBO)-parts(2)-dyn(26)-lvm(21)_final(7).mov,resources/videos_natural\training(21).mov,True,True,left,0,238,238,238,2018-09-20 14:29:40.117023,2018-09-20 14:29:44.021246,0:00:03.904223,6,left,1,0.36711490853463147,24,f,1,8,2018_Sep_20_1404,MP_PerceptionTuring2,59.941581698958004,
240,resources/videos_generated\model(vcgpdm)-dataset(walking)-mode(ELBO)-parts(2)-dyn(22)-lvm(19)_final(1).mov,resources/videos_natural\training(33).mov,False,True,left,0,239,239,239,2018-09-20 14:29:45.505331,2018-09-20 14:29:49.625567,0:00:04.120236,6,left,1,0.4006478174185304,24,f,1,8,2018_Sep_20_1404,MP_PerceptionTuring2,59.941581698958004,
241,resources/videos_generated\model(vcgpdm)-dataset(walking)-mode(ELBO)-parts(1)-dyn(27)-lvm(24)_final(7).mov,resources/videos_natural\training(26).mov,True,True,left,0,240,240,240,2018-09-20 14:29:51.143653,2018-09-20 14:29:55.115881,0:00:03.972228,6,right,0,0.317366988115964,24,f,1,8,2018_Sep_20_1404,MP_PerceptionTuring2,59.941581698958004,
242,resources/videos_generated\model(vcgpdm)-dataset(walking)-mode(ELBO)-parts(1)-dyn(24)-lvm(27)_final(2).mov,resources/videos_natural\training(10).mov,True,True,left,0,241,241,241,2018-09-20 14:29:56.547962,2018-09-20 14:30:00.518190,0:00:03.970228,6,left,1,0.26714894078395446,24,f,1,8,2018_Sep_20_1404,MP_PerceptionTuring2,59.941581698958004,
243,resources/videos_generated\model(vcgpdm)-dataset(walking)-mode(ELBO)-parts(1)-dyn(23)-lvm(28)_final(6)_hip-corrected.mov,resources/videos_natural\training(38).mov,True,True,left,0,242,242,242,2018-09-20 14:30:01.903269,2018-09-20 14:30:05.806492,0:00:03.903223,6,right,0,0.33387293020678044,24,f,1,8,2018_Sep_20_1404,MP_PerceptionTuring2,59.941581698958004,
244,resources/videos_generated\model(vcgpdm)-dataset(walking)-mode(ELBO)-parts(1)-dyn(23)-lvm(26)_final(7).mov,resources/videos_natural\training(22).mov,False,True,left,0,243,243,243,2018-09-20 14:30:07.257575,2018-09-20 14:30:11.327808,0:00:04.070233,6,right,0,0.31717454026352243,24,f,1,8,2018_Sep_20_1404,MP_PerceptionTuring2,59.941581698958004,
245,resources/videos_generated\model(dmp)-dataset(walking)-npsi(90)_final(6).mov,resources/videos_natural\training(43).mov,True,False,right,0,244,244,244,2018-09-20 14:30:12.762890,2018-09-20 14:30:16.799121,0:00:04.036231,6,left,0,0.5173296429927632,24,f,1,8,2018_Sep_20_1404,MP_PerceptionTuring2,59.941581698958004,
246,resources/videos_generated\model(vcgpdm)-dataset(walking)-mode(ELBO)-parts(1)-dyn(28)-lvm(23)_final(5).mov,resources/videos_natural\training(29).mov,True,False,right,0,245,245,245,2018-09-20 14:30:18.434214,2018-09-20 14:30:22.337438,0:00:03.903224,6,right,1,0.28369192682771427,24,f,1,8,2018_Sep_20_1404,MP_PerceptionTuring2,59.941581698958004,
247,resources/videos_generated\model(vcgpdm)-dataset(walking)-mode(ELBO)-parts(1)-dyn(22)-lvm(25)_final(8).mov,resources/videos_natural\training(22).mov,True,True,left,0,246,246,246,2018-09-20 14:30:23.738518,2018-09-20 14:30:27.641741,0:00:03.903223,6,right,0,0.6509092332805722,24,f,1,8,2018_Sep_20_1404,MP_PerceptionTuring2,59.941581698958004,
248,resources/videos_generated\model(vcgpdm)-dataset(walking)-mode(ELBO)-parts(1)-dyn(28)-lvm(24)_final(7).mov,resources/videos_natural\training(42).mov,False,True,left,0,247,247,247,2018-09-20 14:30:29.409842,2018-09-20 14:30:33.297064,0:00:03.887222,6,right,0,0.7509751895868249,24,f,1,8,2018_Sep_20_1404,MP_PerceptionTuring2,59.941581698958004,
249,resources/videos_generated\model(vcgpdm)-dataset(walking)-mode(ELBO)-parts(1)-dyn(28)-lvm(25)_final(9).mov,resources/videos_natural\training(12).mov,True,False,right,0,248,248,248,2018-09-20 14:30:35.165171,2018-09-20 14:30:39.085395,0:00:03.920224,6,right,1,0.3173254266077947,24,f,1,8,2018_Sep_20_1404,MP_PerceptionTuring2,59.941581698958004,
250,resources/videos_generated\model(vcgpdm)-dataset(walking)-mode(ELBO)-parts(1)-dyn(28)-lvm(23)_final(9).mov,resources/videos_natural\training(14).mov,True,True,left,0,249,249,249,2018-09-20 14:30:40.519478,2018-09-20 14:30:44.439702,0:00:03.920224,6,left,1,0.40045717658813373,24,f,1,8,2018_Sep_20_1404,MP_PerceptionTuring2,59.941581698958004,
251,resources/videos_generated\model(vcgpdm)-dataset(walking)-mode(ELBO)-parts(1)-dyn(22)-lvm(22)_final(6).mov,resources/videos_natural\training(43).mov,False,False,right,0,250,250,250,2018-09-20 14:30:45.957789,2018-09-20 14:30:49.861012,0:00:03.903223,6,right,1,0.3838822664874897,24,f,1,8,2018_Sep_20_1404,MP_PerceptionTuring2,59.941581698958004,
252,resources/videos_generated\model(vcgpdm)-dataset(walking)-mode(ELBO)-parts(2)-dyn(23)-lvm(18)_final(5).mov,resources/videos_natural\training(30).mov,False,True,left,0,251,251,251,2018-09-20 14:30:51.362098,2018-09-20 14:30:55.282322,0:00:03.920224,6,left,1,0.7176759888927791,24,f,1,8,2018_Sep_20_1404,MP_PerceptionTuring2,59.941581698958004,
253,resources/videos_generated\model(tmp)-dataset(walking)-numprim(12)_final(6).mov,resources/videos_natural\training(33).mov,False,False,right,0,252,252,252,2018-09-20 14:30:57.117427,2018-09-20 14:31:01.054652,0:00:03.937225,6,left,0,0.3505788494087483,24,f,1,8,2018_Sep_20_1404,MP_PerceptionTuring2,59.941581698958004,
254,resources/videos_generated\model(vcgpdm)-dataset(walking)-mode(ELBO)-parts(2)-dyn(26)-lvm(17)_final(1).mov,resources/videos_natural\training(21).mov,False,False,right,0,253,253,253,2018-09-20 14:31:02.521736,2018-09-20 14:31:06.441960,0:00:03.920224,6,left,0,0.3505165071467218,24,f,1,8,2018_Sep_20_1404,MP_PerceptionTuring2,59.941581698958004,
255,resources/videos_generated\model(vcgpdm)-dataset(walking)-mode(ELBO)-parts(2)-dyn(23)-lvm(22)_final(9).mov,resources/videos_natural\training(0).mov,False,True,left,0,254,254,254,2018-09-20 14:31:07.910044,2018-09-20 14:31:11.847269,0:00:03.937225,6,left,1,0.4506556478474977,24,f,1,8,2018_Sep_20_1404,MP_PerceptionTuring2,59.941581698958004,
256,resources/videos_generated\model(vcgpdm)-dataset(walking)-mode(ELBO)-parts(2)-dyn(24)-lvm(17)_final(3).mov,resources/videos_natural\training(23).mov,False,False,right,0,255,255,255,2018-09-20 14:31:13.414359,2018-09-20 14:31:17.434589,0:00:04.020230,6,right,1,0.5673332570368075,24,f,1,8,2018_Sep_20_1404,MP_PerceptionTuring2,59.941581698958004,
257,resources/videos_generated\model(vcgpdm)-dataset(walking)-mode(ELBO)-parts(1)-dyn(25)-lvm(28)_final(2).mov,resources/videos_natural\training(33).mov,False,True,left,0,256,256,256,2018-09-20 14:31:19.119685,2018-09-20 14:31:23.039910,0:00:03.920225,6,right,0,0.4172148970901617,24,f,1,8,2018_Sep_20_1404,MP_PerceptionTuring2,59.941581698958004,
258,resources/videos_generated\model(vcgpdm)-dataset(walking)-mode(ELBO)-parts(2)-dyn(27)-lvm(18)_final(7).mov,resources/videos_natural\training(21).mov,False,False,right,0,257,257,257,2018-09-20 14:31:24.573997,2018-09-20 14:31:28.528223,0:00:03.954226,6,right,1,0.33358651720595844,24,f,1,8,2018_Sep_20_1404,MP_PerceptionTuring2,59.941581698958004,
259,resources/videos_generated\model(vcgpdm)-dataset(walking)-mode(ELBO)-parts(2)-dyn(28)-lvm(21)_final(3).mov,resources/videos_natural\training(8).mov,True,True,left,0,258,258,258,2018-09-20 14:31:29.979306,2018-09-20 14:31:33.899531,0:00:03.920225,6,left,1,0.35057403068321946,24,f,1,8,2018_Sep_20_1404,MP_PerceptionTuring2,59.941581698958004,
260,resources/videos_generated\model(vcgpdm)-dataset(walking)-mode(ELBO)-parts(1)-dyn(25)-lvm(28)_final(6).mov,resources/videos_natural\training(39).mov,True,True,left,0,259,259,259,2018-09-20 14:31:35.366615,2018-09-20 14:31:39.453848,0:00:04.087233,6,left,1,0.3170600955311329,24,f,1,8,2018_Sep_20_1404,MP_PerceptionTuring2,59.941581698958004,
261,resources/videos_generated\model(vcgpdm)-dataset(walking)-mode(ELBO)-parts(2)-dyn(24)-lvm(19)_final(5).mov,resources/videos_natural\training(17).mov,False,False,right,0,260,260,260,2018-09-20 14:31:40.888930,2018-09-20 14:31:44.808155,0:00:03.919225,6,right,1,0.30056740493546386,24,f,1,8,2018_Sep_20_1404,MP_PerceptionTuring2,59.941581698958004,
262,resources/videos_generated\model(vcgpdm)-dataset(walking)-mode(ELBO)-parts(2)-dyn(26)-lvm(17)_final(9).mov,resources/videos_natural\training(44).mov,True,False,right,0,261,261,261,2018-09-20 14:31:46.226236,2018-09-20 14:31:50.129459,0:00:03.903223,6,right,1,0.584106337226558,24,f,1,8,2018_Sep_20_1404,MP_PerceptionTuring2,59.941581698958004,
263,resources/videos_generated\model(vcgpdm)-dataset(walking)-mode(ELBO)-parts(2)-dyn(25)-lvm(18)_final(5).mov,resources/videos_natural\training(10).mov,False,True,left,0,262,262,262,2018-09-20 14:31:51.831556,2018-09-20 14:31:55.767781,0:00:03.936225,6,left,1,0.28383317572070155,24,f,1,8,2018_Sep_20_1404,MP_PerceptionTuring2,59.941581698958004,
264,resources/videos_generated\model(vcgpdm)-dataset(walking)-mode(ELBO)-parts(1)-dyn(26)-lvm(25)_final(1).mov,resources/videos_natural\training(10).mov,False,False,right,0,263,263,263,2018-09-20 14:31:57.168862,2018-09-20 14:32:01.073085,0:00:03.904223,6,right,1,0.26706431191632873,24,f,1,8,2018_Sep_20_1404,MP_PerceptionTuring2,59.941581698958004,
265,resources/videos_generated\model(tmp)-dataset(walking)-numprim(14)_final(2).mov,resources/videos_natural\training(6).mov,False,True,left,0,264,264,264,2018-09-20 14:32:02.457164,2018-09-20 14:32:06.377388,0:00:03.920224,6,left,1,0.4338864828723672,24,f,1,8,2018_Sep_20_1404,MP_PerceptionTuring2,59.941581698958004,
266,resources/videos_generated\model(vcgpdm)-dataset(walking)-mode(ELBO)-parts(1)-dyn(27)-lvm(24)_final(3).mov,resources/videos_natural\training(9).mov,True,True,left,0,265,265,265,2018-09-20 14:32:07.928477,2018-09-20 14:32:11.848701,0:00:03.920224,6,left,1,0.40049331702994095,24,f,1,8,2018_Sep_20_1404,MP_PerceptionTuring2,59.941581698958004,
267,resources/videos_generated\model(vcgpdm)-dataset(walking)-mode(ELBO)-parts(1)-dyn(24)-lvm(25)_final(6).mov,resources/videos_natural\training(46).mov,True,True,left,0,266,266,266,2018-09-20 14:32:13.366788,2018-09-20 14:32:17.287012,0:00:03.920224,6,left,1,0.33385576349701296,24,f,1,8,2018_Sep_20_1404,MP_PerceptionTuring2,59.941581698958004,
268,resources/videos_generated\model(vcgpdm)-dataset(walking)-mode(ELBO)-parts(2)-dyn(24)-lvm(21)_final(5).mov,resources/videos_natural\training(38).mov,True,True,left,0,267,267,267,2018-09-20 14:32:18.738095,2018-09-20 14:32:22.641319,0:00:03.903224,6,right,0,0.3837485468529849,24,f,1,8,2018_Sep_20_1404,MP_PerceptionTuring2,59.941581698958004,
269,resources/videos_generated\model(dmp)-dataset(walking)-npsi(50)_final(8).mov,resources/videos_natural\training(27).mov,False,False,right,0,268,268,268,2018-09-20 14:32:24.142404,2018-09-20 14:32:28.095631,0:00:03.953227,6,right,1,0.4005017497997869,24,f,1,8,2018_Sep_20_1404,MP_PerceptionTuring2,59.941581698958004,
270,resources/videos_generated\model(vcgpdm)-dataset(walking)-mode(ELBO)-parts(2)-dyn(26)-lvm(19)_final(9).mov,resources/videos_natural\training(19).mov,True,True,left,0,269,269,269,2018-09-20 14:32:29.613717,2018-09-20 14:32:33.667949,0:00:04.054232,6,left,1,0.31713508694792836,24,f,1,8,2018_Sep_20_1404,MP_PerceptionTuring2,59.941581698958004,
271,resources/videos_generated\model(vcgpdm)-dataset(walking)-mode(ELBO)-parts(2)-dyn(27)-lvm(22)_final(5).mov,resources/videos_natural\training(3).mov,False,True,left,0,270,270,270,2018-09-20 14:33:08.030915,2018-09-20 14:33:11.934138,0:00:03.903223,7,left,1,0.40059812431127284,24,f,1,8,2018_Sep_20_1404,MP_PerceptionTuring2,59.941581698958004,
272,resources/videos_generated\model(vcgpdm)-dataset(walking)-mode(ELBO)-parts(1)-dyn(25)-lvm(22)_final(8).mov,resources/videos_natural\training(48).mov,False,False,right,0,271,271,271,2018-09-20 14:33:13.452225,2018-09-20 14:33:17.355448,0:00:03.903223,7,right,1,0.4006161945317217,24,f,1,8,2018_Sep_20_1404,MP_PerceptionTuring2,59.941581698958004,
273,resources/videos_generated\model(vcgpdm)-dataset(walking)-mode(ELBO)-parts(2)-dyn(26)-lvm(19)_final(7).mov,resources/videos_natural\training(1).mov,True,True,left,0,272,272,272,2018-09-20 14:33:18.873535,2018-09-20 14:33:22.859763,0:00:03.986228,7,left,1,0.41728055222574767,24,f,1,8,2018_Sep_20_1404,MP_PerceptionTuring2,59.941581698958004,
274,resources/videos_generated\model(vcgpdm)-dataset(walking)-mode(ELBO)-parts(2)-dyn(23)-lvm(20)_final(5).mov,resources/videos_natural\training(31).mov,False,False,right,0,273,273,273,2018-09-20 14:33:24.394851,2018-09-20 14:33:28.315075,0:00:03.920224,7,right,1,0.48403556219454913,24,f,1,8,2018_Sep_20_1404,MP_PerceptionTuring2,59.941581698958004,
275,resources/videos_generated\model(vcgpdm)-dataset(walking)-mode(ELBO)-parts(1)-dyn(25)-lvm(23)_final(0).mov,resources/videos_natural\training(37).mov,False,True,left,0,274,274,274,2018-09-20 14:33:29.916166,2018-09-20 14:33:33.802389,0:00:03.886223,7,left,1,0.3505556592922403,24,f,1,8,2018_Sep_20_1404,MP_PerceptionTuring2,59.941581698958004,
276,resources/videos_generated\model(vcgpdm)-dataset(walking)-mode(ELBO)-parts(2)-dyn(22)-lvm(21)_final(5).mov,resources/videos_natural\training(1).mov,True,False,right,0,275,275,275,2018-09-20 14:33:35.270473,2018-09-20 14:33:39.307704,0:00:04.037231,7,left,0,0.3504954252225616,24,f,1,8,2018_Sep_20_1404,MP_PerceptionTuring2,59.941581698958004,
277,resources/videos_generated\model(vcgpdm)-dataset(walking)-mode(ELBO)-parts(2)-dyn(27)-lvm(22)_final(9).mov,resources/videos_natural\training(2).mov,False,True,left,0,276,276,276,2018-09-20 14:33:40.775788,2018-09-20 14:33:44.879022,0:00:04.103234,7,left,1,0.40072250766479556,24,f,1,8,2018_Sep_20_1404,MP_PerceptionTuring2,59.941581698958004,
278,resources/videos_generated\model(vcgpdm)-dataset(walking)-mode(ELBO)-parts(2)-dyn(26)-lvm(19)_final(5).mov,resources/videos_natural\training(4).mov,True,False,right,0,277,277,277,2018-09-20 14:33:46.397109,2018-09-20 14:33:50.350335,0:00:03.953226,7,left,0,0.6008149669619343,24,f,1,8,2018_Sep_20_1404,MP_PerceptionTuring2,59.941581698958004,
279,resources/videos_generated\model(vcgpdm)-dataset(walking)-mode(ELBO)-parts(2)-dyn(22)-lvm(23)_final(5).mov,resources/videos_natural\training(4).mov,True,True,left,0,278,278,278,2018-09-20 14:33:52.068433,2018-09-20 14:33:56.021660,0:00:03.953227,7,left,1,0.3171311717333083,24,f,1,8,2018_Sep_20_1404,MP_PerceptionTuring2,59.941581698958004,
280,resources/videos_generated\model(vcgpdm)-dataset(walking)-mode(ELBO)-parts(1)-dyn(27)-lvm(26)_final(3).mov,resources/videos_natural\training(27).mov,False,False,right,0,279,279,279,2018-09-20 14:33:57.456742,2018-09-20 14:34:01.359965,0:00:03.903223,7,right,1,0.3676073220535727,24,f,1,8,2018_Sep_20_1404,MP_PerceptionTuring2,59.941581698958004,
281,resources/videos_generated\model(vcgpdm)-dataset(walking)-mode(ELBO)-parts(2)-dyn(26)-lvm(17)_final(3).mov,resources/videos_natural\training(23).mov,False,False,right,0,280,280,280,2018-09-20 14:34:02.844050,2018-09-20 14:34:06.748273,0:00:03.904223,7,left,0,0.28377745920624875,24,f,1,8,2018_Sep_20_1404,MP_PerceptionTuring2,59.941581698958004,
282,resources/videos_generated\model(vcgpdm)-dataset(walking)-mode(ELBO)-parts(1)-dyn(23)-lvm(22)_final(3)_fail.mov,resources/videos_natural\training(48).mov,True,True,left,0,281,281,281,2018-09-20 14:34:08.149353,2018-09-20 14:34:12.085578,0:00:03.936225,7,left,1,0.28380667272995197,24,f,1,8,2018_Sep_20_1404,MP_PerceptionTuring2,59.941581698958004,
283,resources/videos_generated\model(vcgpdm)-dataset(walking)-mode(ELBO)-parts(2)-dyn(27)-lvm(18)_final(1).mov,resources/videos_natural\training(13).mov,True,False,right,0,282,282,282,2018-09-20 14:34:13.486659,2018-09-20 14:34:17.373881,0:00:03.887222,7,left,0,1.3180635951307522,24,f,1,8,2018_Sep_20_1404,MP_PerceptionTuring2,59.941581698958004,
284,resources/videos_generated\model(tmp)-dataset(walking)-numprim(14)_final(4).mov,resources/videos_natural\training(8).mov,True,True,left,0,283,283,283,2018-09-20 14:34:19.809020,2018-09-20 14:34:23.779247,0:00:03.970227,7,left,1,0.28368228937642925,24,f,1,8,2018_Sep_20_1404,MP_PerceptionTuring2,59.941581698958004,
285,resources/videos_generated\model(vcgpdm)-dataset(walking)-mode(ELBO)-parts(2)-dyn(22)-lvm(17)_final(9).mov,resources/videos_natural\training(20).mov,True,False,right,0,284,284,284,2018-09-20 14:34:25.180327,2018-09-20 14:34:29.083551,0:00:03.903224,7,left,0,0.3338500412605754,24,f,1,8,2018_Sep_20_1404,MP_PerceptionTuring2,59.941581698958004,
286,resources/videos_generated\model(vcgpdm)-dataset(walking)-mode(ELBO)-parts(1)-dyn(26)-lvm(23)_final(3)_fail.mov,resources/videos_natural\training(15).mov,False,False,right,0,285,285,285,2018-09-20 14:34:30.535634,2018-09-20 14:34:34.455858,0:00:03.920224,7,right,1,0.26712183545259904,24,f,1,8,2018_Sep_20_1404,MP_PerceptionTuring2,59.941581698958004,
287,resources/videos_generated\model(dmp)-dataset(walking)-npsi(70)_final(8).mov,resources/videos_natural\training(13).mov,True,True,left,0,286,286,286,2018-09-20 14:34:35.839937,2018-09-20 14:34:39.793163,0:00:03.953226,7,right,0,0.28391178118181415,24,f,1,8,2018_Sep_20_1404,MP_PerceptionTuring2,59.941581698958004,
288,resources/videos_generated\model(vcgpdm)-dataset(walking)-mode(ELBO)-parts(1)-dyn(25)-lvm(22)_final(0).mov,resources/videos_natural\training(18).mov,True,False,right,0,287,287,287,2018-09-20 14:34:41.194243,2018-09-20 14:34:45.147469,0:00:03.953226,7,right,1,0.25044753913698514,24,f,1,8,2018_Sep_20_1404,MP_PerceptionTuring2,59.941581698958004,
289,resources/videos_generated\model(vcgpdm)-dataset(walking)-mode(ELBO)-parts(1)-dyn(22)-lvm(23)_final(0).mov,resources/videos_natural\training(36).mov,True,False,right,0,288,288,288,2018-09-20 14:34:46.515548,2018-09-20 14:34:50.502776,0:00:03.987228,7,right,1,0.4172865756331703,24,f,1,8,2018_Sep_20_1404,MP_PerceptionTuring2,59.941581698958004,
290,resources/videos_generated\model(vcgpdm)-dataset(walking)-mode(ELBO)-parts(2)-dyn(23)-lvm(18)_final(9).mov,resources/videos_natural\training(25).mov,False,True,left,0,289,289,289,2018-09-20 14:34:52.036863,2018-09-20 14:34:55.974089,0:00:03.937226,7,right,0,0.6340698956146298,24,f,1,8,2018_Sep_20_1404,MP_PerceptionTuring2,59.941581698958004,
291,resources/videos_generated\model(vcgpdm)-dataset(walking)-mode(ELBO)-parts(1)-dyn(22)-lvm(23)_final(6)_fail.mov,resources/videos_natural\training(33).mov,True,True,left,0,290,290,290,2018-09-20 14:34:57.725189,2018-09-20 14:35:01.778421,0:00:04.053232,7,left,1,0.31722152283782634,24,f,1,8,2018_Sep_20_1404,MP_PerceptionTuring2,59.941581698958004,
