n_trial,mov_file_generated,mov_file_natural,mirrored,switch_stim_pos,correct_answer,trials.thisRepN,trials.thisTrialN,trials.thisN,trials.thisIndex,stimulus_onset,stimulus_off,stimulus_length,block,response.keys,response.corr,response.rt,age,gender,condition,participant,date,expName,frameRate,
1,resources/videos_generated\model(vcgpdm)-dataset(walking)-mode(ELBO)-parts(2)-dyn(22)-lvm(23)_final(6).mov,resources/videos_natural\training(45).mov,True,False,right,0,0,0,0,2018-09-19 09:09:25.445010,2018-09-19 09:09:30.116277,0:00:04.671267,1,right,1,2.252401929795951,24,f,2,8,2018_Sep_19_0908,MP_PerceptionTuring2,59.9291575067642,
2,resources/videos_generated\model(vcgpdm)-dataset(walking)-mode(ELBO)-parts(2)-dyn(27)-lvm(18)_final(2).mov,resources/videos_natural\training(19).mov,True,True,left,0,1,1,1,2018-09-19 09:09:33.485470,2018-09-19 09:09:37.455697,0:00:03.970227,1,right,0,1.7516645077583917,24,f,2,8,2018_Sep_19_0908,MP_PerceptionTuring2,59.9291575067642,
3,resources/videos_generated\model(vcgpdm)-dataset(walking)-mode(ELBO)-parts(1)-dyn(24)-lvm(23)_final(9).mov,resources/videos_natural\training(47).mov,True,True,left,0,2,2,2,2018-09-19 09:09:40.324861,2018-09-19 09:09:44.445097,0:00:04.120236,1,left,1,1.6517145325900628,24,f,2,8,2018_Sep_19_0908,MP_PerceptionTuring2,59.9291575067642,
4,resources/videos_generated\model(vcgpdm)-dataset(walking)-mode(ELBO)-parts(2)-dyn(22)-lvm(21)_final(6).mov,resources/videos_natural\training(20).mov,True,True,left,0,3,3,3,2018-09-19 09:09:47.214255,2018-09-19 09:09:51.117478,0:00:03.903223,1,left,1,1.2514553431248032,24,f,2,8,2018_Sep_19_0908,MP_PerceptionTuring2,59.9291575067642,
5,resources/videos_generated\model(vcgpdm)-dataset(walking)-mode(ELBO)-parts(2)-dyn(22)-lvm(17)_final(8).mov,resources/videos_natural\training(39).mov,True,True,left,0,4,4,4,2018-09-19 09:09:53.486614,2018-09-19 09:09:57.572848,0:00:04.086234,1,left,1,1.0177529423847318,24,f,2,8,2018_Sep_19_0908,MP_PerceptionTuring2,59.9291575067642,
6,resources/videos_generated\model(vcgpdm)-dataset(walking)-mode(ELBO)-parts(1)-dyn(27)-lvm(24)_final(4).mov,resources/videos_natural\training(0).mov,True,False,right,0,5,5,5,2018-09-19 09:09:59.707970,2018-09-19 09:10:03.828205,0:00:04.120235,1,left,0,0.9010188983032776,24,f,2,8,2018_Sep_19_0908,MP_PerceptionTuring2,59.9291575067642,
7,resources/videos_generated\model(vcgpdm)-dataset(walking)-mode(ELBO)-parts(2)-dyn(22)-lvm(23)_final(2).mov,resources/videos_natural\training(2).mov,False,False,right,0,6,6,6,2018-09-19 09:10:05.847321,2018-09-19 09:10:09.933555,0:00:04.086234,1,right,1,0.91809329796763,24,f,2,8,2018_Sep_19_0908,MP_PerceptionTuring2,59.9291575067642,
8,resources/videos_generated\model(vcgpdm)-dataset(walking)-mode(ELBO)-parts(1)-dyn(23)-lvm(26)_final(8)_hip-corrected.mov,resources/videos_natural\training(32).mov,False,False,right,0,7,7,7,2018-09-19 09:10:11.968671,2018-09-19 09:10:16.055905,0:00:04.087234,1,right,1,1.6510895986599508,24,f,2,8,2018_Sep_19_0908,MP_PerceptionTuring2,59.9291575067642,
9,resources/videos_generated\model(vcgpdm)-dataset(walking)-mode(ELBO)-parts(1)-dyn(27)-lvm(24)_final(0).mov,resources/videos_natural\training(2).mov,True,False,right,0,8,8,8,2018-09-19 09:10:18.825063,2018-09-19 09:10:22.745287,0:00:03.920224,1,right,1,1.2846367748470584,24,f,2,8,2018_Sep_19_0908,MP_PerceptionTuring2,59.9291575067642,
10,resources/videos_generated\model(vcgpdm)-dataset(walking)-mode(ELBO)-parts(2)-dyn(23)-lvm(20)_final(8).mov,resources/videos_natural\training(22).mov,True,True,left,0,9,9,9,2018-09-19 09:10:25.146425,2018-09-19 09:10:29.066649,0:00:03.920224,1,left,1,1.4014584602651894,24,f,2,8,2018_Sep_19_0908,MP_PerceptionTuring2,59.9291575067642,
11,resources/videos_generated\model(vcgpdm)-dataset(walking)-mode(ELBO)-parts(2)-dyn(25)-lvm(22)_final(8).mov,resources/videos_natural\training(9).mov,True,False,right,0,10,10,10,2018-09-19 09:10:31.585793,2018-09-19 09:10:35.656026,0:00:04.070233,1,right,1,0.5509194660444336,24,f,2,8,2018_Sep_19_0908,MP_PerceptionTuring2,59.9291575067642,
12,resources/videos_generated\model(vcgpdm)-dataset(walking)-mode(ELBO)-parts(2)-dyn(22)-lvm(21)_final(4).mov,resources/videos_natural\training(47).mov,False,False,right,0,11,11,11,2018-09-19 09:10:37.324121,2018-09-19 09:10:41.211344,0:00:03.887223,1,right,1,0.6841674268774796,24,f,2,8,2018_Sep_19_0908,MP_PerceptionTuring2,59.9291575067642,
13,resources/videos_generated\model(vcgpdm)-dataset(walking)-mode(ELBO)-parts(1)-dyn(23)-lvm(27)_final(0).mov,resources/videos_natural\training(41).mov,False,False,right,0,12,12,12,2018-09-19 09:10:43.012447,2018-09-19 09:10:47.082679,0:00:04.070232,1,right,1,0.700709653889021,24,f,2,8,2018_Sep_19_0908,MP_PerceptionTuring2,59.9291575067642,
14,resources/videos_generated\model(tmp)-dataset(walking)-numprim(14)_final(5).mov,resources/videos_natural\training(8).mov,True,False,right,0,13,13,13,2018-09-19 09:10:48.900783,2018-09-19 09:10:52.988017,0:00:04.087234,1,left,0,0.7010081163106179,24,f,2,8,2018_Sep_19_0908,MP_PerceptionTuring2,59.9291575067642,
15,resources/videos_generated\model(vcgpdm)-dataset(walking)-mode(ELBO)-parts(2)-dyn(28)-lvm(19)_final(2).mov,resources/videos_natural\training(5).mov,True,False,right,0,14,14,14,2018-09-19 09:10:54.806121,2018-09-19 09:10:58.892355,0:00:04.086234,1,right,1,0.7008466875942077,24,f,2,8,2018_Sep_19_0908,MP_PerceptionTuring2,59.9291575067642,
16,resources/videos_generated\model(vcgpdm)-dataset(walking)-mode(ELBO)-parts(1)-dyn(22)-lvm(22)_final(7).mov,resources/videos_natural\training(35).mov,False,True,left,0,15,15,15,2018-09-19 09:11:00.710459,2018-09-19 09:11:04.797693,0:00:04.087234,1,left,1,0.6840620163350195,24,f,2,8,2018_Sep_19_0908,MP_PerceptionTuring2,59.9291575067642,
17,resources/videos_generated\model(vcgpdm)-dataset(walking)-mode(ELBO)-parts(1)-dyn(27)-lvm(28)_final(4).mov,resources/videos_natural\training(43).mov,True,True,left,0,16,16,16,2018-09-19 09:11:06.599796,2018-09-19 09:11:10.686029,0:00:04.086233,1,right,0,0.4506168173184051,24,f,2,8,2018_Sep_19_0908,MP_PerceptionTuring2,59.9291575067642,
18,resources/videos_generated\model(vcgpdm)-dataset(walking)-mode(ELBO)-parts(1)-dyn(28)-lvm(23)_final(0).mov,resources/videos_natural\training(2).mov,False,True,left,0,17,17,17,2018-09-19 09:11:12.254119,2018-09-19 09:11:16.358354,0:00:04.104235,1,right,0,0.4507312630502156,24,f,2,8,2018_Sep_19_0908,MP_PerceptionTuring2,59.9291575067642,
19,resources/videos_generated\model(vcgpdm)-dataset(walking)-mode(ELBO)-parts(1)-dyn(22)-lvm(23)_final(3)_fail.mov,resources/videos_natural\training(27).mov,False,False,right,0,18,18,18,2018-09-19 09:11:17.925444,2018-09-19 09:11:22.029678,0:00:04.104234,1,right,1,0.6675071400583192,24,f,2,8,2018_Sep_19_0908,MP_PerceptionTuring2,59.9291575067642,
20,resources/videos_generated\model(dmp)-dataset(walking)-npsi(70)_final(9).mov,resources/videos_natural\training(22).mov,False,True,left,0,19,19,19,2018-09-19 09:11:23.814780,2018-09-19 09:11:27.751006,0:00:03.936226,1,right,0,0.9676865488015665,24,f,2,8,2018_Sep_19_0908,MP_PerceptionTuring2,59.9291575067642,
21,resources/videos_generated\model(vcgpdm)-dataset(walking)-mode(ELBO)-parts(1)-dyn(26)-lvm(25)_final(4).mov,resources/videos_natural\training(3).mov,True,True,left,0,20,20,20,2018-09-19 09:11:29.836125,2018-09-19 09:11:33.956360,0:00:04.120235,1,left,1,1.2513348739335015,24,f,2,8,2018_Sep_19_0908,MP_PerceptionTuring2,59.9291575067642,
22,resources/videos_generated\model(vcgpdm)-dataset(walking)-mode(ELBO)-parts(1)-dyn(23)-lvm(24)_final(6).mov,resources/videos_natural\training(9).mov,True,False,right,0,21,21,21,2018-09-19 09:11:36.325496,2018-09-19 09:11:40.278722,0:00:03.953226,1,right,1,0.767478498508126,24,f,2,8,2018_Sep_19_0908,MP_PerceptionTuring2,59.9291575067642,
23,resources/videos_generated\model(vcgpdm)-dataset(walking)-mode(ELBO)-parts(1)-dyn(23)-lvm(26)_final(2).mov,resources/videos_natural\training(26).mov,False,False,right,0,22,22,22,2018-09-19 09:11:42.163830,2018-09-19 09:11:46.234063,0:00:04.070233,1,right,1,0.8676910965135676,24,f,2,8,2018_Sep_19_0908,MP_PerceptionTuring2,59.9291575067642,
24,resources/videos_generated\model(vcgpdm)-dataset(walking)-mode(ELBO)-parts(2)-dyn(26)-lvm(23)_final(8).mov,resources/videos_natural\training(12).mov,False,True,left,0,23,23,23,2018-09-19 09:11:48.219176,2018-09-19 09:11:52.322411,0:00:04.103235,1,left,1,1.03447768022113,24,f,2,8,2018_Sep_19_0908,MP_PerceptionTuring2,59.9291575067642,
25,resources/videos_generated\model(vcgpdm)-dataset(walking)-mode(ELBO)-parts(2)-dyn(25)-lvm(22)_final(6).mov,resources/videos_natural\training(26).mov,False,False,right,0,24,24,24,2018-09-19 09:11:54.474534,2018-09-19 09:11:58.394758,0:00:03.920224,1,right,1,1.0676443544672338,24,f,2,8,2018_Sep_19_0908,MP_PerceptionTuring2,59.9291575067642,
26,resources/videos_generated\model(tmp)-dataset(walking)-numprim(14)_final(7).mov,resources/videos_natural\training(9).mov,True,True,left,0,25,25,25,2018-09-19 09:12:00.579883,2018-09-19 09:12:04.533109,0:00:03.953226,1,right,0,0.6006879995518375,24,f,2,8,2018_Sep_19_0908,MP_PerceptionTuring2,59.9291575067642,
27,resources/videos_generated\model(vcgpdm)-dataset(walking)-mode(ELBO)-parts(2)-dyn(26)-lvm(19)_final(0).mov,resources/videos_natural\training(16).mov,False,True,left,0,26,26,26,2018-09-19 09:12:06.251208,2018-09-19 09:12:10.338441,0:00:04.087233,1,left,1,0.46728884988363006,24,f,2,8,2018_Sep_19_0908,MP_PerceptionTuring2,59.9291575067642,
28,resources/videos_generated\model(vcgpdm)-dataset(walking)-mode(ELBO)-parts(1)-dyn(24)-lvm(25)_final(3).mov,resources/videos_natural\training(22).mov,True,True,left,0,27,27,27,2018-09-19 09:12:11.922532,2018-09-19 09:12:15.842756,0:00:03.920224,1,right,0,0.4171709557211898,24,f,2,8,2018_Sep_19_0908,MP_PerceptionTuring2,59.9291575067642,
29,resources/videos_generated\model(vcgpdm)-dataset(walking)-mode(ELBO)-parts(2)-dyn(25)-lvm(20)_final(4).mov,resources/videos_natural\training(19).mov,False,False,right,0,28,28,28,2018-09-19 09:12:17.376844,2018-09-19 09:12:21.364072,0:00:03.987228,1,right,1,1.1011037688485885,24,f,2,8,2018_Sep_19_0908,MP_PerceptionTuring2,59.9291575067642,
30,resources/videos_generated\model(vcgpdm)-dataset(walking)-mode(ELBO)-parts(1)-dyn(27)-lvm(22)_final(6).mov,resources/videos_natural\training(38).mov,False,False,right,0,29,29,29,2018-09-19 09:12:23.582199,2018-09-19 09:12:27.686434,0:00:04.104235,1,right,1,0.8175454944371268,24,f,2,8,2018_Sep_19_0908,MP_PerceptionTuring2,59.9291575067642,
31,resources/videos_generated\model(vcgpdm)-dataset(walking)-mode(ELBO)-parts(1)-dyn(25)-lvm(28)_final(1).mov,resources/videos_natural\training(17).mov,True,True,left,0,30,30,30,2018-09-19 09:12:29.621544,2018-09-19 09:12:33.557769,0:00:03.936225,1,left,1,0.6006759526327414,24,f,2,8,2018_Sep_19_0908,MP_PerceptionTuring2,59.9291575067642,
32,resources/videos_generated\model(vcgpdm)-dataset(walking)-mode(ELBO)-parts(1)-dyn(24)-lvm(27)_final(5).mov,resources/videos_natural\training(1).mov,True,True,left,0,31,31,31,2018-09-19 09:12:35.275868,2018-09-19 09:12:39.179091,0:00:03.903223,1,left,1,1.2179576797753953,24,f,2,8,2018_Sep_19_0908,MP_PerceptionTuring2,59.9291575067642,
33,resources/videos_generated\model(vcgpdm)-dataset(walking)-mode(ELBO)-parts(2)-dyn(26)-lvm(17)_final(0).mov,resources/videos_natural\training(28).mov,False,True,left,0,32,32,32,2018-09-19 09:12:41.515225,2018-09-19 09:12:45.418448,0:00:03.903223,1,right,0,0.6506911468094358,24,f,2,8,2018_Sep_19_0908,MP_PerceptionTuring2,59.9291575067642,
34,resources/videos_generated\model(vcgpdm)-dataset(walking)-mode(ELBO)-parts(2)-dyn(23)-lvm(18)_final(6).mov,resources/videos_natural\training(12).mov,True,False,right,0,33,33,33,2018-09-19 09:12:47.186549,2018-09-19 09:12:51.122774,0:00:03.936225,1,right,1,2.1689749065685646,24,f,2,8,2018_Sep_19_0908,MP_PerceptionTuring2,59.9291575067642,
35,resources/videos_generated\model(vcgpdm)-dataset(walking)-mode(ELBO)-parts(2)-dyn(26)-lvm(19)_final(4).mov,resources/videos_natural\training(11).mov,False,True,left,0,34,34,34,2018-09-19 09:12:54.408962,2018-09-19 09:12:58.496196,0:00:04.087234,1,right,0,0.6341606655440728,24,f,2,8,2018_Sep_19_0908,MP_PerceptionTuring2,59.9291575067642,
36,resources/videos_generated\model(vcgpdm)-dataset(walking)-mode(ELBO)-parts(2)-dyn(26)-lvm(17)_final(6).mov,resources/videos_natural\training(46).mov,True,False,right,0,35,35,35,2018-09-19 09:13:00.248296,2018-09-19 09:13:04.301528,0:00:04.053232,1,left,0,0.5675159041920779,24,f,2,8,2018_Sep_19_0908,MP_PerceptionTuring2,59.9291575067642,
37,resources/videos_generated\model(vcgpdm)-dataset(walking)-mode(ELBO)-parts(2)-dyn(24)-lvm(19)_final(0).mov,resources/videos_natural\training(0).mov,True,True,left,0,36,36,36,2018-09-19 09:13:05.986624,2018-09-19 09:13:10.089859,0:00:04.103235,1,right,0,0.5173591587154078,24,f,2,8,2018_Sep_19_0908,MP_PerceptionTuring2,59.9291575067642,
38,resources/videos_generated\model(vcgpdm)-dataset(walking)-mode(ELBO)-parts(1)-dyn(27)-lvm(26)_final(8).mov,resources/videos_natural\training(13).mov,False,False,right,0,37,37,37,2018-09-19 09:13:11.723952,2018-09-19 09:13:15.828187,0:00:04.104235,1,right,1,0.31724808612102606,24,f,2,8,2018_Sep_19_0908,MP_PerceptionTuring2,59.9291575067642,
39,resources/videos_generated\model(vcgpdm)-dataset(walking)-mode(ELBO)-parts(1)-dyn(25)-lvm(22)_final(1).mov,resources/videos_natural\training(48).mov,False,False,right,0,38,38,38,2018-09-19 09:13:17.262269,2018-09-19 09:13:21.299500,0:00:04.037231,1,right,1,0.6174338194967959,24,f,2,8,2018_Sep_19_0908,MP_PerceptionTuring2,59.9291575067642,
40,resources/videos_generated\model(dmp)-dataset(walking)-npsi(100)_final(5).mov,resources/videos_natural\training(24).mov,False,False,right,0,39,39,39,2018-09-19 09:13:23.033599,2018-09-19 09:13:26.970825,0:00:03.937226,1,left,0,0.7008759013730241,24,f,2,8,2018_Sep_19_0908,MP_PerceptionTuring2,59.9291575067642,
41,resources/videos_generated\model(vcgpdm)-dataset(walking)-mode(ELBO)-parts(2)-dyn(23)-lvm(22)_final(2).mov,resources/videos_natural\training(34).mov,False,True,left,0,40,40,40,2018-09-19 09:13:28.788929,2018-09-19 09:13:32.893163,0:00:04.104234,1,left,1,0.45066560734096583,24,f,2,8,2018_Sep_19_0908,MP_PerceptionTuring2,59.9291575067642,
42,resources/videos_generated\model(vcgpdm)-dataset(walking)-mode(ELBO)-parts(2)-dyn(27)-lvm(20)_final(6).mov,resources/videos_natural\training(34).mov,True,False,right,0,41,41,41,2018-09-19 09:13:34.460253,2018-09-19 09:13:38.397478,0:00:03.937225,1,right,1,1.6850694399478243,24,f,2,8,2018_Sep_19_0908,MP_PerceptionTuring2,59.9291575067642,
43,resources/videos_generated\model(vcgpdm)-dataset(walking)-mode(ELBO)-parts(2)-dyn(23)-lvm(18)_final(2).mov,resources/videos_natural\training(7).mov,False,True,left,0,42,42,42,2018-09-19 09:13:41.199638,2018-09-19 09:13:45.286872,0:00:04.087234,1,left,1,0.8509654551581889,24,f,2,8,2018_Sep_19_0908,MP_PerceptionTuring2,59.9291575067642,
44,resources/videos_generated\model(vcgpdm)-dataset(walking)-mode(ELBO)-parts(1)-dyn(24)-lvm(23)_final(5).mov,resources/videos_natural\training(16).mov,False,True,left,0,43,43,43,2018-09-19 09:13:47.254985,2018-09-19 09:13:51.158208,0:00:03.903223,1,left,1,0.6008548493819035,24,f,2,8,2018_Sep_19_0908,MP_PerceptionTuring2,59.9291575067642,
45,resources/videos_generated\model(vcgpdm)-dataset(walking)-mode(ELBO)-parts(2)-dyn(26)-lvm(23)_final(2).mov,resources/videos_natural\training(9).mov,False,True,left,0,44,44,44,2018-09-19 09:13:52.876306,2018-09-19 09:13:56.796530,0:00:03.920224,1,left,1,0.6841653186666008,24,f,2,8,2018_Sep_19_0908,MP_PerceptionTuring2,59.9291575067642,
46,resources/videos_generated\model(dmp)-dataset(walking)-npsi(60)_final(3).mov,resources/videos_natural\training(40).mov,True,False,right,0,45,45,45,2018-09-19 09:14:31.459513,2018-09-19 09:14:35.546747,0:00:04.087234,2,right,1,0.4171947483865779,24,f,2,8,2018_Sep_19_0908,MP_PerceptionTuring2,59.9291575067642,
47,resources/videos_generated\model(vcgpdm)-dataset(walking)-mode(ELBO)-parts(1)-dyn(24)-lvm(25)_final(5).mov,resources/videos_natural\training(21).mov,False,False,right,0,46,46,46,2018-09-19 09:14:37.081835,2018-09-19 09:14:41.168068,0:00:04.086233,2,right,1,0.5841499889620536,24,f,2,8,2018_Sep_19_0908,MP_PerceptionTuring2,59.9291575067642,
48,resources/videos_generated\model(vcgpdm)-dataset(walking)-mode(ELBO)-parts(2)-dyn(25)-lvm(18)_final(6).mov,resources/videos_natural\training(29).mov,True,False,right,0,47,47,47,2018-09-19 09:14:42.870166,2018-09-19 09:14:46.806391,0:00:03.936225,2,right,1,0.7842164879556321,24,f,2,8,2018_Sep_19_0908,MP_PerceptionTuring2,59.9291575067642,
49,resources/videos_generated\model(vcgpdm)-dataset(walking)-mode(ELBO)-parts(1)-dyn(25)-lvm(26)_final(3)_fail.mov,resources/videos_natural\training(3).mov,False,True,left,0,48,48,48,2018-09-19 09:14:48.708500,2018-09-19 09:14:52.728730,0:00:04.020230,2,left,1,0.5506116672604549,24,f,2,8,2018_Sep_19_0908,MP_PerceptionTuring2,59.9291575067642,
50,resources/videos_generated\model(vcgpdm)-dataset(walking)-mode(ELBO)-parts(1)-dyn(25)-lvm(22)_final(9).mov,resources/videos_natural\training(5).mov,True,False,right,0,49,49,49,2018-09-19 09:14:54.396825,2018-09-19 09:14:58.317049,0:00:03.920224,2,right,1,0.66757460280553,24,f,2,8,2018_Sep_19_0908,MP_PerceptionTuring2,59.9291575067642,
51,resources/videos_generated\model(vcgpdm)-dataset(walking)-mode(ELBO)-parts(1)-dyn(27)-lvm(28)_final(8).mov,resources/videos_natural\training(7).mov,False,True,left,0,50,50,50,2018-09-19 09:15:00.101151,2018-09-19 09:15:04.054377,0:00:03.953226,2,left,1,0.4839217299615939,24,f,2,8,2018_Sep_19_0908,MP_PerceptionTuring2,59.9291575067642,
52,resources/videos_generated\model(dmp)-dataset(walking)-npsi(80)_final(7).mov,resources/videos_natural\training(0).mov,False,False,right,0,51,51,51,2018-09-19 09:15:05.656469,2018-09-19 09:15:09.592694,0:00:03.936225,2,left,0,0.5172206191452915,24,f,2,8,2018_Sep_19_0908,MP_PerceptionTuring2,59.9291575067642,
53,resources/videos_generated\model(vcgpdm)-dataset(walking)-mode(ELBO)-parts(1)-dyn(27)-lvm(26)_final(6).mov,resources/videos_natural\training(21).mov,False,False,right,0,52,52,52,2018-09-19 09:15:11.227788,2018-09-19 09:15:15.148012,0:00:03.920224,2,right,1,0.6008349719653552,24,f,2,8,2018_Sep_19_0908,MP_PerceptionTuring2,59.9291575067642,
54,resources/videos_generated\model(vcgpdm)-dataset(walking)-mode(ELBO)-parts(2)-dyn(26)-lvm(19)_final(8).mov,resources/videos_natural\training(12).mov,False,False,right,0,53,53,53,2018-09-19 09:15:16.866110,2018-09-19 09:15:20.836337,0:00:03.970227,2,right,1,0.6007446200718505,24,f,2,8,2018_Sep_19_0908,MP_PerceptionTuring2,59.9291575067642,
55,resources/videos_generated\model(vcgpdm)-dataset(walking)-mode(ELBO)-parts(2)-dyn(25)-lvm(18)_final(0).mov,resources/videos_natural\training(24).mov,True,True,left,0,54,54,54,2018-09-19 09:15:22.554436,2018-09-19 09:15:26.557664,0:00:04.003228,2,left,1,0.5007660334706543,24,f,2,8,2018_Sep_19_0908,MP_PerceptionTuring2,59.9291575067642,
56,resources/videos_generated\model(vcgpdm)-dataset(walking)-mode(ELBO)-parts(1)-dyn(27)-lvm(26)_final(0).mov,resources/videos_natural\training(26).mov,False,True,left,0,55,55,55,2018-09-19 09:15:28.175757,2018-09-19 09:15:32.095981,0:00:03.920224,2,left,1,0.4172348043927059,24,f,2,8,2018_Sep_19_0908,MP_PerceptionTuring2,59.9291575067642,
57,resources/videos_generated\model(vcgpdm)-dataset(walking)-mode(ELBO)-parts(1)-dyn(26)-lvm(23)_final(0).mov,resources/videos_natural\training(24).mov,False,False,right,0,56,56,56,2018-09-19 09:15:33.630069,2018-09-19 09:15:37.550293,0:00:03.920224,2,left,0,0.6341859640742769,24,f,2,8,2018_Sep_19_0908,MP_PerceptionTuring2,59.9291575067642,
58,resources/videos_generated\model(tmp)-dataset(walking)-numprim(14)_final(3).mov,resources/videos_natural\training(13).mov,False,False,right,0,57,57,57,2018-09-19 09:15:39.302393,2018-09-19 09:15:43.205617,0:00:03.903224,2,right,1,0.40069468559204324,24,f,2,8,2018_Sep_19_0908,MP_PerceptionTuring2,59.9291575067642,
59,resources/videos_generated\model(vcgpdm)-dataset(walking)-mode(ELBO)-parts(2)-dyn(27)-lvm(18)_final(8).mov,resources/videos_natural\training(47).mov,False,False,right,0,58,58,58,2018-09-19 09:15:44.723704,2018-09-19 09:15:48.643928,0:00:03.920224,2,right,1,1.6008220215272786,24,f,2,8,2018_Sep_19_0908,MP_PerceptionTuring2,59.9291575067642,
60,resources/videos_generated\model(vcgpdm)-dataset(walking)-mode(ELBO)-parts(1)-dyn(23)-lvm(22)_final(4)_fail.mov,resources/videos_natural\training(1).mov,False,False,right,0,59,59,59,2018-09-19 09:15:51.362083,2018-09-19 09:15:55.316309,0:00:03.954226,2,right,1,0.5507396657762911,24,f,2,8,2018_Sep_19_0908,MP_PerceptionTuring2,59.9291575067642,
61,resources/videos_generated\model(vcgpdm)-dataset(walking)-mode(ELBO)-parts(2)-dyn(28)-lvm(21)_final(6).mov,resources/videos_natural\training(30).mov,True,True,left,0,60,60,60,2018-09-19 09:15:56.984405,2018-09-19 09:16:00.937631,0:00:03.953226,2,right,0,0.5840795144850972,24,f,2,8,2018_Sep_19_0908,MP_PerceptionTuring2,59.9291575067642,
62,resources/videos_generated\model(vcgpdm)-dataset(walking)-mode(ELBO)-parts(2)-dyn(22)-lvm(19)_final(6).mov,resources/videos_natural\training(44).mov,False,True,left,0,61,61,61,2018-09-19 09:16:02.638728,2018-09-19 09:16:06.558952,0:00:03.920224,2,left,1,0.3839371199009065,24,f,2,8,2018_Sep_19_0908,MP_PerceptionTuring2,59.9291575067642,
63,resources/videos_generated\model(vcgpdm)-dataset(walking)-mode(ELBO)-parts(1)-dyn(22)-lvm(22)_final(3).mov,resources/videos_natural\training(0).mov,False,True,left,0,62,62,62,2018-09-19 09:16:08.060038,2018-09-19 09:16:11.997263,0:00:03.937225,2,left,1,0.31713364038921554,24,f,2,8,2018_Sep_19_0908,MP_PerceptionTuring2,59.9291575067642,
64,resources/videos_generated\model(dmp)-dataset(walking)-npsi(60)_final(9).mov,resources/videos_natural\training(27).mov,False,False,right,0,63,63,63,2018-09-19 09:16:13.431346,2018-09-19 09:16:17.351570,0:00:03.920224,2,right,1,0.5339296959868989,24,f,2,8,2018_Sep_19_0908,MP_PerceptionTuring2,59.9291575067642,
65,resources/videos_generated\model(vcgpdm)-dataset(walking)-mode(ELBO)-parts(1)-dyn(22)-lvm(25)_final(3).mov,resources/videos_natural\training(46).mov,True,True,left,0,64,64,64,2018-09-19 09:16:19.002664,2018-09-19 09:16:22.906887,0:00:03.904223,2,left,1,1.0012983567100946,24,f,2,8,2018_Sep_19_0908,MP_PerceptionTuring2,59.9291575067642,
66,resources/videos_generated\model(vcgpdm)-dataset(walking)-mode(ELBO)-parts(2)-dyn(24)-lvm(19)_final(4).mov,resources/videos_natural\training(29).mov,False,False,right,0,65,65,65,2018-09-19 09:16:25.025009,2018-09-19 09:16:28.945233,0:00:03.920224,2,right,1,0.5173895771863499,24,f,2,8,2018_Sep_19_0908,MP_PerceptionTuring2,59.9291575067642,
67,resources/videos_generated\model(dmp)-dataset(walking)-npsi(100)_final(3).mov,resources/videos_natural\training(42).mov,True,False,right,0,66,66,66,2018-09-19 09:16:30.579326,2018-09-19 09:16:34.666560,0:00:04.087234,2,left,0,0.800909301456386,24,f,2,8,2018_Sep_19_0908,MP_PerceptionTuring2,59.9291575067642,
68,resources/videos_generated\model(vcgpdm)-dataset(walking)-mode(ELBO)-parts(2)-dyn(28)-lvm(21)_final(8).mov,resources/videos_natural\training(36).mov,False,True,left,0,67,67,67,2018-09-19 09:16:36.584670,2018-09-19 09:16:40.621901,0:00:04.037231,2,left,1,0.45062585250775555,24,f,2,8,2018_Sep_19_0908,MP_PerceptionTuring2,59.9291575067642,
69,resources/videos_generated\model(vcgpdm)-dataset(walking)-mode(ELBO)-parts(2)-dyn(23)-lvm(20)_final(0).mov,resources/videos_natural\training(43).mov,False,False,right,0,68,68,68,2018-09-19 09:16:42.189990,2018-09-19 09:16:46.110215,0:00:03.920225,2,right,1,0.3005134095762969,24,f,2,8,2018_Sep_19_0908,MP_PerceptionTuring2,59.9291575067642,
70,resources/videos_generated\model(vcgpdm)-dataset(walking)-mode(ELBO)-parts(2)-dyn(24)-lvm(23)_final(8).mov,resources/videos_natural\training(1).mov,False,False,right,0,69,69,69,2018-09-19 09:16:47.527296,2018-09-19 09:16:51.464521,0:00:03.937225,2,right,1,0.7508483289868764,24,f,2,8,2018_Sep_19_0908,MP_PerceptionTuring2,59.9291575067642,
71,resources/videos_generated\model(vcgpdm)-dataset(walking)-mode(ELBO)-parts(1)-dyn(22)-lvm(23)_final(5).mov,resources/videos_natural\training(16).mov,True,False,right,0,70,70,70,2018-09-19 09:16:53.332628,2018-09-19 09:16:57.285854,0:00:03.953226,2,left,0,0.5007347114808454,24,f,2,8,2018_Sep_19_0908,MP_PerceptionTuring2,59.9291575067642,
72,resources/videos_generated\model(vcgpdm)-dataset(walking)-mode(ELBO)-parts(1)-dyn(24)-lvm(23)_final(7).mov,resources/videos_natural\training(42).mov,False,True,left,0,71,71,71,2018-09-19 09:16:58.903946,2018-09-19 09:17:02.807170,0:00:03.903224,2,right,0,0.533791457589814,24,f,2,8,2018_Sep_19_0908,MP_PerceptionTuring2,59.9291575067642,
73,resources/videos_generated\model(vcgpdm)-dataset(walking)-mode(ELBO)-parts(1)-dyn(23)-lvm(28)_final(9).mov,resources/videos_natural\training(35).mov,True,True,left,0,72,72,72,2018-09-19 09:17:04.459264,2018-09-19 09:17:08.429491,0:00:03.970227,2,left,1,0.7007825377497738,24,f,2,8,2018_Sep_19_0908,MP_PerceptionTuring2,59.9291575067642,
74,resources/videos_generated\model(dmp)-dataset(walking)-npsi(70)_final(7).mov,resources/videos_natural\training(13).mov,False,True,left,0,73,73,73,2018-09-19 09:17:10.247595,2018-09-19 09:17:14.233823,0:00:03.986228,2,right,0,0.6841475494607039,24,f,2,8,2018_Sep_19_0908,MP_PerceptionTuring2,59.9291575067642,
75,resources/videos_generated\model(vcgpdm)-dataset(walking)-mode(ELBO)-parts(1)-dyn(26)-lvm(25)_final(2).mov,resources/videos_natural\training(25).mov,True,False,right,0,74,74,74,2018-09-19 09:17:16.035926,2018-09-19 09:17:20.123160,0:00:04.087234,2,right,1,0.4673605290527121,24,f,2,8,2018_Sep_19_0908,MP_PerceptionTuring2,59.9291575067642,
76,resources/videos_generated\model(vcgpdm)-dataset(walking)-mode(ELBO)-parts(1)-dyn(25)-lvm(28)_final(3).mov,resources/videos_natural\training(25).mov,True,True,left,0,75,75,75,2018-09-19 09:17:21.707251,2018-09-19 09:17:25.627475,0:00:03.920224,2,left,1,0.8009198425106661,24,f,2,8,2018_Sep_19_0908,MP_PerceptionTuring2,59.9291575067642,
77,resources/videos_generated\model(vcgpdm)-dataset(walking)-mode(ELBO)-parts(1)-dyn(24)-lvm(27)_final(9).mov,resources/videos_natural\training(23).mov,True,True,left,0,76,76,76,2018-09-19 09:17:27.545585,2018-09-19 09:17:31.465809,0:00:03.920224,2,left,1,0.8175864539621216,24,f,2,8,2018_Sep_19_0908,MP_PerceptionTuring2,59.9291575067642,
78,resources/videos_generated\model(tmp)-dataset(walking)-numprim(15)_final(3).mov,resources/videos_natural\training(23).mov,False,False,right,0,77,77,77,2018-09-19 09:17:33.400920,2018-09-19 09:17:37.337145,0:00:03.936225,2,left,0,0.7675372272387904,24,f,2,8,2018_Sep_19_0908,MP_PerceptionTuring2,59.9291575067642,
79,resources/videos_generated\model(vcgpdm)-dataset(walking)-mode(ELBO)-parts(2)-dyn(26)-lvm(23)_final(4).mov,resources/videos_natural\training(35).mov,True,True,left,0,78,78,78,2018-09-19 09:17:39.222252,2018-09-19 09:17:43.125476,0:00:03.903224,2,left,1,0.38394163749558174,24,f,2,8,2018_Sep_19_0908,MP_PerceptionTuring2,59.9291575067642,
80,resources/videos_generated\model(vcgpdm)-dataset(walking)-mode(ELBO)-parts(2)-dyn(27)-lvm(18)_final(4).mov,resources/videos_natural\training(18).mov,False,False,right,0,79,79,79,2018-09-19 09:17:44.627562,2018-09-19 09:17:48.713795,0:00:04.086233,2,right,1,0.40045495190133806,24,f,2,8,2018_Sep_19_0908,MP_PerceptionTuring2,59.9291575067642,
81,resources/videos_generated\model(vcgpdm)-dataset(walking)-mode(ELBO)-parts(1)-dyn(26)-lvm(22)_final(2).mov,resources/videos_natural\training(44).mov,False,True,left,0,80,80,80,2018-09-19 09:17:50.231882,2018-09-19 09:17:54.185108,0:00:03.953226,2,left,1,0.5005549112127028,24,f,2,8,2018_Sep_19_0908,MP_PerceptionTuring2,59.9291575067642,
82,resources/videos_generated\model(vcgpdm)-dataset(walking)-mode(ELBO)-parts(1)-dyn(22)-lvm(27)_final(3)_fail.mov,resources/videos_natural\training(40).mov,False,False,right,0,81,81,81,2018-09-19 09:17:55.803201,2018-09-19 09:17:59.723425,0:00:03.920224,2,right,1,0.6174561062971406,24,f,2,8,2018_Sep_19_0908,MP_PerceptionTuring2,59.9291575067642,
83,resources/videos_generated\model(vcgpdm)-dataset(walking)-mode(ELBO)-parts(2)-dyn(24)-lvm(21)_final(4).mov,resources/videos_natural\training(32).mov,False,False,right,0,82,82,82,2018-09-19 09:18:01.458524,2018-09-19 09:18:05.361748,0:00:03.903224,2,right,1,0.467377093566256,24,f,2,8,2018_Sep_19_0908,MP_PerceptionTuring2,59.9291575067642,
84,resources/videos_generated\model(vcgpdm)-dataset(walking)-mode(ELBO)-parts(1)-dyn(22)-lvm(23)_final(1).mov,resources/videos_natural\training(18).mov,False,False,right,0,83,83,83,2018-09-19 09:18:06.946838,2018-09-19 09:18:10.983069,0:00:04.036231,2,right,1,0.33393096091344887,24,f,2,8,2018_Sep_19_0908,MP_PerceptionTuring2,59.9291575067642,
85,resources/videos_generated\model(vcgpdm)-dataset(walking)-mode(ELBO)-parts(2)-dyn(28)-lvm(19)_final(4).mov,resources/videos_natural\training(6).mov,True,False,right,0,84,84,84,2018-09-19 09:18:12.434152,2018-09-19 09:18:16.488384,0:00:04.054232,2,right,1,0.4507315642231333,24,f,2,8,2018_Sep_19_0908,MP_PerceptionTuring2,59.9291575067642,
86,resources/videos_generated\model(tmp)-dataset(walking)-numprim(11)_final(5).mov,resources/videos_natural\training(21).mov,True,False,right,0,85,85,85,2018-09-19 09:18:18.056474,2018-09-19 09:18:21.975698,0:00:03.919224,2,right,1,0.41726100644177677,24,f,2,8,2018_Sep_19_0908,MP_PerceptionTuring2,59.9291575067642,
87,resources/videos_generated\model(vcgpdm)-dataset(walking)-mode(ELBO)-parts(2)-dyn(26)-lvm(17)_final(2).mov,resources/videos_natural\training(29).mov,True,True,left,0,86,86,86,2018-09-19 09:18:23.510786,2018-09-19 09:18:27.448011,0:00:03.937225,2,left,1,0.40062360876891034,24,f,2,8,2018_Sep_19_0908,MP_PerceptionTuring2,59.9291575067642,
88,resources/videos_generated\model(dmp)-dataset(walking)-npsi(100)_final(1).mov,resources/videos_natural\training(20).mov,True,True,left,0,87,87,87,2018-09-19 09:18:28.965098,2018-09-19 09:18:32.885322,0:00:03.920224,2,left,1,0.45051471967872203,24,f,2,8,2018_Sep_19_0908,MP_PerceptionTuring2,59.9291575067642,
89,resources/videos_generated\model(vcgpdm)-dataset(walking)-mode(ELBO)-parts(2)-dyn(27)-lvm(20)_final(2).mov,resources/videos_natural\training(47).mov,False,False,right,0,88,88,88,2018-09-19 09:18:34.453412,2018-09-19 09:18:38.356635,0:00:03.903223,2,right,1,0.5174205980031275,24,f,2,8,2018_Sep_19_0908,MP_PerceptionTuring2,59.9291575067642,
90,resources/videos_generated\model(vcgpdm)-dataset(walking)-mode(ELBO)-parts(2)-dyn(28)-lvm(19)_final(8).mov,resources/videos_natural\training(25).mov,False,False,right,0,89,89,89,2018-09-19 09:18:39.991728,2018-09-19 09:18:43.894952,0:00:03.903224,2,right,1,0.4673243882950828,24,f,2,8,2018_Sep_19_0908,MP_PerceptionTuring2,59.9291575067642,
91,resources/videos_generated\model(vcgpdm)-dataset(walking)-mode(ELBO)-parts(1)-dyn(27)-lvm(24)_final(2).mov,resources/videos_natural\training(45).mov,True,True,left,0,90,90,90,2018-09-19 09:19:17.256860,2018-09-19 09:19:21.160083,0:00:03.903223,3,right,0,0.48394883552987267,24,f,2,8,2018_Sep_19_0908,MP_PerceptionTuring2,59.9291575067642,
92,resources/videos_generated\model(vcgpdm)-dataset(walking)-mode(ELBO)-parts(2)-dyn(26)-lvm(17)_final(4).mov,resources/videos_natural\training(23).mov,False,False,right,0,91,91,91,2018-09-19 09:19:22.762175,2018-09-19 09:19:26.748403,0:00:03.986228,3,right,1,0.36746024742569716,24,f,2,8,2018_Sep_19_0908,MP_PerceptionTuring2,59.9291575067642,
93,resources/videos_generated\model(vcgpdm)-dataset(walking)-mode(ELBO)-parts(1)-dyn(27)-lvm(22)_final(4).mov,resources/videos_natural\training(45).mov,False,True,left,0,92,92,92,2018-09-19 09:19:28.233488,2018-09-19 09:19:32.170713,0:00:03.937225,3,left,1,0.38381785540150304,24,f,2,8,2018_Sep_19_0908,MP_PerceptionTuring2,59.9291575067642,
94,resources/videos_generated\model(vcgpdm)-dataset(walking)-mode(ELBO)-parts(1)-dyn(25)-lvm(24)_final(8).mov,resources/videos_natural\training(42).mov,False,False,right,0,93,93,93,2018-09-19 09:19:33.671799,2018-09-19 09:19:37.825036,0:00:04.153237,3,right,1,0.5173832525538273,24,f,2,8,2018_Sep_19_0908,MP_PerceptionTuring2,59.9291575067642,
95,resources/videos_generated\model(dmp)-dataset(walking)-npsi(50)_final(9).mov,resources/videos_natural\training(32).mov,True,False,right,0,94,94,94,2018-09-19 09:19:39.460130,2018-09-19 09:19:43.430357,0:00:03.970227,3,left,0,0.4506065774371564,24,f,2,8,2018_Sep_19_0908,MP_PerceptionTuring2,59.9291575067642,
96,resources/videos_generated\model(vcgpdm)-dataset(walking)-mode(ELBO)-parts(2)-dyn(22)-lvm(21)_final(0).mov,resources/videos_natural\training(10).mov,False,False,right,0,95,95,95,2018-09-19 09:19:44.997446,2018-09-19 09:19:49.117682,0:00:04.120236,3,right,1,0.5675574660631355,24,f,2,8,2018_Sep_19_0908,MP_PerceptionTuring2,59.9291575067642,
97,resources/videos_generated\model(vcgpdm)-dataset(walking)-mode(ELBO)-parts(2)-dyn(28)-lvm(23)_final(4)_fail.mov,resources/videos_natural\training(11).mov,True,True,left,0,96,96,96,2018-09-19 09:19:50.802778,2018-09-19 09:19:54.840009,0:00:04.037231,3,left,1,0.4005721081898628,24,f,2,8,2018_Sep_19_0908,MP_PerceptionTuring2,59.9291575067642,
98,resources/videos_generated\model(vcgpdm)-dataset(walking)-mode(ELBO)-parts(2)-dyn(26)-lvm(21)_final(8).mov,resources/videos_natural\training(43).mov,False,True,left,0,97,97,97,2018-09-19 09:19:56.358096,2018-09-19 09:20:00.244318,0:00:03.886222,3,left,1,0.40050374192378513,24,f,2,8,2018_Sep_19_0908,MP_PerceptionTuring2,59.9291575067642,
99,resources/videos_generated\model(vcgpdm)-dataset(walking)-mode(ELBO)-parts(2)-dyn(27)-lvm(20)_final(4).mov,resources/videos_natural\training(1).mov,False,False,right,0,98,98,98,2018-09-19 09:20:01.762405,2018-09-19 09:20:05.682630,0:00:03.920225,3,right,1,0.5005886425860808,24,f,2,8,2018_Sep_19_0908,MP_PerceptionTuring2,59.9291575067642,
100,resources/videos_generated\model(vcgpdm)-dataset(walking)-mode(ELBO)-parts(1)-dyn(24)-lvm(23)_final(3)_fail.mov,resources/videos_natural\training(20).mov,False,True,left,0,99,99,99,2018-09-19 09:20:07.300722,2018-09-19 09:20:11.203945,0:00:03.903223,3,left,1,0.6508248676118455,24,f,2,8,2018_Sep_19_0908,MP_PerceptionTuring2,59.9291575067642,
101,resources/videos_generated\model(vcgpdm)-dataset(walking)-mode(ELBO)-parts(1)-dyn(28)-lvm(27)_final(6).mov,resources/videos_natural\training(27).mov,False,False,right,0,100,100,100,2018-09-19 09:20:12.972046,2018-09-19 09:20:16.893271,0:00:03.921225,3,left,0,0.4505448369766327,24,f,2,8,2018_Sep_19_0908,MP_PerceptionTuring2,59.9291575067642,
102,resources/videos_generated\model(vcgpdm)-dataset(walking)-mode(ELBO)-parts(2)-dyn(27)-lvm(20)_final(8).mov,resources/videos_natural\training(33).mov,False,True,left,0,101,101,101,2018-09-19 09:20:18.460360,2018-09-19 09:20:22.380585,0:00:03.920225,3,left,1,0.40058566097400217,24,f,2,8,2018_Sep_19_0908,MP_PerceptionTuring2,59.9291575067642,
103,resources/videos_generated\model(vcgpdm)-dataset(walking)-mode(ELBO)-parts(1)-dyn(25)-lvm(25)_final(7).mov,resources/videos_natural\training(31).mov,False,True,left,0,102,102,102,2018-09-19 09:20:23.897671,2018-09-19 09:20:27.817896,0:00:03.920225,3,left,1,0.43411946508058463,24,f,2,8,2018_Sep_19_0908,MP_PerceptionTuring2,59.9291575067642,
104,resources/videos_generated\model(vcgpdm)-dataset(walking)-mode(ELBO)-parts(2)-dyn(26)-lvm(19)_final(6).mov,resources/videos_natural\training(11).mov,False,False,right,0,103,103,103,2018-09-19 09:20:29.369984,2018-09-19 09:20:33.306210,0:00:03.936226,3,left,0,0.6007482341476589,24,f,2,8,2018_Sep_19_0908,MP_PerceptionTuring2,59.9291575067642,
105,resources/videos_generated\model(vcgpdm)-dataset(walking)-mode(ELBO)-parts(1)-dyn(24)-lvm(27)_final(7).mov,resources/videos_natural\training(33).mov,True,True,left,0,104,104,104,2018-09-19 09:20:35.024308,2018-09-19 09:20:39.077540,0:00:04.053232,3,left,1,0.46730571557054645,24,f,2,8,2018_Sep_19_0908,MP_PerceptionTuring2,59.9291575067642,
106,resources/videos_generated\model(vcgpdm)-dataset(walking)-mode(ELBO)-parts(1)-dyn(28)-lvm(25)_final(2).mov,resources/videos_natural\training(36).mov,False,True,left,0,105,105,105,2018-09-19 09:20:40.662630,2018-09-19 09:20:44.565854,0:00:03.903224,3,right,0,1.1347185884865212,24,f,2,8,2018_Sep_19_0908,MP_PerceptionTuring2,59.9291575067642,
107,resources/videos_generated\model(vcgpdm)-dataset(walking)-mode(ELBO)-parts(2)-dyn(22)-lvm(23)_final(8).mov,resources/videos_natural\training(38).mov,True,False,right,0,106,106,106,2018-09-19 09:20:46.817982,2018-09-19 09:20:50.788209,0:00:03.970227,3,right,1,0.3672626779516577,24,f,2,8,2018_Sep_19_0908,MP_PerceptionTuring2,59.9291575067642,
108,resources/videos_generated\model(vcgpdm)-dataset(walking)-mode(ELBO)-parts(2)-dyn(24)-lvm(21)_final(2).mov,resources/videos_natural\training(34).mov,True,True,left,0,107,107,107,2018-09-19 09:20:52.272294,2018-09-19 09:20:56.176518,0:00:03.904224,3,left,1,0.6007440177259014,24,f,2,8,2018_Sep_19_0908,MP_PerceptionTuring2,59.9291575067642,
109,resources/videos_generated\model(vcgpdm)-dataset(walking)-mode(ELBO)-parts(2)-dyn(24)-lvm(21)_final(8).mov,resources/videos_natural\training(18).mov,True,True,left,0,108,108,108,2018-09-19 09:20:57.895616,2018-09-19 09:21:01.814840,0:00:03.919224,3,left,1,0.31719116442809536,24,f,2,8,2018_Sep_19_0908,MP_PerceptionTuring2,59.9291575067642,
110,resources/videos_generated\model(vcgpdm)-dataset(walking)-mode(ELBO)-parts(2)-dyn(26)-lvm(21)_final(6).mov,resources/videos_natural\training(26).mov,True,True,left,0,109,109,109,2018-09-19 09:21:03.248922,2018-09-19 09:21:07.219149,0:00:03.970227,3,left,1,1.9853488381197621,24,f,2,8,2018_Sep_19_0908,MP_PerceptionTuring2,59.9291575067642,
111,resources/videos_generated\model(vcgpdm)-dataset(walking)-mode(ELBO)-parts(1)-dyn(23)-lvm(22)_final(0).mov,resources/videos_natural\training(2).mov,True,False,right,0,110,110,110,2018-09-19 09:21:10.321327,2018-09-19 09:21:14.225550,0:00:03.904223,3,left,0,0.3505852242728906,24,f,2,8,2018_Sep_19_0908,MP_PerceptionTuring2,59.9291575067642,
112,resources/videos_generated\model(vcgpdm)-dataset(walking)-mode(ELBO)-parts(1)-dyn(27)-lvm(24)_final(6).mov,resources/videos_natural\training(17).mov,True,False,right,0,111,111,111,2018-09-19 09:21:15.692634,2018-09-19 09:21:19.596857,0:00:03.904223,3,left,0,0.5173206085742095,24,f,2,8,2018_Sep_19_0908,MP_PerceptionTuring2,59.9291575067642,
113,resources/videos_generated\model(vcgpdm)-dataset(walking)-mode(ELBO)-parts(1)-dyn(28)-lvm(25)_final(4).mov,resources/videos_natural\training(16).mov,False,False,right,0,112,112,112,2018-09-19 09:21:21.230951,2018-09-19 09:21:25.151175,0:00:03.920224,3,right,1,0.3504611410057805,24,f,2,8,2018_Sep_19_0908,MP_PerceptionTuring2,59.9291575067642,
114,resources/videos_generated\model(tmp)-dataset(walking)-numprim(15)_final(7).mov,resources/videos_natural\training(16).mov,True,False,right,0,113,113,113,2018-09-19 09:21:26.619259,2018-09-19 09:21:30.605487,0:00:03.986228,3,left,0,0.45062284077789627,24,f,2,8,2018_Sep_19_0908,MP_PerceptionTuring2,59.9291575067642,
115,resources/videos_generated\model(vcgpdm)-dataset(walking)-mode(ELBO)-parts(2)-dyn(28)-lvm(17)_final(0).mov,resources/videos_natural\training(48).mov,False,False,right,0,114,114,114,2018-09-19 09:21:32.173577,2018-09-19 09:21:36.093801,0:00:03.920224,3,right,1,0.38387899351619126,24,f,2,8,2018_Sep_19_0908,MP_PerceptionTuring2,59.9291575067642,
116,resources/videos_generated\model(tmp)-dataset(walking)-numprim(12)_final(7).mov,resources/videos_natural\training(36).mov,False,True,left,0,115,115,115,2018-09-19 09:21:37.594887,2018-09-19 09:21:41.532112,0:00:03.937225,3,right,0,0.31720833128792947,24,f,2,8,2018_Sep_19_0908,MP_PerceptionTuring2,59.9291575067642,
117,resources/videos_generated\model(vcgpdm)-dataset(walking)-mode(ELBO)-parts(2)-dyn(27)-lvm(22)_final(4).mov,resources/videos_natural\training(13).mov,False,False,right,0,116,116,116,2018-09-19 09:21:42.966194,2018-09-19 09:21:46.870417,0:00:03.904223,3,right,1,0.7508347762029643,24,f,2,8,2018_Sep_19_0908,MP_PerceptionTuring2,59.9291575067642,
118,resources/videos_generated\model(dmp)-dataset(walking)-npsi(60)_final(7).mov,resources/videos_natural\training(21).mov,False,False,right,0,117,117,117,2018-09-19 09:21:48.738524,2018-09-19 09:21:52.774755,0:00:04.036231,3,left,0,0.6008334661003119,24,f,2,8,2018_Sep_19_0908,MP_PerceptionTuring2,59.9291575067642,
119,resources/videos_generated\model(vcgpdm)-dataset(walking)-mode(ELBO)-parts(1)-dyn(28)-lvm(25)_final(8).mov,resources/videos_natural\training(39).mov,False,False,right,0,118,118,118,2018-09-19 09:21:54.492853,2018-09-19 09:21:58.580087,0:00:04.087234,3,left,0,0.8842004956704841,24,f,2,8,2018_Sep_19_0908,MP_PerceptionTuring2,59.9291575067642,
120,resources/videos_generated\model(vcgpdm)-dataset(walking)-mode(ELBO)-parts(2)-dyn(25)-lvm(18)_final(8).mov,resources/videos_natural\training(19).mov,True,False,right,0,119,119,119,2018-09-19 09:22:00.582201,2018-09-19 09:22:04.468424,0:00:03.886223,3,right,1,0.41739984718469714,24,f,2,8,2018_Sep_19_0908,MP_PerceptionTuring2,59.9291575067642,
121,resources/videos_generated\model(vcgpdm)-dataset(walking)-mode(ELBO)-parts(1)-dyn(23)-lvm(26)_final(0).mov,resources/videos_natural\training(10).mov,False,True,left,0,120,120,120,2018-09-19 09:22:06.003511,2018-09-19 09:22:09.939737,0:00:03.936226,3,right,0,0.7341702729620465,24,f,2,8,2018_Sep_19_0908,MP_PerceptionTuring2,59.9291575067642,
122,resources/videos_generated\model(vcgpdm)-dataset(walking)-mode(ELBO)-parts(2)-dyn(27)-lvm(20)_final(0).mov,resources/videos_natural\training(43).mov,True,False,right,0,121,121,121,2018-09-19 09:22:11.791843,2018-09-19 09:22:15.695066,0:00:03.903223,3,right,1,0.43392340147170216,24,f,2,8,2018_Sep_19_0908,MP_PerceptionTuring2,59.9291575067642,
123,resources/videos_generated\model(vcgpdm)-dataset(walking)-mode(ELBO)-parts(1)-dyn(22)-lvm(27)_final(1)_fail.mov,resources/videos_natural\training(15).mov,False,True,left,0,122,122,122,2018-09-19 09:22:17.246155,2018-09-19 09:22:21.333388,0:00:04.087233,3,left,1,0.6007789537911776,24,f,2,8,2018_Sep_19_0908,MP_PerceptionTuring2,59.9291575067642,
124,resources/videos_generated\model(vcgpdm)-dataset(walking)-mode(ELBO)-parts(1)-dyn(28)-lvm(24)_final(5).mov,resources/videos_natural\training(41).mov,False,False,right,0,123,123,123,2018-09-19 09:22:23.051487,2018-09-19 09:22:26.987712,0:00:03.936225,3,right,1,0.43400983811648075,24,f,2,8,2018_Sep_19_0908,MP_PerceptionTuring2,59.9291575067642,
125,resources/videos_generated\model(vcgpdm)-dataset(walking)-mode(ELBO)-parts(1)-dyn(27)-lvm(28)_final(6).mov,resources/videos_natural\training(20).mov,True,True,left,0,124,124,124,2018-09-19 09:22:28.538800,2018-09-19 09:22:32.443024,0:00:03.904224,3,left,1,0.4339604457479709,24,f,2,8,2018_Sep_19_0908,MP_PerceptionTuring2,59.9291575067642,
126,resources/videos_generated\model(vcgpdm)-dataset(walking)-mode(ELBO)-parts(2)-dyn(24)-lvm(19)_final(6).mov,resources/videos_natural\training(7).mov,True,False,right,0,125,125,125,2018-09-19 09:22:33.994112,2018-09-19 09:22:37.914337,0:00:03.920225,3,left,0,0.8509732856555274,24,f,2,8,2018_Sep_19_0908,MP_PerceptionTuring2,59.9291575067642,
127,resources/videos_generated\model(tmp)-dataset(walking)-numprim(12)_final(9).mov,resources/videos_natural\training(25).mov,True,False,right,0,126,126,126,2018-09-19 09:22:39.882449,2018-09-19 09:22:43.802673,0:00:03.920224,3,left,0,0.4839726281950334,24,f,2,8,2018_Sep_19_0908,MP_PerceptionTuring2,59.9291575067642,
128,resources/videos_generated\model(vcgpdm)-dataset(walking)-mode(ELBO)-parts(1)-dyn(25)-lvm(28)_final(9).mov,resources/videos_natural\training(18).mov,True,False,right,0,127,127,127,2018-09-19 09:22:45.403765,2018-09-19 09:22:49.340990,0:00:03.937225,3,left,0,0.5339748719336512,24,f,2,8,2018_Sep_19_0908,MP_PerceptionTuring2,59.9291575067642,
129,resources/videos_generated\model(vcgpdm)-dataset(walking)-mode(ELBO)-parts(1)-dyn(22)-lvm(25)_final(1).mov,resources/videos_natural\training(46).mov,True,False,right,0,128,128,128,2018-09-19 09:22:50.992085,2018-09-19 09:22:54.962312,0:00:03.970227,3,right,1,1.4848945186818128,24,f,2,8,2018_Sep_19_0908,MP_PerceptionTuring2,59.9291575067642,
130,resources/videos_generated\model(vcgpdm)-dataset(walking)-mode(ELBO)-parts(1)-dyn(23)-lvm(28)_final(7).mov,resources/videos_natural\training(43).mov,True,True,left,0,129,129,129,2018-09-19 09:22:57.564461,2018-09-19 09:23:01.601692,0:00:04.037231,3,left,1,0.6006753502865649,24,f,2,8,2018_Sep_19_0908,MP_PerceptionTuring2,59.9291575067642,
131,resources/videos_generated\model(vcgpdm)-dataset(walking)-mode(ELBO)-parts(2)-dyn(23)-lvm(18)_final(8).mov,resources/videos_natural\training(28).mov,False,False,right,0,130,130,130,2018-09-19 09:23:03.319790,2018-09-19 09:23:07.239014,0:00:03.919224,3,right,1,0.6006852889950096,24,f,2,8,2018_Sep_19_0908,MP_PerceptionTuring2,59.9291575067642,
132,resources/videos_generated\model(vcgpdm)-dataset(walking)-mode(ELBO)-parts(2)-dyn(28)-lvm(17)_final(4).mov,resources/videos_natural\training(19).mov,False,True,left,0,131,131,131,2018-09-19 09:23:08.958112,2018-09-19 09:23:12.879337,0:00:03.921225,3,left,1,0.4006061407362722,24,f,2,8,2018_Sep_19_0908,MP_PerceptionTuring2,59.9291575067642,
133,resources/videos_generated\model(vcgpdm)-dataset(walking)-mode(ELBO)-parts(2)-dyn(25)-lvm(22)_final(4).mov,resources/videos_natural\training(43).mov,False,False,right,0,132,132,132,2018-09-19 09:23:14.395423,2018-09-19 09:23:18.315648,0:00:03.920225,3,right,1,0.7176858711623026,24,f,2,8,2018_Sep_19_0908,MP_PerceptionTuring2,59.9291575067642,
134,resources/videos_generated\model(vcgpdm)-dataset(walking)-mode(ELBO)-parts(1)-dyn(25)-lvm(28)_final(7).mov,resources/videos_natural\training(40).mov,False,False,right,0,133,133,133,2018-09-19 09:23:20.150752,2018-09-19 09:23:24.120980,0:00:03.970228,3,right,1,0.5508601349677065,24,f,2,8,2018_Sep_19_0908,MP_PerceptionTuring2,59.9291575067642,
135,resources/videos_generated\model(vcgpdm)-dataset(walking)-mode(ELBO)-parts(2)-dyn(25)-lvm(22)_final(2).mov,resources/videos_natural\training(48).mov,True,True,left,0,134,134,134,2018-09-19 09:23:25.789075,2018-09-19 09:23:29.692298,0:00:03.903223,3,left,1,0.31728814212715406,24,f,2,8,2018_Sep_19_0908,MP_PerceptionTuring2,59.9291575067642,
136,resources/videos_generated\model(vcgpdm)-dataset(walking)-mode(ELBO)-parts(1)-dyn(26)-lvm(25)_final(6).mov,resources/videos_natural\training(24).mov,False,True,left,0,135,135,135,2018-09-19 09:24:02.804192,2018-09-19 09:24:06.740417,0:00:03.936225,4,right,0,1.2011793331487297,24,f,2,8,2018_Sep_19_0908,MP_PerceptionTuring2,59.9291575067642,
137,resources/videos_generated\model(vcgpdm)-dataset(walking)-mode(ELBO)-parts(1)-dyn(28)-lvm(25)_final(6).mov,resources/videos_natural\training(30).mov,True,True,left,0,136,136,136,2018-09-19 09:24:09.059550,2018-09-19 09:24:12.962773,0:00:03.903223,4,left,1,0.43391647449334414,24,f,2,8,2018_Sep_19_0908,MP_PerceptionTuring2,59.9291575067642,
138,resources/videos_generated\model(vcgpdm)-dataset(walking)-mode(ELBO)-parts(2)-dyn(24)-lvm(21)_final(0).mov,resources/videos_natural\training(7).mov,True,False,right,0,137,137,137,2018-09-19 09:24:14.513862,2018-09-19 09:24:18.434086,0:00:03.920224,4,left,0,0.6174106291775843,24,f,2,8,2018_Sep_19_0908,MP_PerceptionTuring2,59.9291575067642,
139,resources/videos_generated\model(vcgpdm)-dataset(walking)-mode(ELBO)-parts(1)-dyn(23)-lvm(28)_final(5).mov,resources/videos_natural\training(14).mov,False,False,right,0,138,138,138,2018-09-19 09:24:20.169185,2018-09-19 09:24:24.206416,0:00:04.037231,4,right,1,0.4839717246759392,24,f,2,8,2018_Sep_19_0908,MP_PerceptionTuring2,59.9291575067642,
140,resources/videos_generated\model(vcgpdm)-dataset(walking)-mode(ELBO)-parts(1)-dyn(23)-lvm(26)_final(4)_hip-corrected.mov,resources/videos_natural\training(8).mov,False,True,left,0,139,139,139,2018-09-19 09:24:25.807508,2018-09-19 09:24:29.777735,0:00:03.970227,4,left,1,0.4006865539215596,24,f,2,8,2018_Sep_19_0908,MP_PerceptionTuring2,59.9291575067642,
141,resources/videos_generated\model(vcgpdm)-dataset(walking)-mode(ELBO)-parts(1)-dyn(23)-lvm(28)_final(3)_hip-corrected.mov,resources/videos_natural\training(15).mov,False,True,left,0,140,140,140,2018-09-19 09:24:31.295822,2018-09-19 09:24:35.232047,0:00:03.936225,4,left,1,1.1344827700443147,24,f,2,8,2018_Sep_19_0908,MP_PerceptionTuring2,59.9291575067642,
142,resources/videos_generated\model(vcgpdm)-dataset(walking)-mode(ELBO)-parts(2)-dyn(28)-lvm(23)_final(8).mov,resources/videos_natural\training(48).mov,True,False,right,0,141,141,141,2018-09-19 09:24:37.484176,2018-09-19 09:24:41.504406,0:00:04.020230,4,right,1,1.2016642216440232,24,f,2,8,2018_Sep_19_0908,MP_PerceptionTuring2,59.9291575067642,
143,resources/videos_generated\model(vcgpdm)-dataset(walking)-mode(ELBO)-parts(1)-dyn(22)-lvm(27)_final(7)_hip-corrected.mov,resources/videos_natural\training(33).mov,False,False,right,0,142,142,142,2018-09-19 09:24:43.822538,2018-09-19 09:24:47.909772,0:00:04.087234,4,right,1,0.3338177198734229,24,f,2,8,2018_Sep_19_0908,MP_PerceptionTuring2,59.9291575067642,
144,resources/videos_generated\model(vcgpdm)-dataset(walking)-mode(ELBO)-parts(2)-dyn(22)-lvm(17)_final(2).mov,resources/videos_natural\training(36).mov,False,True,left,0,143,143,143,2018-09-19 09:24:49.360855,2018-09-19 09:24:53.281079,0:00:03.920224,4,left,1,0.5674493449639613,24,f,2,8,2018_Sep_19_0908,MP_PerceptionTuring2,59.9291575067642,
145,resources/videos_generated\model(vcgpdm)-dataset(walking)-mode(ELBO)-parts(1)-dyn(27)-lvm(22)_final(2).mov,resources/videos_natural\training(22).mov,False,False,right,0,144,144,144,2018-09-19 09:24:54.966176,2018-09-19 09:24:58.919402,0:00:03.953226,4,left,0,0.38386513955902046,24,f,2,8,2018_Sep_19_0908,MP_PerceptionTuring2,59.9291575067642,
146,resources/videos_generated\model(vcgpdm)-dataset(walking)-mode(ELBO)-parts(2)-dyn(28)-lvm(17)_final(8).mov,resources/videos_natural\training(41).mov,True,False,right,0,145,145,145,2018-09-19 09:25:00.420488,2018-09-19 09:25:04.340712,0:00:03.920224,4,right,1,0.3005953286262866,24,f,2,8,2018_Sep_19_0908,MP_PerceptionTuring2,59.9291575067642,
147,resources/videos_generated\model(vcgpdm)-dataset(walking)-mode(ELBO)-parts(2)-dyn(27)-lvm(22)_final(0).mov,resources/videos_natural\training(18).mov,False,False,right,0,146,146,146,2018-09-19 09:25:05.758793,2018-09-19 09:25:09.695018,0:00:03.936225,4,right,1,0.6005837937013894,24,f,2,8,2018_Sep_19_0908,MP_PerceptionTuring2,59.9291575067642,
148,resources/videos_generated\model(vcgpdm)-dataset(walking)-mode(ELBO)-parts(1)-dyn(27)-lvm(22)_final(0).mov,resources/videos_natural\training(29).mov,True,False,right,0,147,147,147,2018-09-19 09:25:11.413116,2018-09-19 09:25:15.433346,0:00:04.020230,4,left,0,0.5174178874462996,24,f,2,8,2018_Sep_19_0908,MP_PerceptionTuring2,59.9291575067642,
149,resources/videos_generated\model(vcgpdm)-dataset(walking)-mode(ELBO)-parts(1)-dyn(25)-lvm(26)_final(1).mov,resources/videos_natural\training(10).mov,False,False,right,0,148,148,148,2018-09-19 09:25:17.068440,2018-09-19 09:25:20.954662,0:00:03.886222,4,right,1,0.41724293606307583,24,f,2,8,2018_Sep_19_0908,MP_PerceptionTuring2,59.9291575067642,
150,resources/videos_generated\model(vcgpdm)-dataset(walking)-mode(ELBO)-parts(1)-dyn(25)-lvm(24)_final(6).mov,resources/videos_natural\training(24).mov,True,True,left,0,149,149,149,2018-09-19 09:25:22.489750,2018-09-19 09:25:26.443976,0:00:03.954226,4,left,1,0.5005603323261312,24,f,2,8,2018_Sep_19_0908,MP_PerceptionTuring2,59.9291575067642,
151,resources/videos_generated\model(vcgpdm)-dataset(walking)-mode(ELBO)-parts(2)-dyn(24)-lvm(19)_final(8).mov,resources/videos_natural\training(22).mov,False,False,right,0,150,150,150,2018-09-19 09:25:28.061069,2018-09-19 09:25:31.998294,0:00:03.937225,4,right,1,0.3505843207540238,24,f,2,8,2018_Sep_19_0908,MP_PerceptionTuring2,59.9291575067642,
152,resources/videos_generated\model(vcgpdm)-dataset(walking)-mode(ELBO)-parts(1)-dyn(23)-lvm(24)_final(4).mov,resources/videos_natural\training(37).mov,False,False,right,0,151,151,151,2018-09-19 09:25:33.465378,2018-09-19 09:25:37.385602,0:00:03.920224,4,right,1,0.38393862576572246,24,f,2,8,2018_Sep_19_0908,MP_PerceptionTuring2,59.9291575067642,
153,resources/videos_generated\model(dmp)-dataset(walking)-npsi(50)_final(5).mov,resources/videos_natural\training(42).mov,True,True,left,0,152,152,152,2018-09-19 09:25:38.886688,2018-09-19 09:25:42.773910,0:00:03.887222,4,left,1,0.5840240986569825,24,f,2,8,2018_Sep_19_0908,MP_PerceptionTuring2,59.9291575067642,
154,resources/videos_generated\model(vcgpdm)-dataset(walking)-mode(ELBO)-parts(2)-dyn(28)-lvm(23)_final(0).mov,resources/videos_natural\training(17).mov,True,True,left,0,153,153,153,2018-09-19 09:25:44.475007,2018-09-19 09:25:48.579242,0:00:04.104235,4,left,1,0.5674686200343331,24,f,2,8,2018_Sep_19_0908,MP_PerceptionTuring2,59.9291575067642,
155,resources/videos_generated\model(vcgpdm)-dataset(walking)-mode(ELBO)-parts(1)-dyn(23)-lvm(22)_final(8)_fail.mov,resources/videos_natural\training(35).mov,False,True,left,0,154,154,154,2018-09-19 09:25:50.263338,2018-09-19 09:25:54.183563,0:00:03.920225,4,left,1,0.7509588594700745,24,f,2,8,2018_Sep_19_0908,MP_PerceptionTuring2,59.9291575067642,
156,resources/videos_generated\model(vcgpdm)-dataset(walking)-mode(ELBO)-parts(2)-dyn(26)-lvm(21)_final(0).mov,resources/videos_natural\training(5).mov,False,True,left,0,155,155,155,2018-09-19 09:25:56.051669,2018-09-19 09:25:59.988895,0:00:03.937226,4,right,0,0.36726870141137624,24,f,2,8,2018_Sep_19_0908,MP_PerceptionTuring2,59.9291575067642,
157,resources/videos_generated\model(vcgpdm)-dataset(walking)-mode(ELBO)-parts(2)-dyn(25)-lvm(20)_final(6).mov,resources/videos_natural\training(39).mov,False,True,left,0,156,156,156,2018-09-19 09:26:01.472980,2018-09-19 09:26:05.410205,0:00:03.937225,4,left,1,0.5673722446813372,24,f,2,8,2018_Sep_19_0908,MP_PerceptionTuring2,59.9291575067642,
158,resources/videos_generated\model(vcgpdm)-dataset(walking)-mode(ELBO)-parts(1)-dyn(28)-lvm(27)_final(0).mov,resources/videos_natural\training(31).mov,False,True,left,0,157,157,157,2018-09-19 09:26:07.095301,2018-09-19 09:26:11.048527,0:00:03.953226,4,left,1,0.3504442753192052,24,f,2,8,2018_Sep_19_0908,MP_PerceptionTuring2,59.9291575067642,
159,resources/videos_generated\model(vcgpdm)-dataset(walking)-mode(ELBO)-parts(1)-dyn(24)-lvm(27)_final(3).mov,resources/videos_natural\training(30).mov,False,False,right,0,158,158,158,2018-09-19 09:26:12.516611,2018-09-19 09:26:16.436835,0:00:03.920224,4,right,1,0.30050889198173536,24,f,2,8,2018_Sep_19_0908,MP_PerceptionTuring2,59.9291575067642,
160,resources/videos_generated\model(vcgpdm)-dataset(walking)-mode(ELBO)-parts(1)-dyn(23)-lvm(22)_final(6)_fail.mov,resources/videos_natural\training(41).mov,True,True,left,0,159,159,159,2018-09-19 09:26:17.853917,2018-09-19 09:26:21.742139,0:00:03.888222,4,left,1,0.35050270287683816,24,f,2,8,2018_Sep_19_0908,MP_PerceptionTuring2,59.9291575067642,
161,resources/videos_generated\model(vcgpdm)-dataset(walking)-mode(ELBO)-parts(1)-dyn(23)-lvm(24)_final(0).mov,resources/videos_natural\training(6).mov,False,False,right,0,160,160,160,2018-09-19 09:26:23.209223,2018-09-19 09:26:27.129447,0:00:03.920224,4,right,1,0.5839659722721535,24,f,2,8,2018_Sep_19_0908,MP_PerceptionTuring2,59.9291575067642,
162,resources/videos_generated\model(vcgpdm)-dataset(walking)-mode(ELBO)-parts(1)-dyn(26)-lvm(25)_final(8).mov,resources/videos_natural\training(46).mov,True,True,left,0,161,161,161,2018-09-19 09:26:28.830544,2018-09-19 09:26:32.733768,0:00:03.903224,4,left,1,0.4672174718878068,24,f,2,8,2018_Sep_19_0908,MP_PerceptionTuring2,59.9291575067642,
163,resources/videos_generated\model(vcgpdm)-dataset(walking)-mode(ELBO)-parts(2)-dyn(27)-lvm(22)_final(8).mov,resources/videos_natural\training(20).mov,True,True,left,0,162,162,162,2018-09-19 09:26:34.318858,2018-09-19 09:26:38.205081,0:00:03.886223,4,left,1,0.6340570620393464,24,f,2,8,2018_Sep_19_0908,MP_PerceptionTuring2,59.9291575067642,
164,resources/videos_generated\model(vcgpdm)-dataset(walking)-mode(ELBO)-parts(2)-dyn(23)-lvm(20)_final(2).mov,resources/videos_natural\training(3).mov,False,False,right,0,163,163,163,2018-09-19 09:26:39.957181,2018-09-19 09:26:43.876405,0:00:03.919224,4,right,1,0.4841150830136485,24,f,2,8,2018_Sep_19_0908,MP_PerceptionTuring2,59.9291575067642,
165,resources/videos_generated\model(vcgpdm)-dataset(walking)-mode(ELBO)-parts(2)-dyn(28)-lvm(21)_final(4).mov,resources/videos_natural\training(33).mov,True,False,right,0,164,164,164,2018-09-19 09:26:45.478497,2018-09-19 09:26:49.398721,0:00:03.920224,4,right,1,0.4339243049907964,24,f,2,8,2018_Sep_19_0908,MP_PerceptionTuring2,59.9291575067642,
166,resources/videos_generated\model(vcgpdm)-dataset(walking)-mode(ELBO)-parts(2)-dyn(24)-lvm(17)_final(6).mov,resources/videos_natural\training(14).mov,False,False,right,0,165,165,165,2018-09-19 09:26:50.949809,2018-09-19 09:26:54.870034,0:00:03.920225,4,right,1,0.3518721364098383,24,f,2,8,2018_Sep_19_0908,MP_PerceptionTuring2,59.9291575067642,
167,resources/videos_generated\model(vcgpdm)-dataset(walking)-mode(ELBO)-parts(1)-dyn(22)-lvm(23)_final(7).mov,resources/videos_natural\training(27).mov,False,True,left,0,166,166,166,2018-09-19 09:26:56.337118,2018-09-19 09:27:00.257342,0:00:03.920224,4,right,0,0.2672476494201419,24,f,2,8,2018_Sep_19_0908,MP_PerceptionTuring2,59.9291575067642,
168,resources/videos_generated\model(vcgpdm)-dataset(walking)-mode(ELBO)-parts(1)-dyn(25)-lvm(22)_final(3).mov,resources/videos_natural\training(46).mov,False,False,right,0,167,167,167,2018-09-19 09:27:01.642421,2018-09-19 09:27:05.561645,0:00:03.919224,4,right,1,0.5007859108870889,24,f,2,8,2018_Sep_19_0908,MP_PerceptionTuring2,59.9291575067642,
169,resources/videos_generated\model(vcgpdm)-dataset(walking)-mode(ELBO)-parts(2)-dyn(23)-lvm(18)_final(4).mov,resources/videos_natural\training(39).mov,False,True,left,0,168,168,168,2018-09-19 09:27:07.179738,2018-09-19 09:27:11.183967,0:00:04.004229,4,left,1,0.4505508604361239,24,f,2,8,2018_Sep_19_0908,MP_PerceptionTuring2,59.9291575067642,
170,resources/videos_generated\model(vcgpdm)-dataset(walking)-mode(ELBO)-parts(2)-dyn(24)-lvm(23)_final(4).mov,resources/videos_natural\training(7).mov,True,True,left,0,169,169,169,2018-09-19 09:27:12.752057,2018-09-19 09:27:16.672281,0:00:03.920224,4,left,1,0.38387176536457446,24,f,2,8,2018_Sep_19_0908,MP_PerceptionTuring2,59.9291575067642,
171,resources/videos_generated\model(vcgpdm)-dataset(walking)-mode(ELBO)-parts(1)-dyn(25)-lvm(26)_final(9).mov,resources/videos_natural\training(19).mov,False,False,right,0,170,170,170,2018-09-19 09:27:18.173367,2018-09-19 09:27:22.093591,0:00:03.920224,4,right,1,0.23369517258879569,24,f,2,8,2018_Sep_19_0908,MP_PerceptionTuring2,59.9291575067642,
172,resources/videos_generated\model(vcgpdm)-dataset(walking)-mode(ELBO)-parts(2)-dyn(26)-lvm(23)_final(6).mov,resources/videos_natural\training(23).mov,False,True,left,0,171,171,171,2018-09-19 09:27:23.444668,2018-09-19 09:27:27.380893,0:00:03.936225,4,left,1,0.7009198726279919,24,f,2,8,2018_Sep_19_0908,MP_PerceptionTuring2,59.9291575067642,
173,resources/videos_generated\model(vcgpdm)-dataset(walking)-mode(ELBO)-parts(1)-dyn(28)-lvm(23)_final(4)_fail.mov,resources/videos_natural\training(48).mov,True,False,right,0,172,172,172,2018-09-19 09:27:29.198997,2018-09-19 09:27:33.119221,0:00:03.920224,4,right,1,0.30058478757223384,24,f,2,8,2018_Sep_19_0908,MP_PerceptionTuring2,59.9291575067642,
174,resources/videos_generated\model(dmp)-dataset(walking)-npsi(70)_final(1).mov,resources/videos_natural\training(2).mov,True,True,left,0,173,173,173,2018-09-19 09:27:34.537303,2018-09-19 09:27:38.440526,0:00:03.903223,4,left,1,0.3173167535601351,24,f,2,8,2018_Sep_19_0908,MP_PerceptionTuring2,59.9291575067642,
175,resources/videos_generated\model(vcgpdm)-dataset(walking)-mode(ELBO)-parts(2)-dyn(26)-lvm(17)_final(8).mov,resources/videos_natural\training(14).mov,True,False,right,0,174,174,174,2018-09-19 09:27:39.875608,2018-09-19 09:27:43.794832,0:00:03.919224,4,right,1,0.5173684950777897,24,f,2,8,2018_Sep_19_0908,MP_PerceptionTuring2,59.9291575067642,
176,resources/videos_generated\model(vcgpdm)-dataset(walking)-mode(ELBO)-parts(2)-dyn(24)-lvm(19)_final(2).mov,resources/videos_natural\training(38).mov,False,False,right,0,175,175,175,2018-09-19 09:27:45.429926,2018-09-19 09:27:49.333149,0:00:03.903223,4,left,0,0.2672205438520905,24,f,2,8,2018_Sep_19_0908,MP_PerceptionTuring2,59.9291575067642,
177,resources/videos_generated\model(dmp)-dataset(walking)-npsi(60)_final(5).mov,resources/videos_natural\training(33).mov,True,False,right,0,176,176,176,2018-09-19 09:27:50.718228,2018-09-19 09:27:54.637452,0:00:03.919224,4,right,1,0.450706566865847,24,f,2,8,2018_Sep_19_0908,MP_PerceptionTuring2,59.9291575067642,
178,resources/videos_generated\model(vcgpdm)-dataset(walking)-mode(ELBO)-parts(2)-dyn(28)-lvm(17)_final(6).mov,resources/videos_natural\training(30).mov,False,True,left,0,177,177,177,2018-09-19 09:27:56.205542,2018-09-19 09:28:00.109765,0:00:03.904223,4,left,1,0.36727502604389883,24,f,2,8,2018_Sep_19_0908,MP_PerceptionTuring2,59.9291575067642,
179,resources/videos_generated\model(vcgpdm)-dataset(walking)-mode(ELBO)-parts(1)-dyn(23)-lvm(28)_final(1).mov,resources/videos_natural\training(32).mov,True,False,right,0,178,178,178,2018-09-19 09:28:01.593850,2018-09-19 09:28:05.514074,0:00:03.920224,4,right,1,0.3172700717484531,24,f,2,8,2018_Sep_19_0908,MP_PerceptionTuring2,59.9291575067642,
180,resources/videos_generated\model(vcgpdm)-dataset(walking)-mode(ELBO)-parts(2)-dyn(24)-lvm(17)_final(2).mov,resources/videos_natural\training(37).mov,False,True,left,0,179,179,179,2018-09-19 09:28:06.948156,2018-09-19 09:28:11.035390,0:00:04.087234,4,right,0,2.8874088914092226,24,f,2,8,2018_Sep_19_0908,MP_PerceptionTuring2,59.9291575067642,
181,resources/videos_generated\model(tmp)-dataset(walking)-numprim(13)_final(9).mov,resources/videos_natural\training(31).mov,False,False,right,0,180,180,180,2018-09-19 09:28:46.766434,2018-09-19 09:28:50.702659,0:00:03.936225,5,right,1,0.7508989260472845,24,f,2,8,2018_Sep_19_0908,MP_PerceptionTuring2,59.9291575067642,
182,resources/videos_generated\model(vcgpdm)-dataset(walking)-mode(ELBO)-parts(1)-dyn(28)-lvm(24)_final(0).mov,resources/videos_natural\training(44).mov,True,False,right,0,181,181,181,2018-09-19 09:28:52.571766,2018-09-19 09:28:56.540993,0:00:03.969227,5,left,0,0.4173525630271797,24,f,2,8,2018_Sep_19_0908,MP_PerceptionTuring2,59.9291575067642,
183,resources/videos_generated\model(vcgpdm)-dataset(walking)-mode(ELBO)-parts(1)-dyn(22)-lvm(22)_final(9).mov,resources/videos_natural\training(26).mov,True,True,left,0,182,182,182,2018-09-19 09:28:58.076081,2018-09-19 09:29:01.996305,0:00:03.920224,5,left,1,0.3504575269300858,24,f,2,8,2018_Sep_19_0908,MP_PerceptionTuring2,59.9291575067642,
184,resources/videos_generated\model(vcgpdm)-dataset(walking)-mode(ELBO)-parts(1)-dyn(26)-lvm(23)_final(8).mov,resources/videos_natural\training(8).mov,False,False,right,0,183,183,183,2018-09-19 09:29:03.464389,2018-09-19 09:29:07.567624,0:00:04.103235,5,right,1,0.6508646224449421,24,f,2,8,2018_Sep_19_0908,MP_PerceptionTuring2,59.9291575067642,
185,resources/videos_generated\model(vcgpdm)-dataset(walking)-mode(ELBO)-parts(1)-dyn(26)-lvm(23)_final(6)_fail.mov,resources/videos_natural\training(33).mov,False,False,right,0,184,184,184,2018-09-19 09:29:09.335725,2018-09-19 09:29:13.305952,0:00:03.970227,5,right,1,0.6507766799352339,24,f,2,8,2018_Sep_19_0908,MP_PerceptionTuring2,59.9291575067642,
186,resources/videos_generated\model(vcgpdm)-dataset(walking)-mode(ELBO)-parts(1)-dyn(28)-lvm(23)_final(2).mov,resources/videos_natural\training(10).mov,False,True,left,0,185,185,185,2018-09-19 09:29:15.074053,2018-09-19 09:29:18.961275,0:00:03.887222,5,left,1,0.4172489595227944,24,f,2,8,2018_Sep_19_0908,MP_PerceptionTuring2,59.9291575067642,
187,resources/videos_generated\model(vcgpdm)-dataset(walking)-mode(ELBO)-parts(1)-dyn(22)-lvm(22)_final(5).mov,resources/videos_natural\training(9).mov,False,False,right,0,186,186,186,2018-09-19 09:29:20.495363,2018-09-19 09:29:24.432588,0:00:03.937225,5,right,1,0.500607616483876,24,f,2,8,2018_Sep_19_0908,MP_PerceptionTuring2,59.9291575067642,
188,resources/videos_generated\model(vcgpdm)-dataset(walking)-mode(ELBO)-parts(1)-dyn(22)-lvm(23)_final(9).mov,resources/videos_natural\training(23).mov,False,False,right,0,187,187,187,2018-09-19 09:29:26.050681,2018-09-19 09:29:29.953904,0:00:03.903223,5,right,1,0.5674059760549426,24,f,2,8,2018_Sep_19_0908,MP_PerceptionTuring2,59.9291575067642,
189,resources/videos_generated\model(vcgpdm)-dataset(walking)-mode(ELBO)-parts(2)-dyn(24)-lvm(17)_final(8).mov,resources/videos_natural\training(5).mov,False,True,left,0,188,188,188,2018-09-19 09:29:31.638000,2018-09-19 09:29:35.709233,0:00:04.071233,5,left,1,0.451756757041494,24,f,2,8,2018_Sep_19_0908,MP_PerceptionTuring2,59.9291575067642,
190,resources/videos_generated\model(vcgpdm)-dataset(walking)-mode(ELBO)-parts(2)-dyn(22)-lvm(21)_final(2).mov,resources/videos_natural\training(5).mov,True,False,right,0,189,189,189,2018-09-19 09:29:37.276323,2018-09-19 09:29:41.196547,0:00:03.920224,5,left,0,0.5673701364703447,24,f,2,8,2018_Sep_19_0908,MP_PerceptionTuring2,59.9291575067642,
191,resources/videos_generated\model(vcgpdm)-dataset(walking)-mode(ELBO)-parts(2)-dyn(28)-lvm(19)_final(0).mov,resources/videos_natural\training(27).mov,True,False,right,0,190,190,190,2018-09-19 09:29:42.881643,2018-09-19 09:29:46.817869,0:00:03.936226,5,left,0,0.4672867416727513,24,f,2,8,2018_Sep_19_0908,MP_PerceptionTuring2,59.9291575067642,
192,resources/videos_generated\model(dmp)-dataset(walking)-npsi(60)_final(1).mov,resources/videos_natural\training(44).mov,False,True,left,0,191,191,191,2018-09-19 09:29:48.402959,2018-09-19 09:29:52.423189,0:00:04.020230,5,right,0,0.3505328201745215,24,f,2,8,2018_Sep_19_0908,MP_PerceptionTuring2,59.9291575067642,
193,resources/videos_generated\model(vcgpdm)-dataset(walking)-mode(ELBO)-parts(2)-dyn(26)-lvm(23)_final(0).mov,resources/videos_natural\training(12).mov,True,True,left,0,192,192,192,2018-09-19 09:29:53.891273,2018-09-19 09:29:57.844499,0:00:03.953226,5,right,0,0.6007928077483484,24,f,2,8,2018_Sep_19_0908,MP_PerceptionTuring2,59.9291575067642,
194,resources/videos_generated\model(tmp)-dataset(walking)-numprim(12)_final(1).mov,resources/videos_natural\training(5).mov,False,True,left,0,193,193,193,2018-09-19 09:29:59.562598,2018-09-19 09:30:03.499823,0:00:03.937225,5,right,0,0.7341808140163266,24,f,2,8,2018_Sep_19_0908,MP_PerceptionTuring2,59.9291575067642,
195,resources/videos_generated\model(tmp)-dataset(walking)-numprim(15)_final(5).mov,resources/videos_natural\training(39).mov,False,True,left,0,194,194,194,2018-09-19 09:30:05.350929,2018-09-19 09:30:09.304155,0:00:03.953226,5,left,1,0.36722593484842037,24,f,2,8,2018_Sep_19_0908,MP_PerceptionTuring2,59.9291575067642,
196,resources/videos_generated\model(vcgpdm)-dataset(walking)-mode(ELBO)-parts(1)-dyn(24)-lvm(25)_final(9).mov,resources/videos_natural\training(28).mov,False,True,left,0,195,195,195,2018-09-19 09:30:10.789240,2018-09-19 09:30:14.676462,0:00:03.887222,5,left,1,0.6842011582509713,24,f,2,8,2018_Sep_19_0908,MP_PerceptionTuring2,59.9291575067642,
197,resources/videos_generated\model(dmp)-dataset(walking)-npsi(90)_final(9).mov,resources/videos_natural\training(3).mov,True,False,right,0,196,196,196,2018-09-19 09:30:16.477565,2018-09-19 09:30:20.397789,0:00:03.920224,5,left,0,0.5339408393872418,24,f,2,8,2018_Sep_19_0908,MP_PerceptionTuring2,59.9291575067642,
198,resources/videos_generated\model(vcgpdm)-dataset(walking)-mode(ELBO)-parts(2)-dyn(22)-lvm(17)_final(4).mov,resources/videos_natural\training(14).mov,True,True,left,0,197,197,197,2018-09-19 09:30:22.048884,2018-09-19 09:30:25.969108,0:00:03.920224,5,left,1,0.38377147476285245,24,f,2,8,2018_Sep_19_0908,MP_PerceptionTuring2,59.9291575067642,
199,resources/videos_generated\model(vcgpdm)-dataset(walking)-mode(ELBO)-parts(1)-dyn(28)-lvm(27)_final(2).mov,resources/videos_natural\training(36).mov,True,True,left,0,198,198,198,2018-09-19 09:30:27.470194,2018-09-19 09:30:31.423420,0:00:03.953226,5,left,1,0.36716208617690427,24,f,2,8,2018_Sep_19_0908,MP_PerceptionTuring2,59.9291575067642,
200,resources/videos_generated\model(vcgpdm)-dataset(walking)-mode(ELBO)-parts(2)-dyn(25)-lvm(22)_final(0).mov,resources/videos_natural\training(21).mov,False,False,right,0,199,199,199,2018-09-19 09:30:32.908505,2018-09-19 09:30:36.811728,0:00:03.903223,5,right,1,0.46718795693595894,24,f,2,8,2018_Sep_19_0908,MP_PerceptionTuring2,59.9291575067642,
201,resources/videos_generated\model(tmp)-dataset(walking)-numprim(15)_final(9).mov,resources/videos_natural\training(8).mov,False,True,left,0,200,200,200,2018-09-19 09:30:38.395819,2018-09-19 09:30:42.333044,0:00:03.937225,5,right,0,0.5173919865701464,24,f,2,8,2018_Sep_19_0908,MP_PerceptionTuring2,59.9291575067642,
202,resources/videos_generated\model(vcgpdm)-dataset(walking)-mode(ELBO)-parts(1)-dyn(22)-lvm(22)_final(1).mov,resources/videos_natural\training(29).mov,False,False,right,0,201,201,201,2018-09-19 09:30:43.967137,2018-09-19 09:30:47.921363,0:00:03.954226,5,right,1,0.5839174834227379,24,f,2,8,2018_Sep_19_0908,MP_PerceptionTuring2,59.9291575067642,
203,resources/videos_generated\model(vcgpdm)-dataset(walking)-mode(ELBO)-parts(1)-dyn(23)-lvm(24)_final(8).mov,resources/videos_natural\training(45).mov,True,False,right,0,202,202,202,2018-09-19 09:30:49.622461,2018-09-19 09:30:53.542685,0:00:03.920224,5,right,1,0.4838783610528026,24,f,2,8,2018_Sep_19_0908,MP_PerceptionTuring2,59.9291575067642,
204,resources/videos_generated\model(vcgpdm)-dataset(walking)-mode(ELBO)-parts(2)-dyn(28)-lvm(23)_final(6).mov,resources/videos_natural\training(30).mov,False,True,left,0,203,203,203,2018-09-19 09:30:55.143777,2018-09-19 09:30:59.181007,0:00:04.037230,5,right,0,0.8008677395855557,24,f,2,8,2018_Sep_19_0908,MP_PerceptionTuring2,59.9291575067642,
205,resources/videos_generated\model(vcgpdm)-dataset(walking)-mode(ELBO)-parts(2)-dyn(23)-lvm(20)_final(6).mov,resources/videos_natural\training(2).mov,False,False,right,0,204,204,204,2018-09-19 09:31:01.099117,2018-09-19 09:31:05.069344,0:00:03.970227,5,right,1,0.8680497935308722,24,f,2,8,2018_Sep_19_0908,MP_PerceptionTuring2,59.9291575067642,
206,resources/videos_generated\model(vcgpdm)-dataset(walking)-mode(ELBO)-parts(2)-dyn(25)-lvm(20)_final(2).mov,resources/videos_natural\training(22).mov,False,False,right,0,205,205,205,2018-09-19 09:31:07.054458,2018-09-19 09:31:10.957681,0:00:03.903223,5,right,1,0.5674758481859499,24,f,2,8,2018_Sep_19_0908,MP_PerceptionTuring2,59.9291575067642,
207,resources/videos_generated\model(vcgpdm)-dataset(walking)-mode(ELBO)-parts(1)-dyn(25)-lvm(23)_final(2).mov,resources/videos_natural\training(48).mov,False,False,right,0,206,206,206,2018-09-19 09:31:12.642777,2018-09-19 09:31:16.563002,0:00:03.920225,5,right,1,0.5340700425947489,24,f,2,8,2018_Sep_19_0908,MP_PerceptionTuring2,59.9291575067642,
208,resources/videos_generated\model(tmp)-dataset(walking)-numprim(11)_final(9).mov,resources/videos_natural\training(40).mov,True,False,right,0,207,207,207,2018-09-19 09:31:18.214096,2018-09-19 09:31:22.184323,0:00:03.970227,5,left,0,0.3673283336611348,24,f,2,8,2018_Sep_19_0908,MP_PerceptionTuring2,59.9291575067642,
209,resources/videos_generated\model(vcgpdm)-dataset(walking)-mode(ELBO)-parts(1)-dyn(24)-lvm(25)_final(1).mov,resources/videos_natural\training(38).mov,False,False,right,0,208,208,208,2018-09-19 09:31:23.668408,2018-09-19 09:31:27.705639,0:00:04.037231,5,right,1,0.3172224864179043,24,f,2,8,2018_Sep_19_0908,MP_PerceptionTuring2,59.9291575067642,
210,resources/videos_generated\model(vcgpdm)-dataset(walking)-mode(ELBO)-parts(1)-dyn(26)-lvm(27)_final(0).mov,resources/videos_natural\training(8).mov,False,False,right,0,209,209,209,2018-09-19 09:31:29.140721,2018-09-19 09:31:33.226955,0:00:04.086234,5,right,1,0.4840464155747668,24,f,2,8,2018_Sep_19_0908,MP_PerceptionTuring2,59.9291575067642,
211,resources/videos_generated\model(dmp)-dataset(walking)-npsi(50)_final(1).mov,resources/videos_natural\training(1).mov,False,True,left,0,210,210,210,2018-09-19 09:31:34.828046,2018-09-19 09:31:38.798273,0:00:03.970227,5,right,0,0.4173603935248593,24,f,2,8,2018_Sep_19_0908,MP_PerceptionTuring2,59.9291575067642,
212,resources/videos_generated\model(vcgpdm)-dataset(walking)-mode(ELBO)-parts(2)-dyn(23)-lvm(22)_final(8).mov,resources/videos_natural\training(8).mov,False,True,left,0,211,211,211,2018-09-19 09:31:40.333361,2018-09-19 09:31:44.269586,0:00:03.936225,5,left,1,0.38389585920299396,24,f,2,8,2018_Sep_19_0908,MP_PerceptionTuring2,59.9291575067642,
213,resources/videos_generated\model(vcgpdm)-dataset(walking)-mode(ELBO)-parts(2)-dyn(22)-lvm(23)_final(0).mov,resources/videos_natural\training(40).mov,False,False,right,0,212,212,212,2018-09-19 09:31:45.770672,2018-09-19 09:31:49.707897,0:00:03.937225,5,right,1,0.45058941057754964,24,f,2,8,2018_Sep_19_0908,MP_PerceptionTuring2,59.9291575067642,
214,resources/videos_generated\model(vcgpdm)-dataset(walking)-mode(ELBO)-parts(2)-dyn(26)-lvm(21)_final(4).mov,resources/videos_natural\training(6).mov,False,True,left,0,213,213,213,2018-09-19 09:31:51.275987,2018-09-19 09:31:55.363221,0:00:04.087234,5,left,1,0.3505472764777551,24,f,2,8,2018_Sep_19_0908,MP_PerceptionTuring2,59.9291575067642,
215,resources/videos_generated\model(vcgpdm)-dataset(walking)-mode(ELBO)-parts(2)-dyn(27)-lvm(22)_final(2).mov,resources/videos_natural\training(14).mov,False,False,right,0,214,214,214,2018-09-19 09:31:56.830305,2018-09-19 09:32:00.734528,0:00:03.904223,5,right,1,0.36719310699390917,24,f,2,8,2018_Sep_19_0908,MP_PerceptionTuring2,59.9291575067642,
216,resources/videos_generated\model(vcgpdm)-dataset(walking)-mode(ELBO)-parts(2)-dyn(25)-lvm(20)_final(0).mov,resources/videos_natural\training(38).mov,False,False,right,0,215,215,215,2018-09-19 09:32:02.218613,2018-09-19 09:32:06.255844,0:00:04.037231,5,left,0,0.5174781220418936,24,f,2,8,2018_Sep_19_0908,MP_PerceptionTuring2,59.9291575067642,
217,resources/videos_generated\model(tmp)-dataset(walking)-numprim(13)_final(3).mov,resources/videos_natural\training(17).mov,False,False,right,0,216,216,216,2018-09-19 09:32:07.889937,2018-09-19 09:32:11.810162,0:00:03.920225,5,right,1,0.5341778625213465,24,f,2,8,2018_Sep_19_0908,MP_PerceptionTuring2,59.9291575067642,
218,resources/videos_generated\model(vcgpdm)-dataset(walking)-mode(ELBO)-parts(2)-dyn(23)-lvm(22)_final(6).mov,resources/videos_natural\training(4).mov,True,True,left,0,217,217,217,2018-09-19 09:32:13.461256,2018-09-19 09:32:17.548490,0:00:04.087234,5,left,1,0.2503277514938418,24,f,2,8,2018_Sep_19_0908,MP_PerceptionTuring2,59.9291575067642,
219,resources/videos_generated\model(vcgpdm)-dataset(walking)-mode(ELBO)-parts(2)-dyn(24)-lvm(17)_final(4).mov,resources/videos_natural\training(29).mov,False,True,left,0,218,218,218,2018-09-19 09:32:18.916568,2018-09-19 09:32:22.986801,0:00:04.070233,5,left,1,0.3170809351179287,24,f,2,8,2018_Sep_19_0908,MP_PerceptionTuring2,59.9291575067642,
220,resources/videos_generated\model(vcgpdm)-dataset(walking)-mode(ELBO)-parts(1)-dyn(27)-lvm(26)_final(2).mov,resources/videos_natural\training(20).mov,True,False,right,0,219,219,219,2018-09-19 09:32:24.420883,2018-09-19 09:32:28.508117,0:00:04.087234,5,right,1,0.6008193109705644,24,f,2,8,2018_Sep_19_0908,MP_PerceptionTuring2,59.9291575067642,
221,resources/videos_generated\model(vcgpdm)-dataset(walking)-mode(ELBO)-parts(1)-dyn(26)-lvm(27)_final(4).mov,resources/videos_natural\training(30).mov,True,True,left,0,220,220,220,2018-09-19 09:32:30.226215,2018-09-19 09:32:34.179441,0:00:03.953226,5,left,1,0.5174350543059063,24,f,2,8,2018_Sep_19_0908,MP_PerceptionTuring2,59.9291575067642,
222,resources/videos_generated\model(vcgpdm)-dataset(walking)-mode(ELBO)-parts(1)-dyn(23)-lvm(27)_final(7).mov,resources/videos_natural\training(10).mov,True,True,left,0,221,221,221,2018-09-19 09:32:35.814535,2018-09-19 09:32:39.734759,0:00:03.920224,5,right,0,0.3837853287195685,24,f,2,8,2018_Sep_19_0908,MP_PerceptionTuring2,59.9291575067642,
223,resources/videos_generated\model(tmp)-dataset(walking)-numprim(12)_final(5).mov,resources/videos_natural\training(45).mov,True,False,right,0,222,222,222,2018-09-19 09:32:41.235845,2018-09-19 09:32:45.156069,0:00:03.920224,5,left,0,0.4672237965203294,24,f,2,8,2018_Sep_19_0908,MP_PerceptionTuring2,59.9291575067642,
224,resources/videos_generated\model(vcgpdm)-dataset(walking)-mode(ELBO)-parts(2)-dyn(28)-lvm(21)_final(2).mov,resources/videos_natural\training(34).mov,True,False,right,0,223,223,223,2018-09-19 09:32:46.740160,2018-09-19 09:32:50.660384,0:00:03.920224,5,right,1,0.4840970126351749,24,f,2,8,2018_Sep_19_0908,MP_PerceptionTuring2,59.9291575067642,
225,resources/videos_generated\model(tmp)-dataset(walking)-numprim(13)_final(5).mov,resources/videos_natural\training(19).mov,False,True,left,0,224,224,224,2018-09-19 09:32:52.261475,2018-09-19 09:32:56.365710,0:00:04.104235,5,right,0,0.3839365175549574,24,f,2,8,2018_Sep_19_0908,MP_PerceptionTuring2,59.9291575067642,
226,resources/videos_generated\model(vcgpdm)-dataset(walking)-mode(ELBO)-parts(1)-dyn(25)-lvm(28)_final(5).mov,resources/videos_natural\training(3).mov,True,False,right,0,225,225,225,2018-09-19 09:33:29.794622,2018-09-19 09:33:33.714846,0:00:03.920224,6,left,0,0.6507634283243533,24,f,2,8,2018_Sep_19_0908,MP_PerceptionTuring2,59.9291575067642,
227,resources/videos_generated\model(vcgpdm)-dataset(walking)-mode(ELBO)-parts(2)-dyn(22)-lvm(19)_final(0).mov,resources/videos_natural\training(24).mov,False,False,right,0,226,226,226,2018-09-19 09:33:35.482947,2018-09-19 09:33:39.553180,0:00:04.070233,6,right,1,0.38393169878736444,24,f,2,8,2018_Sep_19_0908,MP_PerceptionTuring2,59.9291575067642,
228,resources/videos_generated\model(dmp)-dataset(walking)-npsi(80)_final(9).mov,resources/videos_natural\training(15).mov,False,False,right,0,227,227,227,2018-09-19 09:33:41.054266,2018-09-19 09:33:44.957489,0:00:03.903223,6,right,1,0.3505638409915264,24,f,2,8,2018_Sep_19_0908,MP_PerceptionTuring2,59.9291575067642,
229,resources/videos_generated\model(vcgpdm)-dataset(walking)-mode(ELBO)-parts(2)-dyn(23)-lvm(18)_final(0).mov,resources/videos_natural\training(22).mov,False,False,right,0,228,228,228,2018-09-19 09:33:46.425573,2018-09-19 09:33:50.328797,0:00:03.903224,6,left,0,0.45062043139432717,24,f,2,8,2018_Sep_19_0908,MP_PerceptionTuring2,59.9291575067642,
230,resources/videos_generated\model(vcgpdm)-dataset(walking)-mode(ELBO)-parts(1)-dyn(28)-lvm(27)_final(4).mov,resources/videos_natural\training(4).mov,False,False,right,0,229,229,229,2018-09-19 09:33:51.896886,2018-09-19 09:33:55.800110,0:00:03.903224,6,left,0,0.41718360498634866,24,f,2,8,2018_Sep_19_0908,MP_PerceptionTuring2,59.9291575067642,
231,resources/videos_generated\model(vcgpdm)-dataset(walking)-mode(ELBO)-parts(2)-dyn(28)-lvm(17)_final(2).mov,resources/videos_natural\training(34).mov,False,True,left,0,230,230,230,2018-09-19 09:33:57.335197,2018-09-19 09:34:01.271422,0:00:03.936225,6,left,1,0.3172495919861831,24,f,2,8,2018_Sep_19_0908,MP_PerceptionTuring2,59.9291575067642,
232,resources/videos_generated\model(vcgpdm)-dataset(walking)-mode(ELBO)-parts(1)-dyn(27)-lvm(22)_final(8).mov,resources/videos_natural\training(31).mov,False,False,right,0,231,231,231,2018-09-19 09:34:02.706505,2018-09-19 09:34:06.609728,0:00:03.903223,6,right,1,0.7508929025875659,24,f,2,8,2018_Sep_19_0908,MP_PerceptionTuring2,59.9291575067642,
233,resources/videos_generated\model(vcgpdm)-dataset(walking)-mode(ELBO)-parts(1)-dyn(22)-lvm(27)_final(9)_hip-corrected.mov,resources/videos_natural\training(21).mov,True,False,right,0,232,232,232,2018-09-19 09:34:08.477835,2018-09-19 09:34:12.415060,0:00:03.937225,6,right,1,0.4007067325110256,24,f,2,8,2018_Sep_19_0908,MP_PerceptionTuring2,59.9291575067642,
234,resources/videos_generated\model(tmp)-dataset(walking)-numprim(13)_final(7).mov,resources/videos_natural\training(23).mov,False,True,left,0,233,233,233,2018-09-19 09:34:13.932147,2018-09-19 09:34:17.852371,0:00:03.920224,6,right,0,0.5506746124128767,24,f,2,8,2018_Sep_19_0908,MP_PerceptionTuring2,59.9291575067642,
235,resources/videos_generated\model(vcgpdm)-dataset(walking)-mode(ELBO)-parts(1)-dyn(26)-lvm(23)_final(2).mov,resources/videos_natural\training(42).mov,False,True,left,0,234,234,234,2018-09-19 09:34:19.520466,2018-09-19 09:34:23.423690,0:00:03.903224,6,left,1,0.6007840737320294,24,f,2,8,2018_Sep_19_0908,MP_PerceptionTuring2,59.9291575067642,
236,resources/videos_generated\model(vcgpdm)-dataset(walking)-mode(ELBO)-parts(2)-dyn(24)-lvm(21)_final(6).mov,resources/videos_natural\training(27).mov,True,True,left,0,235,235,235,2018-09-19 09:34:25.141788,2018-09-19 09:34:29.079013,0:00:03.937225,6,left,1,0.38383231170473664,24,f,2,8,2018_Sep_19_0908,MP_PerceptionTuring2,59.9291575067642,
237,resources/videos_generated\model(vcgpdm)-dataset(walking)-mode(ELBO)-parts(1)-dyn(25)-lvm(22)_final(7).mov,resources/videos_natural\training(29).mov,True,True,left,0,236,236,236,2018-09-19 09:34:30.580099,2018-09-19 09:34:34.500323,0:00:03.920224,6,left,1,0.35060028292218703,24,f,2,8,2018_Sep_19_0908,MP_PerceptionTuring2,59.9291575067642,
238,resources/videos_generated\model(vcgpdm)-dataset(walking)-mode(ELBO)-parts(2)-dyn(22)-lvm(21)_final(8).mov,resources/videos_natural\training(46).mov,False,True,left,0,237,237,237,2018-09-19 09:34:35.968407,2018-09-19 09:34:40.054641,0:00:04.086234,6,left,1,0.30043389990987635,24,f,2,8,2018_Sep_19_0908,MP_PerceptionTuring2,59.9291575067642,
239,resources/videos_generated\model(vcgpdm)-dataset(walking)-mode(ELBO)-parts(2)-dyn(24)-lvm(23)_final(0).mov,resources/videos_natural\training(6).mov,True,True,left,0,238,238,238,2018-09-19 09:34:41.472722,2018-09-19 09:34:45.375945,0:00:03.903223,6,left,1,0.5838954977953108,24,f,2,8,2018_Sep_19_0908,MP_PerceptionTuring2,59.9291575067642,
240,resources/videos_generated\model(tmp)-dataset(walking)-numprim(14)_final(9).mov,resources/videos_natural\training(27).mov,True,False,right,0,239,239,239,2018-09-19 09:34:47.078042,2018-09-19 09:34:50.981266,0:00:03.903224,6,left,0,0.30043058700721303,24,f,2,8,2018_Sep_19_0908,MP_PerceptionTuring2,59.9291575067642,
241,resources/videos_generated\model(vcgpdm)-dataset(walking)-mode(ELBO)-parts(1)-dyn(25)-lvm(26)_final(5).mov,resources/videos_natural\training(19).mov,True,False,right,0,240,240,240,2018-09-19 09:34:52.399347,2018-09-19 09:34:56.419577,0:00:04.020230,6,right,1,0.5173434977205034,24,f,2,8,2018_Sep_19_0908,MP_PerceptionTuring2,59.9291575067642,
242,resources/videos_generated\model(vcgpdm)-dataset(walking)-mode(ELBO)-parts(2)-dyn(25)-lvm(18)_final(4).mov,resources/videos_natural\training(12).mov,False,False,right,0,241,241,241,2018-09-19 09:34:58.053670,2018-09-19 09:35:02.107902,0:00:04.054232,6,right,1,0.41716312522385124,24,f,2,8,2018_Sep_19_0908,MP_PerceptionTuring2,59.9291575067642,
243,resources/videos_generated\model(vcgpdm)-dataset(walking)-mode(ELBO)-parts(1)-dyn(25)-lvm(26)_final(7).mov,resources/videos_natural\training(45).mov,True,True,left,0,242,242,242,2018-09-19 09:35:03.641990,2018-09-19 09:35:07.596216,0:00:03.954226,6,left,1,0.6508375168768907,24,f,2,8,2018_Sep_19_0908,MP_PerceptionTuring2,59.9291575067642,
244,resources/videos_generated\model(dmp)-dataset(walking)-npsi(80)_final(1).mov,resources/videos_natural\training(15).mov,False,True,left,0,243,243,243,2018-09-19 09:35:09.363317,2018-09-19 09:35:13.250539,0:00:03.887222,6,left,1,1.8684813744089297,24,f,2,8,2018_Sep_19_0908,MP_PerceptionTuring2,59.9291575067642,
245,resources/videos_generated\model(vcgpdm)-dataset(walking)-mode(ELBO)-parts(2)-dyn(22)-lvm(19)_final(4).mov,resources/videos_natural\training(13).mov,False,True,left,0,244,244,244,2018-09-19 09:35:16.236710,2018-09-19 09:35:20.139933,0:00:03.903223,6,left,1,0.6174247843077865,24,f,2,8,2018_Sep_19_0908,MP_PerceptionTuring2,59.9291575067642,
246,resources/videos_generated\model(dmp)-dataset(walking)-npsi(90)_final(7).mov,resources/videos_natural\training(11).mov,False,False,right,0,245,245,245,2018-09-19 09:35:21.874033,2018-09-19 09:35:25.794257,0:00:03.920224,6,left,0,0.567284302171629,24,f,2,8,2018_Sep_19_0908,MP_PerceptionTuring2,59.9291575067642,
247,resources/videos_generated\model(vcgpdm)-dataset(walking)-mode(ELBO)-parts(1)-dyn(23)-lvm(22)_final(2).mov,resources/videos_natural\training(28).mov,False,False,right,0,246,246,246,2018-09-19 09:35:27.479353,2018-09-19 09:35:31.466581,0:00:03.987228,6,left,0,0.3504647550817026,24,f,2,8,2018_Sep_19_0908,MP_PerceptionTuring2,59.9291575067642,
248,resources/videos_generated\model(vcgpdm)-dataset(walking)-mode(ELBO)-parts(1)-dyn(27)-lvm(26)_final(4).mov,resources/videos_natural\training(25).mov,True,True,left,0,247,247,247,2018-09-19 09:35:32.933665,2018-09-19 09:35:37.020899,0:00:04.087234,6,left,1,0.5174329460951412,24,f,2,8,2018_Sep_19_0908,MP_PerceptionTuring2,59.9291575067642,
249,resources/videos_generated\model(tmp)-dataset(walking)-numprim(11)_final(7).mov,resources/videos_natural\training(35).mov,True,True,left,0,248,248,248,2018-09-19 09:35:38.655993,2018-09-19 09:35:42.692223,0:00:04.036230,6,left,1,0.5840858391175061,24,f,2,8,2018_Sep_19_0908,MP_PerceptionTuring2,59.9291575067642,
250,resources/videos_generated\model(vcgpdm)-dataset(walking)-mode(ELBO)-parts(2)-dyn(25)-lvm(18)_final(2).mov,resources/videos_natural\training(31).mov,False,False,right,0,249,249,249,2018-09-19 09:35:44.394321,2018-09-19 09:35:48.314545,0:00:03.920224,6,right,1,0.5504806570147593,24,f,2,8,2018_Sep_19_0908,MP_PerceptionTuring2,59.9291575067642,
251,resources/videos_generated\model(vcgpdm)-dataset(walking)-mode(ELBO)-parts(2)-dyn(27)-lvm(18)_final(6).mov,resources/videos_natural\training(12).mov,False,True,left,0,250,250,250,2018-09-19 09:35:49.982640,2018-09-19 09:35:54.018871,0:00:04.036231,6,left,1,0.5005467795422192,24,f,2,8,2018_Sep_19_0908,MP_PerceptionTuring2,59.9291575067642,
252,resources/videos_generated\model(vcgpdm)-dataset(walking)-mode(ELBO)-parts(2)-dyn(22)-lvm(19)_final(2).mov,resources/videos_natural\training(32).mov,True,True,left,0,251,251,251,2018-09-19 09:35:55.636964,2018-09-19 09:35:59.540187,0:00:03.903223,6,left,1,0.267244938863314,24,f,2,8,2018_Sep_19_0908,MP_PerceptionTuring2,59.9291575067642,
253,resources/videos_generated\model(dmp)-dataset(walking)-npsi(100)_final(9).mov,resources/videos_natural\training(4).mov,False,True,left,0,252,252,252,2018-09-19 09:36:00.925266,2018-09-19 09:36:04.845491,0:00:03.920225,6,right,0,0.38385128560184967,24,f,2,8,2018_Sep_19_0908,MP_PerceptionTuring2,59.9291575067642,
254,resources/videos_generated\model(vcgpdm)-dataset(walking)-mode(ELBO)-parts(1)-dyn(28)-lvm(23)_final(6)_fail.mov,resources/videos_natural\training(13).mov,False,True,left,0,253,253,253,2018-09-19 09:36:06.346576,2018-09-19 09:36:10.249800,0:00:03.903224,6,left,1,0.2670232755513098,24,f,2,8,2018_Sep_19_0908,MP_PerceptionTuring2,59.9291575067642,
255,resources/videos_generated\model(vcgpdm)-dataset(walking)-mode(ELBO)-parts(2)-dyn(24)-lvm(17)_final(0).mov,resources/videos_natural\training(33).mov,False,True,left,0,254,254,254,2018-09-19 09:36:11.633879,2018-09-19 09:36:15.554103,0:00:03.920224,6,left,1,0.300496845062753,24,f,2,8,2018_Sep_19_0908,MP_PerceptionTuring2,59.9291575067642,
256,resources/videos_generated\model(vcgpdm)-dataset(walking)-mode(ELBO)-parts(1)-dyn(23)-lvm(24)_final(2).mov,resources/videos_natural\training(39).mov,True,True,left,0,255,255,255,2018-09-19 09:36:16.972184,2018-09-19 09:36:20.892408,0:00:03.920224,6,left,1,0.4835326144739156,24,f,2,8,2018_Sep_19_0908,MP_PerceptionTuring2,59.9291575067642,
257,resources/videos_generated\model(vcgpdm)-dataset(walking)-mode(ELBO)-parts(1)-dyn(24)-lvm(23)_final(1).mov,resources/videos_natural\training(37).mov,True,True,left,0,256,256,256,2018-09-19 09:36:22.493500,2018-09-19 09:36:26.430725,0:00:03.937225,6,left,1,0.8509016064867865,24,f,2,8,2018_Sep_19_0908,MP_PerceptionTuring2,59.9291575067642,
258,resources/videos_generated\model(vcgpdm)-dataset(walking)-mode(ELBO)-parts(1)-dyn(25)-lvm(25)_final(0).mov,resources/videos_natural\training(27).mov,False,True,left,0,257,257,257,2018-09-19 09:36:28.398838,2018-09-19 09:36:32.302061,0:00:03.903223,6,left,1,0.5841921531791741,24,f,2,8,2018_Sep_19_0908,MP_PerceptionTuring2,59.9291575067642,
259,resources/videos_generated\model(vcgpdm)-dataset(walking)-mode(ELBO)-parts(2)-dyn(27)-lvm(22)_final(6).mov,resources/videos_natural\training(25).mov,True,False,right,0,258,258,258,2018-09-19 09:36:34.003158,2018-09-19 09:36:38.107393,0:00:04.104235,6,right,1,0.4506297677562543,24,f,2,8,2018_Sep_19_0908,MP_PerceptionTuring2,59.9291575067642,
260,resources/videos_generated\model(tmp)-dataset(walking)-numprim(11)_final(1).mov,resources/videos_natural\training(12).mov,False,False,right,0,259,259,259,2018-09-19 09:36:39.675483,2018-09-19 09:36:43.595707,0:00:03.920224,6,right,1,0.5507378587385574,24,f,2,8,2018_Sep_19_0908,MP_PerceptionTuring2,59.9291575067642,
261,resources/videos_generated\model(dmp)-dataset(walking)-npsi(100)_final(7).mov,resources/videos_natural\training(17).mov,False,False,right,0,260,260,260,2018-09-19 09:36:45.262802,2018-09-19 09:36:49.217028,0:00:03.954226,6,right,1,0.834155184195879,24,f,2,8,2018_Sep_19_0908,MP_PerceptionTuring2,59.9291575067642,
262,resources/videos_generated\model(vcgpdm)-dataset(walking)-mode(ELBO)-parts(1)-dyn(27)-lvm(28)_final(2).mov,resources/videos_natural\training(38).mov,False,False,right,0,261,261,261,2018-09-19 09:36:51.168140,2018-09-19 09:36:55.105365,0:00:03.937225,6,right,1,0.4163794731339294,24,f,2,8,2018_Sep_19_0908,MP_PerceptionTuring2,59.9291575067642,
263,resources/videos_generated\model(vcgpdm)-dataset(walking)-mode(ELBO)-parts(2)-dyn(23)-lvm(22)_final(0).mov,resources/videos_natural\training(37).mov,True,True,left,0,262,262,262,2018-09-19 09:36:56.639453,2018-09-19 09:37:00.676684,0:00:04.037231,6,left,1,0.30034143980583394,24,f,2,8,2018_Sep_19_0908,MP_PerceptionTuring2,59.9291575067642,
264,resources/videos_generated\model(vcgpdm)-dataset(walking)-mode(ELBO)-parts(2)-dyn(28)-lvm(23)_final(2).mov,resources/videos_natural\training(0).mov,True,True,left,0,263,263,263,2018-09-19 09:37:02.094765,2018-09-19 09:37:06.047991,0:00:03.953226,6,left,1,0.26717295852176903,24,f,2,8,2018_Sep_19_0908,MP_PerceptionTuring2,59.9291575067642,
265,resources/videos_generated\model(vcgpdm)-dataset(walking)-mode(ELBO)-parts(1)-dyn(26)-lvm(27)_final(8).mov,resources/videos_natural\training(17).mov,False,False,right,0,264,264,264,2018-09-19 09:37:07.432070,2018-09-19 09:37:11.386296,0:00:03.954226,6,right,1,0.3682694992185134,24,f,2,8,2018_Sep_19_0908,MP_PerceptionTuring2,59.9291575067642,
266,resources/videos_generated\model(vcgpdm)-dataset(walking)-mode(ELBO)-parts(1)-dyn(25)-lvm(24)_final(0).mov,resources/videos_natural\training(37).mov,False,False,right,0,265,265,265,2018-09-19 09:37:12.870381,2018-09-19 09:37:16.790606,0:00:03.920225,6,right,1,0.31737759050156455,24,f,2,8,2018_Sep_19_0908,MP_PerceptionTuring2,59.9291575067642,
267,resources/videos_generated\model(tmp)-dataset(walking)-numprim(14)_final(1).mov,resources/videos_natural\training(15).mov,True,True,left,0,266,266,266,2018-09-19 09:37:18.224688,2018-09-19 09:37:22.128911,0:00:03.904223,6,right,0,0.4006245122877772,24,f,2,8,2018_Sep_19_0908,MP_PerceptionTuring2,59.9291575067642,
268,resources/videos_generated\model(vcgpdm)-dataset(walking)-mode(ELBO)-parts(1)-dyn(27)-lvm(24)_final(8).mov,resources/videos_natural\training(36).mov,True,False,right,0,267,267,267,2018-09-19 09:37:23.645998,2018-09-19 09:37:27.583223,0:00:03.937225,6,right,1,0.4504906258403025,24,f,2,8,2018_Sep_19_0908,MP_PerceptionTuring2,59.9291575067642,
269,resources/videos_generated\model(dmp)-dataset(walking)-npsi(50)_final(7).mov,resources/videos_natural\training(18).mov,True,False,right,0,268,268,268,2018-09-19 09:37:29.151313,2018-09-19 09:37:33.071537,0:00:03.920224,6,right,1,0.31883647240920254,24,f,2,8,2018_Sep_19_0908,MP_PerceptionTuring2,59.9291575067642,
270,resources/videos_generated\model(vcgpdm)-dataset(walking)-mode(ELBO)-parts(1)-dyn(24)-lvm(25)_final(7).mov,resources/videos_natural\training(1).mov,True,True,left,0,269,269,269,2018-09-19 09:37:34.505619,2018-09-19 09:37:38.425843,0:00:03.920224,6,left,1,0.3506213650302925,24,f,2,8,2018_Sep_19_0908,MP_PerceptionTuring2,59.9291575067642,
271,resources/videos_generated\model(vcgpdm)-dataset(walking)-mode(ELBO)-parts(1)-dyn(22)-lvm(28)_final(2).mov,resources/videos_natural\training(15).mov,True,False,right,0,270,270,270,2018-09-19 09:38:11.554738,2018-09-19 09:38:15.640972,0:00:04.086234,7,left,0,0.9677482892620901,24,f,2,8,2018_Sep_19_0908,MP_PerceptionTuring2,59.9291575067642,
272,resources/videos_generated\model(dmp)-dataset(walking)-npsi(50)_final(3).mov,resources/videos_natural\training(4).mov,True,False,right,0,271,271,271,2018-09-19 09:38:17.727091,2018-09-19 09:38:21.813325,0:00:04.086234,7,right,1,0.40066758002376446,24,f,2,8,2018_Sep_19_0908,MP_PerceptionTuring2,59.9291575067642,
273,resources/videos_generated\model(dmp)-dataset(walking)-npsi(90)_final(5).mov,resources/videos_natural\training(44).mov,False,True,left,0,272,272,272,2018-09-19 09:38:23.331411,2018-09-19 09:38:27.268637,0:00:03.937226,7,right,0,0.317059250663533,24,f,2,8,2018_Sep_19_0908,MP_PerceptionTuring2,59.9291575067642,
274,resources/videos_generated\model(vcgpdm)-dataset(walking)-mode(ELBO)-parts(2)-dyn(24)-lvm(23)_final(6).mov,resources/videos_natural\training(12).mov,True,True,left,0,273,273,273,2018-09-19 09:38:28.702719,2018-09-19 09:38:32.655945,0:00:03.953226,7,left,1,0.36725544980026825,24,f,2,8,2018_Sep_19_0908,MP_PerceptionTuring2,59.9291575067642,
275,resources/videos_generated\model(vcgpdm)-dataset(walking)-mode(ELBO)-parts(2)-dyn(28)-lvm(19)_final(6).mov,resources/videos_natural\training(26).mov,False,False,right,0,274,274,274,2018-09-19 09:38:34.141030,2018-09-19 09:38:38.127258,0:00:03.986228,7,right,1,0.3837898463143574,24,f,2,8,2018_Sep_19_0908,MP_PerceptionTuring2,59.9291575067642,
276,resources/videos_generated\model(vcgpdm)-dataset(walking)-mode(ELBO)-parts(2)-dyn(23)-lvm(20)_final(4).mov,resources/videos_natural\training(6).mov,True,True,left,0,275,275,275,2018-09-19 09:38:39.628344,2018-09-19 09:38:43.515566,0:00:03.887222,7,left,1,0.500681102690578,24,f,2,8,2018_Sep_19_0908,MP_PerceptionTuring2,59.9291575067642,
277,resources/videos_generated\model(dmp)-dataset(walking)-npsi(70)_final(3).mov,resources/videos_natural\training(31).mov,True,False,right,0,276,276,276,2018-09-19 09:38:45.133658,2018-09-19 09:38:49.070884,0:00:03.937226,7,right,1,0.4006389685910108,24,f,2,8,2018_Sep_19_0908,MP_PerceptionTuring2,59.9291575067642,
278,resources/videos_generated\model(vcgpdm)-dataset(walking)-mode(ELBO)-parts(2)-dyn(22)-lvm(17)_final(6).mov,resources/videos_natural\training(9).mov,True,False,right,0,277,277,277,2018-09-19 09:38:50.587970,2018-09-19 09:38:54.625201,0:00:04.037231,7,right,1,0.3172772998996152,24,f,2,8,2018_Sep_19_0908,MP_PerceptionTuring2,59.9291575067642,
279,resources/videos_generated\model(vcgpdm)-dataset(walking)-mode(ELBO)-parts(1)-dyn(25)-lvm(24)_final(2).mov,resources/videos_natural\training(25).mov,False,True,left,0,278,278,278,2018-09-19 09:38:56.059283,2018-09-19 09:39:00.146517,0:00:04.087234,7,left,1,0.46729487334323494,24,f,2,8,2018_Sep_19_0908,MP_PerceptionTuring2,59.9291575067642,
280,resources/videos_generated\model(tmp)-dataset(walking)-numprim(12)_final(3).mov,resources/videos_natural\training(0).mov,False,True,left,0,279,279,279,2018-09-19 09:39:01.731608,2018-09-19 09:39:05.684834,0:00:03.953226,7,left,1,0.43405712227422555,24,f,2,8,2018_Sep_19_0908,MP_PerceptionTuring2,59.9291575067642,
281,resources/videos_generated\model(vcgpdm)-dataset(walking)-mode(ELBO)-parts(1)-dyn(28)-lvm(27)_final(8).mov,resources/videos_natural\training(24).mov,True,True,left,0,280,280,280,2018-09-19 09:39:07.235923,2018-09-19 09:39:11.123145,0:00:03.887222,7,right,0,0.5172679033030363,24,f,2,8,2018_Sep_19_0908,MP_PerceptionTuring2,59.9291575067642,
282,resources/videos_generated\model(vcgpdm)-dataset(walking)-mode(ELBO)-parts(2)-dyn(25)-lvm(20)_final(8).mov,resources/videos_natural\training(28).mov,False,True,left,0,281,281,281,2018-09-19 09:39:12.757238,2018-09-19 09:39:16.677463,0:00:03.920225,7,left,1,0.3507767702876663,24,f,2,8,2018_Sep_19_0908,MP_PerceptionTuring2,59.9291575067642,
283,resources/videos_generated\model(vcgpdm)-dataset(walking)-mode(ELBO)-parts(2)-dyn(27)-lvm(18)_final(0).mov,resources/videos_natural\training(41).mov,True,True,left,0,282,282,282,2018-09-19 09:39:18.145547,2018-09-19 09:39:22.082772,0:00:03.937225,7,left,1,0.30038480871462525,24,f,2,8,2018_Sep_19_0908,MP_PerceptionTuring2,59.9291575067642,
284,resources/videos_generated\model(tmp)-dataset(walking)-numprim(11)_final(3).mov,resources/videos_natural\training(11).mov,True,False,right,0,283,283,283,2018-09-19 09:39:23.499853,2018-09-19 09:39:27.453079,0:00:03.953226,7,right,1,0.350525290850328,24,f,2,8,2018_Sep_19_0908,MP_PerceptionTuring2,59.9291575067642,
285,resources/videos_generated\model(tmp)-dataset(walking)-numprim(13)_final(1).mov,resources/videos_natural\training(30).mov,True,False,right,0,284,284,284,2018-09-19 09:39:28.921163,2018-09-19 09:39:32.858388,0:00:03.937225,7,right,1,0.500702787145201,24,f,2,8,2018_Sep_19_0908,MP_PerceptionTuring2,59.9291575067642,
286,resources/videos_generated\model(vcgpdm)-dataset(walking)-mode(ELBO)-parts(2)-dyn(26)-lvm(19)_final(2).mov,resources/videos_natural\training(47).mov,False,False,right,0,285,285,285,2018-09-19 09:39:34.476481,2018-09-19 09:39:38.512712,0:00:04.036231,7,right,1,0.3505355307315767,24,f,2,8,2018_Sep_19_0908,MP_PerceptionTuring2,59.9291575067642,
287,resources/videos_generated\model(vcgpdm)-dataset(walking)-mode(ELBO)-parts(2)-dyn(23)-lvm(22)_final(4).mov,resources/videos_natural\training(34).mov,False,True,left,0,286,286,286,2018-09-19 09:39:39.980796,2018-09-19 09:39:44.051028,0:00:04.070232,7,left,1,0.41733660085901647,24,f,2,8,2018_Sep_19_0908,MP_PerceptionTuring2,59.9291575067642,
288,resources/videos_generated\model(vcgpdm)-dataset(walking)-mode(ELBO)-parts(2)-dyn(24)-lvm(23)_final(2).mov,resources/videos_natural\training(14).mov,False,False,right,0,287,287,287,2018-09-19 09:39:45.586116,2018-09-19 09:39:49.506340,0:00:03.920224,7,right,1,0.5009491466416875,24,f,2,8,2018_Sep_19_0908,MP_PerceptionTuring2,59.9291575067642,
289,resources/videos_generated\model(vcgpdm)-dataset(walking)-mode(ELBO)-parts(1)-dyn(22)-lvm(25)_final(7).mov,resources/videos_natural\training(35).mov,False,False,right,0,288,288,288,2018-09-19 09:39:51.123433,2018-09-19 09:39:55.043657,0:00:03.920224,7,right,1,0.3172652529806328,24,f,2,8,2018_Sep_19_0908,MP_PerceptionTuring2,59.9291575067642,
290,resources/videos_generated\model(dmp)-dataset(walking)-npsi(90)_final(3).mov,resources/videos_natural\training(6).mov,False,True,left,0,289,289,289,2018-09-19 09:39:56.478739,2018-09-19 09:40:00.398963,0:00:03.920224,7,left,1,0.3171956820228843,24,f,2,8,2018_Sep_19_0908,MP_PerceptionTuring2,59.9291575067642,
291,resources/videos_generated\model(vcgpdm)-dataset(walking)-mode(ELBO)-parts(1)-dyn(28)-lvm(23)_final(8).mov,resources/videos_natural\training(28).mov,False,False,right,0,290,290,290,2018-09-19 09:40:01.833045,2018-09-19 09:40:05.753270,0:00:03.920225,7,right,1,0.38394254101467595,24,f,2,8,2018_Sep_19_0908,MP_PerceptionTuring2,59.9291575067642,
292,resources/videos_generated\model(vcgpdm)-dataset(walking)-mode(ELBO)-parts(1)-dyn(25)-lvm(22)_final(5).mov,resources/videos_natural\training(16).mov,True,True,left,0,291,291,291,2018-09-19 09:40:07.254356,2018-09-19 09:40:11.324588,0:00:04.070232,7,left,1,0.433952615250746,24,f,2,8,2018_Sep_19_0908,MP_PerceptionTuring2,59.9291575067642,
293,resources/videos_generated\model(vcgpdm)-dataset(walking)-mode(ELBO)-parts(1)-dyn(26)-lvm(25)_final(0).mov,resources/videos_natural\training(44).mov,False,True,left,0,292,292,292,2018-09-19 09:40:12.875677,2018-09-19 09:40:16.779900,0:00:03.904223,7,left,1,0.5843427396680454,24,f,2,8,2018_Sep_19_0908,MP_PerceptionTuring2,59.9291575067642,
