n_trial,mov_file_generated,mov_file_natural,mirrored,switch_stim_pos,correct_answer,trials.thisRepN,trials.thisTrialN,trials.thisN,trials.thisIndex,stimulus_onset,stimulus_off,stimulus_length,block,response.keys,response.corr,response.rt,age,gender,condition,participant,date,expName,frameRate,
1,resources/videos_generated\model(vcgpdm)-dataset(walking)-mode(ELBO)-parts(2)-dyn(22)-lvm(17)_final(9).mov,resources/videos_natural\training(7).mov,False,True,left,0,0,0,0,2018-09-19 10:08:14.627868,2018-09-19 10:08:18.865110,0:00:04.237242,1,left,1,2.769261141366769,25,m,1,9,2018_Sep_19_1007,MP_PerceptionTuring2,59.965848364039125,
2,resources/videos_generated\model(vcgpdm)-dataset(walking)-mode(ELBO)-parts(1)-dyn(27)-lvm(22)_final(9).mov,resources/videos_natural\training(39).mov,True,False,right,0,1,1,1,2018-09-19 10:08:22.751332,2018-09-19 10:08:26.688558,0:00:03.937226,1,right,1,1.2177869146971716,25,m,1,9,2018_Sep_19_1007,MP_PerceptionTuring2,59.965848364039125,
3,resources/videos_generated\model(dmp)-dataset(walking)-npsi(60)_final(4).mov,resources/videos_natural\training(16).mov,True,False,right,0,2,2,2,2018-09-19 10:08:29.023691,2018-09-19 10:08:32.960916,0:00:03.937225,1,right,1,2.20215182069569,25,m,1,9,2018_Sep_19_1007,MP_PerceptionTuring2,59.965848364039125,
4,resources/videos_generated\model(vcgpdm)-dataset(walking)-mode(ELBO)-parts(1)-dyn(26)-lvm(25)_final(9).mov,resources/videos_natural\training(35).mov,True,False,right,0,3,3,3,2018-09-19 10:08:36.280106,2018-09-19 10:08:40.217331,0:00:03.937225,1,right,1,0.8510615293380397,25,m,1,9,2018_Sep_19_1007,MP_PerceptionTuring2,59.965848364039125,
5,resources/videos_generated\model(vcgpdm)-dataset(walking)-mode(ELBO)-parts(1)-dyn(28)-lvm(25)_final(5).mov,resources/videos_natural\training(48).mov,True,True,left,0,4,4,4,2018-09-19 10:08:42.185444,2018-09-19 10:08:46.288679,0:00:04.103235,1,left,1,1.468076718395423,25,m,1,9,2018_Sep_19_1007,MP_PerceptionTuring2,59.965848364039125,
6,resources/videos_generated\model(vcgpdm)-dataset(walking)-mode(ELBO)-parts(1)-dyn(28)-lvm(25)_final(9).mov,resources/videos_natural\training(9).mov,True,False,right,0,5,5,5,2018-09-19 10:08:48.873827,2018-09-19 10:08:52.911057,0:00:04.037230,1,left,0,1.2011362654120603,25,m,1,9,2018_Sep_19_1007,MP_PerceptionTuring2,59.965848364039125,
7,resources/videos_generated\model(vcgpdm)-dataset(walking)-mode(ELBO)-parts(1)-dyn(22)-lvm(23)_final(0).mov,resources/videos_natural\training(39).mov,True,True,left,0,6,6,6,2018-09-19 10:08:55.230190,2018-09-19 10:08:59.166415,0:00:03.936225,1,right,0,2.4356557484434234,25,m,1,9,2018_Sep_19_1007,MP_PerceptionTuring2,59.965848364039125,
8,resources/videos_generated\model(vcgpdm)-dataset(walking)-mode(ELBO)-parts(2)-dyn(26)-lvm(21)_final(9).mov,resources/videos_natural\training(26).mov,False,False,right,0,7,7,7,2018-09-19 10:09:02.719618,2018-09-19 10:09:06.689846,0:00:03.970228,1,right,1,3.1696802536835094,25,m,1,9,2018_Sep_19_1007,MP_PerceptionTuring2,59.965848364039125,
9,resources/videos_generated\model(tmp)-dataset(walking)-numprim(15)_final(6).mov,resources/videos_natural\training(9).mov,True,True,left,0,8,8,8,2018-09-19 10:09:10.977091,2018-09-19 10:09:14.963319,0:00:03.986228,1,right,0,0.4338884654061985,25,m,1,9,2018_Sep_19_1007,MP_PerceptionTuring2,59.965848364039125,
10,resources/videos_generated\model(vcgpdm)-dataset(walking)-mode(ELBO)-parts(1)-dyn(22)-lvm(23)_final(8).mov,resources/videos_natural\training(40).mov,True,True,left,0,9,9,9,2018-09-19 10:09:16.514407,2018-09-19 10:09:20.551638,0:00:04.037231,1,right,0,0.7509136835233221,25,m,1,9,2018_Sep_19_1007,MP_PerceptionTuring2,59.965848364039125,
11,resources/videos_generated\model(vcgpdm)-dataset(walking)-mode(ELBO)-parts(1)-dyn(22)-lvm(28)_final(0).mov,resources/videos_natural\training(19).mov,False,False,right,0,10,10,10,2018-09-19 10:09:22.419745,2018-09-19 10:09:26.339969,0:00:03.920224,1,right,1,0.8175584448754307,25,m,1,9,2018_Sep_19_1007,MP_PerceptionTuring2,59.965848364039125,
12,resources/videos_generated\model(vcgpdm)-dataset(walking)-mode(ELBO)-parts(1)-dyn(22)-lvm(25)_final(6).mov,resources/videos_natural\training(31).mov,False,False,right,0,11,11,11,2018-09-19 10:09:28.275080,2018-09-19 10:09:32.178303,0:00:03.903223,1,right,1,0.20036496141528914,25,m,1,9,2018_Sep_19_1007,MP_PerceptionTuring2,59.965848364039125,
13,resources/videos_generated\model(tmp)-dataset(walking)-numprim(14)_final(8).mov,resources/videos_natural\training(25).mov,False,False,right,0,12,12,12,2018-09-19 10:09:33.497379,2018-09-19 10:09:37.549611,0:00:04.052232,1,right,1,1.117851998176775,25,m,1,9,2018_Sep_19_1007,MP_PerceptionTuring2,59.965848364039125,
14,resources/videos_generated\model(dmp)-dataset(walking)-npsi(100)_final(4).mov,resources/videos_natural\training(4).mov,False,False,right,0,13,13,13,2018-09-19 10:09:39.784738,2018-09-19 10:09:43.671961,0:00:03.887223,1,right,1,3.0361723805708607,25,m,1,9,2018_Sep_19_1007,MP_PerceptionTuring2,59.965848364039125,
15,resources/videos_generated\model(vcgpdm)-dataset(walking)-mode(ELBO)-parts(1)-dyn(22)-lvm(22)_final(4).mov,resources/videos_natural\training(32).mov,True,True,left,0,14,14,14,2018-09-19 10:09:47.825198,2018-09-19 10:09:51.762424,0:00:03.937226,1,left,1,0.5508396552049817,25,m,1,9,2018_Sep_19_1007,MP_PerceptionTuring2,59.965848364039125,
16,resources/videos_generated\model(dmp)-dataset(walking)-npsi(80)_final(8).mov,resources/videos_natural\training(48).mov,False,True,left,0,15,15,15,2018-09-19 10:09:53.430519,2018-09-19 10:09:57.433748,0:00:04.003229,1,right,0,1.7183469458495892,25,m,1,9,2018_Sep_19_1007,MP_PerceptionTuring2,59.965848364039125,
17,resources/videos_generated\model(vcgpdm)-dataset(walking)-mode(ELBO)-parts(2)-dyn(25)-lvm(22)_final(9).mov,resources/videos_natural\training(27).mov,True,False,right,0,16,16,16,2018-09-19 10:10:00.268910,2018-09-19 10:10:04.373145,0:00:04.104235,1,right,1,0.6674746133767258,25,m,1,9,2018_Sep_19_1007,MP_PerceptionTuring2,59.965848364039125,
18,resources/videos_generated\model(vcgpdm)-dataset(walking)-mode(ELBO)-parts(1)-dyn(28)-lvm(23)_final(9).mov,resources/videos_natural\training(1).mov,False,True,left,0,17,17,17,2018-09-19 10:10:06.158247,2018-09-19 10:10:10.078471,0:00:03.920224,1,left,1,0.4172131199375144,25,m,1,9,2018_Sep_19_1007,MP_PerceptionTuring2,59.965848364039125,
19,resources/videos_generated\model(vcgpdm)-dataset(walking)-mode(ELBO)-parts(1)-dyn(27)-lvm(28)_final(3).mov,resources/videos_natural\training(14).mov,False,True,left,0,18,18,18,2018-09-19 10:10:11.612559,2018-09-19 10:10:15.665791,0:00:04.053232,1,left,1,0.7008752990268476,25,m,1,9,2018_Sep_19_1007,MP_PerceptionTuring2,59.965848364039125,
20,resources/videos_generated\model(vcgpdm)-dataset(walking)-mode(ELBO)-parts(1)-dyn(25)-lvm(23)_final(0).mov,resources/videos_natural\training(3).mov,False,True,left,0,19,19,19,2018-09-19 10:10:17.483895,2018-09-19 10:10:21.388118,0:00:03.904223,1,left,1,0.4005612659620965,25,m,1,9,2018_Sep_19_1007,MP_PerceptionTuring2,59.965848364039125,
21,resources/videos_generated\model(vcgpdm)-dataset(walking)-mode(ELBO)-parts(1)-dyn(23)-lvm(28)_final(0).mov,resources/videos_natural\training(41).mov,False,True,left,0,20,20,20,2018-09-19 10:10:22.905205,2018-09-19 10:10:26.809428,0:00:03.904223,1,left,1,0.5005449725040307,25,m,1,9,2018_Sep_19_1007,MP_PerceptionTuring2,59.965848364039125,
22,resources/videos_generated\model(tmp)-dataset(walking)-numprim(13)_final(4).mov,resources/videos_natural\training(10).mov,False,True,left,0,21,21,21,2018-09-19 10:10:28.426521,2018-09-19 10:10:32.513754,0:00:04.087233,1,right,0,0.46729939093802386,25,m,1,9,2018_Sep_19_1007,MP_PerceptionTuring2,59.965848364039125,
23,resources/videos_generated\model(vcgpdm)-dataset(walking)-mode(ELBO)-parts(1)-dyn(22)-lvm(25)_final(0).mov,resources/videos_natural\training(21).mov,True,True,left,0,22,22,22,2018-09-19 10:10:34.098845,2018-09-19 10:10:38.035070,0:00:03.936225,1,left,1,0.584148483097124,25,m,1,9,2018_Sep_19_1007,MP_PerceptionTuring2,59.965848364039125,
24,resources/videos_generated\model(vcgpdm)-dataset(walking)-mode(ELBO)-parts(1)-dyn(23)-lvm(26)_final(3)_hip-corrected.mov,resources/videos_natural\training(17).mov,False,False,right,0,23,23,23,2018-09-19 10:10:39.737168,2018-09-19 10:10:43.640391,0:00:03.903223,1,right,1,0.5673388144814453,25,m,1,9,2018_Sep_19_1007,MP_PerceptionTuring2,59.965848364039125,
25,resources/videos_generated\model(vcgpdm)-dataset(walking)-mode(ELBO)-parts(1)-dyn(27)-lvm(22)_final(3).mov,resources/videos_natural\training(40).mov,True,False,right,0,24,24,24,2018-09-19 10:10:45.325487,2018-09-19 10:10:49.244711,0:00:03.919224,1,right,1,0.5677185936065143,25,m,1,9,2018_Sep_19_1007,MP_PerceptionTuring2,59.965848364039125,
26,resources/videos_generated\model(vcgpdm)-dataset(walking)-mode(ELBO)-parts(1)-dyn(26)-lvm(23)_final(5).mov,resources/videos_natural\training(9).mov,True,False,right,0,25,25,25,2018-09-19 10:10:50.929808,2018-09-19 10:10:54.867033,0:00:03.937225,1,right,1,0.5177672481004265,25,m,1,9,2018_Sep_19_1007,MP_PerceptionTuring2,59.965848364039125,
27,resources/videos_generated\model(vcgpdm)-dataset(walking)-mode(ELBO)-parts(2)-dyn(23)-lvm(22)_final(7).mov,resources/videos_natural\training(18).mov,True,False,right,0,26,26,26,2018-09-19 10:10:56.501126,2018-09-19 10:11:00.404350,0:00:03.903224,1,right,1,0.5007335067894019,25,m,1,9,2018_Sep_19_1007,MP_PerceptionTuring2,59.965848364039125,
28,resources/videos_generated\model(vcgpdm)-dataset(walking)-mode(ELBO)-parts(1)-dyn(23)-lvm(24)_final(5).mov,resources/videos_natural\training(9).mov,False,True,left,0,27,27,27,2018-09-19 10:11:02.022442,2018-09-19 10:11:06.009670,0:00:03.987228,1,left,1,0.48416688476572745,25,m,1,9,2018_Sep_19_1007,MP_PerceptionTuring2,59.965848364039125,
29,resources/videos_generated\model(vcgpdm)-dataset(walking)-mode(ELBO)-parts(1)-dyn(23)-lvm(26)_final(7).mov,resources/videos_natural\training(23).mov,True,False,right,0,28,28,28,2018-09-19 10:11:07.610762,2018-09-19 10:11:11.613991,0:00:04.003229,1,right,1,0.4171712568941075,25,m,1,9,2018_Sep_19_1007,MP_PerceptionTuring2,59.965848364039125,
30,resources/videos_generated\model(vcgpdm)-dataset(walking)-mode(ELBO)-parts(2)-dyn(24)-lvm(23)_final(5).mov,resources/videos_natural\training(9).mov,True,True,left,0,29,29,29,2018-09-19 10:11:13.149079,2018-09-19 10:11:17.069303,0:00:03.920224,1,right,0,0.46732468946811423,25,m,1,9,2018_Sep_19_1007,MP_PerceptionTuring2,59.965848364039125,
31,resources/videos_generated\model(vcgpdm)-dataset(walking)-mode(ELBO)-parts(2)-dyn(28)-lvm(21)_final(7).mov,resources/videos_natural\training(38).mov,False,False,right,0,30,30,30,2018-09-19 10:11:18.653393,2018-09-19 10:11:22.557617,0:00:03.904224,1,left,0,0.5173636763101968,25,m,1,9,2018_Sep_19_1007,MP_PerceptionTuring2,59.965848364039125,
32,resources/videos_generated\model(vcgpdm)-dataset(walking)-mode(ELBO)-parts(2)-dyn(24)-lvm(19)_final(7).mov,resources/videos_natural\training(20).mov,False,True,left,0,31,31,31,2018-09-19 10:11:24.191710,2018-09-19 10:11:28.111934,0:00:03.920224,1,left,1,0.3838792946889953,25,m,1,9,2018_Sep_19_1007,MP_PerceptionTuring2,59.965848364039125,
33,resources/videos_generated\model(dmp)-dataset(walking)-npsi(70)_final(4).mov,resources/videos_natural\training(44).mov,True,True,left,0,32,32,32,2018-09-19 10:11:29.613020,2018-09-19 10:11:33.667252,0:00:04.054232,1,right,0,0.4172844979339061,25,m,1,9,2018_Sep_19_1007,MP_PerceptionTuring2,59.965848364039125,
34,resources/videos_generated\model(vcgpdm)-dataset(walking)-mode(ELBO)-parts(1)-dyn(27)-lvm(22)_final(1).mov,resources/videos_natural\training(41).mov,True,True,left,0,33,33,33,2018-09-19 10:11:35.201340,2018-09-19 10:11:39.121564,0:00:03.920224,1,right,0,0.41732154221062956,25,m,1,9,2018_Sep_19_1007,MP_PerceptionTuring2,59.965848364039125,
35,resources/videos_generated\model(vcgpdm)-dataset(walking)-mode(ELBO)-parts(1)-dyn(27)-lvm(28)_final(7).mov,resources/videos_natural\training(22).mov,True,False,right,0,34,34,34,2018-09-19 10:11:40.655652,2018-09-19 10:11:44.575876,0:00:03.920224,1,left,0,0.46737739473974216,25,m,1,9,2018_Sep_19_1007,MP_PerceptionTuring2,59.965848364039125,
36,resources/videos_generated\model(tmp)-dataset(walking)-numprim(11)_final(6).mov,resources/videos_natural\training(8).mov,True,False,right,0,35,35,35,2018-09-19 10:11:46.160967,2018-09-19 10:11:50.214199,0:00:04.053232,1,left,0,0.7175554632631247,25,m,1,9,2018_Sep_19_1007,MP_PerceptionTuring2,59.965848364039125,
37,resources/videos_generated\model(vcgpdm)-dataset(walking)-mode(ELBO)-parts(1)-dyn(26)-lvm(23)_final(9).mov,resources/videos_natural\training(46).mov,False,True,left,0,36,36,36,2018-09-19 10:11:52.049304,2018-09-19 10:11:56.052533,0:00:04.003229,1,right,0,0.40062240407678473,25,m,1,9,2018_Sep_19_1007,MP_PerceptionTuring2,59.965848364039125,
38,resources/videos_generated\model(tmp)-dataset(walking)-numprim(11)_final(2).mov,resources/videos_natural\training(35).mov,True,False,right,0,37,37,37,2018-09-19 10:11:57.570619,2018-09-19 10:12:01.540846,0:00:03.970227,1,right,1,0.4340718797502632,25,m,1,9,2018_Sep_19_1007,MP_PerceptionTuring2,59.965848364039125,
39,resources/videos_generated\model(vcgpdm)-dataset(walking)-mode(ELBO)-parts(1)-dyn(28)-lvm(23)_final(7).mov,resources/videos_natural\training(1).mov,False,False,right,0,38,38,38,2018-09-19 10:12:03.091935,2018-09-19 10:12:07.046161,0:00:03.954226,1,left,0,0.6841288767363949,25,m,1,9,2018_Sep_19_1007,MP_PerceptionTuring2,59.965848364039125,
40,resources/videos_generated\model(vcgpdm)-dataset(walking)-mode(ELBO)-parts(2)-dyn(27)-lvm(20)_final(1).mov,resources/videos_natural\training(45).mov,True,False,right,0,39,39,39,2018-09-19 10:12:08.847264,2018-09-19 10:12:12.734487,0:00:03.887223,1,left,0,0.4507719214016106,25,m,1,9,2018_Sep_19_1007,MP_PerceptionTuring2,59.965848364039125,
41,resources/videos_generated\model(vcgpdm)-dataset(walking)-mode(ELBO)-parts(2)-dyn(27)-lvm(18)_final(3).mov,resources/videos_natural\training(21).mov,True,False,right,0,40,40,40,2018-09-19 10:12:14.301576,2018-09-19 10:12:18.188799,0:00:03.887223,1,left,0,1.0345309878384796,25,m,1,9,2018_Sep_19_1007,MP_PerceptionTuring2,59.965848364039125,
42,resources/videos_generated\model(vcgpdm)-dataset(walking)-mode(ELBO)-parts(2)-dyn(23)-lvm(20)_final(3).mov,resources/videos_natural\training(4).mov,True,False,right,0,41,41,41,2018-09-19 10:12:20.340922,2018-09-19 10:12:24.244145,0:00:03.903223,1,right,1,2.5857477116123846,25,m,1,9,2018_Sep_19_1007,MP_PerceptionTuring2,59.965848364039125,
43,resources/videos_generated\model(vcgpdm)-dataset(walking)-mode(ELBO)-parts(1)-dyn(24)-lvm(23)_final(0).mov,resources/videos_natural\training(14).mov,True,True,left,0,42,42,42,2018-09-19 10:12:27.947357,2018-09-19 10:12:31.983588,0:00:04.036231,1,right,0,0.61752959250407,25,m,1,9,2018_Sep_19_1007,MP_PerceptionTuring2,59.965848364039125,
44,resources/videos_generated\model(vcgpdm)-dataset(walking)-mode(ELBO)-parts(2)-dyn(28)-lvm(19)_final(7).mov,resources/videos_natural\training(31).mov,True,True,left,0,43,43,43,2018-09-19 10:12:33.718687,2018-09-19 10:12:37.655912,0:00:03.937225,1,right,0,0.3503280225495473,25,m,1,9,2018_Sep_19_1007,MP_PerceptionTuring2,59.965848364039125,
45,resources/videos_generated\model(tmp)-dataset(walking)-numprim(11)_final(0).mov,resources/videos_natural\training(33).mov,True,False,right,0,44,44,44,2018-09-19 10:12:39.122996,2018-09-19 10:12:43.027219,0:00:03.904223,1,right,1,2.8693812792680546,25,m,1,9,2018_Sep_19_1007,MP_PerceptionTuring2,59.965848364039125,
46,resources/videos_generated\model(vcgpdm)-dataset(walking)-mode(ELBO)-parts(1)-dyn(25)-lvm(28)_final(8).mov,resources/videos_natural\training(32).mov,False,False,right,0,45,45,45,2018-09-19 10:13:23.178516,2018-09-19 10:13:27.114741,0:00:03.936225,2,right,1,0.43412729557803686,25,m,1,9,2018_Sep_19_1007,MP_PerceptionTuring2,59.965848364039125,
47,resources/videos_generated\model(vcgpdm)-dataset(walking)-mode(ELBO)-parts(2)-dyn(26)-lvm(23)_final(7).mov,resources/videos_natural\training(3).mov,True,False,right,0,46,46,46,2018-09-19 10:13:28.665830,2018-09-19 10:13:32.736062,0:00:04.070232,2,right,1,0.30044895855917275,25,m,1,9,2018_Sep_19_1007,MP_PerceptionTuring2,59.965848364039125,
48,resources/videos_generated\model(dmp)-dataset(walking)-npsi(80)_final(6).mov,resources/videos_natural\training(32).mov,True,False,right,0,47,47,47,2018-09-19 10:13:34.154144,2018-09-19 10:13:38.124371,0:00:03.970227,2,right,1,0.3505948618085313,25,m,1,9,2018_Sep_19_1007,MP_PerceptionTuring2,59.965848364039125,
49,resources/videos_generated\model(dmp)-dataset(walking)-npsi(50)_final(4).mov,resources/videos_natural\training(43).mov,False,False,right,0,48,48,48,2018-09-19 10:13:39.592455,2018-09-19 10:13:43.679688,0:00:04.087233,2,left,0,0.4840051548762858,25,m,1,9,2018_Sep_19_1007,MP_PerceptionTuring2,59.965848364039125,
50,resources/videos_generated\model(dmp)-dataset(walking)-npsi(70)_final(2).mov,resources/videos_natural\training(21).mov,True,False,right,0,49,49,49,2018-09-19 10:13:45.280780,2018-09-19 10:13:49.184003,0:00:03.903223,2,right,1,0.3842214271926423,25,m,1,9,2018_Sep_19_1007,MP_PerceptionTuring2,59.965848364039125,
51,resources/videos_generated\model(vcgpdm)-dataset(walking)-mode(ELBO)-parts(2)-dyn(28)-lvm(21)_final(5).mov,resources/videos_natural\training(7).mov,False,True,left,0,50,50,50,2018-09-19 10:13:50.685089,2018-09-19 10:13:54.622314,0:00:03.937225,2,right,0,0.3839841028857336,25,m,1,9,2018_Sep_19_1007,MP_PerceptionTuring2,59.965848364039125,
52,resources/videos_generated\model(vcgpdm)-dataset(walking)-mode(ELBO)-parts(2)-dyn(26)-lvm(17)_final(3).mov,resources/videos_natural\training(22).mov,True,False,right,0,51,51,51,2018-09-19 10:13:56.123400,2018-09-19 10:14:00.076626,0:00:03.953226,2,left,0,1.5014650559542133,25,m,1,9,2018_Sep_19_1007,MP_PerceptionTuring2,59.965848364039125,
53,resources/videos_generated\model(vcgpdm)-dataset(walking)-mode(ELBO)-parts(1)-dyn(22)-lvm(27)_final(0)_hip-correted.mov,resources/videos_natural\training(47).mov,True,False,right,0,52,52,52,2018-09-19 10:14:02.695776,2018-09-19 10:14:06.649002,0:00:03.953226,2,right,1,0.41727245101446897,25,m,1,9,2018_Sep_19_1007,MP_PerceptionTuring2,59.965848364039125,
54,resources/videos_generated\model(dmp)-dataset(walking)-npsi(90)_final(6).mov,resources/videos_natural\training(12).mov,False,False,right,0,53,53,53,2018-09-19 10:14:08.184090,2018-09-19 10:14:12.104314,0:00:03.920224,2,left,0,0.5507161742843891,25,m,1,9,2018_Sep_19_1007,MP_PerceptionTuring2,59.965848364039125,
55,resources/videos_generated\model(vcgpdm)-dataset(walking)-mode(ELBO)-parts(1)-dyn(24)-lvm(23)_final(4)_fail.mov,resources/videos_natural\training(16).mov,False,True,left,0,54,54,54,2018-09-19 10:14:13.772410,2018-09-19 10:14:17.675633,0:00:03.903223,2,left,1,0.4672509020883808,25,m,1,9,2018_Sep_19_1007,MP_PerceptionTuring2,59.965848364039125,
56,resources/videos_generated\model(vcgpdm)-dataset(walking)-mode(ELBO)-parts(1)-dyn(23)-lvm(28)_final(4)_hip-corrected.mov,resources/videos_natural\training(14).mov,False,False,right,0,55,55,55,2018-09-19 10:14:19.259723,2018-09-19 10:14:23.162947,0:00:03.903224,2,right,1,0.7675763797260515,25,m,1,9,2018_Sep_19_1007,MP_PerceptionTuring2,59.965848364039125,
57,resources/videos_generated\model(vcgpdm)-dataset(walking)-mode(ELBO)-parts(2)-dyn(22)-lvm(23)_final(1).mov,resources/videos_natural\training(25).mov,True,True,left,0,56,56,56,2018-09-19 10:14:25.048055,2018-09-19 10:14:28.968279,0:00:03.920224,2,left,1,0.41722968445264996,25,m,1,9,2018_Sep_19_1007,MP_PerceptionTuring2,59.965848364039125,
58,resources/videos_generated\model(vcgpdm)-dataset(walking)-mode(ELBO)-parts(1)-dyn(24)-lvm(23)_final(2).mov,resources/videos_natural\training(15).mov,True,False,right,0,57,57,57,2018-09-19 10:14:30.503367,2018-09-19 10:14:34.473594,0:00:03.970227,2,left,0,0.3515893349831458,25,m,1,9,2018_Sep_19_1007,MP_PerceptionTuring2,59.965848364039125,
59,resources/videos_generated\model(vcgpdm)-dataset(walking)-mode(ELBO)-parts(2)-dyn(27)-lvm(22)_final(1).mov,resources/videos_natural\training(46).mov,False,False,right,0,58,58,58,2018-09-19 10:14:35.940678,2018-09-19 10:14:39.894904,0:00:03.954226,2,right,1,0.45052767011748074,25,m,1,9,2018_Sep_19_1007,MP_PerceptionTuring2,59.965848364039125,
60,resources/videos_generated\model(vcgpdm)-dataset(walking)-mode(ELBO)-parts(1)-dyn(27)-lvm(24)_final(1).mov,resources/videos_natural\training(0).mov,True,False,right,0,59,59,59,2018-09-19 10:14:41.462993,2018-09-19 10:14:45.382218,0:00:03.919225,2,right,1,0.48401931000717013,25,m,1,9,2018_Sep_19_1007,MP_PerceptionTuring2,59.965848364039125,
61,resources/videos_generated\model(vcgpdm)-dataset(walking)-mode(ELBO)-parts(2)-dyn(26)-lvm(17)_final(7).mov,resources/videos_natural\training(13).mov,False,False,right,0,60,60,60,2018-09-19 10:14:46.984309,2018-09-19 10:14:50.903533,0:00:03.919224,2,right,1,1.1844443554309692,25,m,1,9,2018_Sep_19_1007,MP_PerceptionTuring2,59.965848364039125,
62,resources/videos_generated\model(vcgpdm)-dataset(walking)-mode(ELBO)-parts(2)-dyn(28)-lvm(19)_final(3).mov,resources/videos_natural\training(37).mov,True,False,right,0,61,61,61,2018-09-19 10:14:53.205665,2018-09-19 10:14:57.225895,0:00:04.020230,2,right,1,0.36744820050716953,25,m,1,9,2018_Sep_19_1007,MP_PerceptionTuring2,59.965848364039125,
63,resources/videos_generated\model(vcgpdm)-dataset(walking)-mode(ELBO)-parts(1)-dyn(22)-lvm(23)_final(4)_fail.mov,resources/videos_natural\training(17).mov,False,False,right,0,62,62,62,2018-09-19 10:14:58.710980,2018-09-19 10:15:02.631204,0:00:03.920224,2,right,1,0.4171851108512783,25,m,1,9,2018_Sep_19_1007,MP_PerceptionTuring2,59.965848364039125,
64,resources/videos_generated\model(vcgpdm)-dataset(walking)-mode(ELBO)-parts(1)-dyn(25)-lvm(24)_final(3).mov,resources/videos_natural\training(24).mov,True,True,left,0,63,63,63,2018-09-19 10:15:04.165292,2018-09-19 10:15:08.102517,0:00:03.937225,2,left,1,0.4839090806972308,25,m,1,9,2018_Sep_19_1007,MP_PerceptionTuring2,59.965848364039125,
65,resources/videos_generated\model(vcgpdm)-dataset(walking)-mode(ELBO)-parts(2)-dyn(24)-lvm(19)_final(5).mov,resources/videos_natural\training(24).mov,True,False,right,0,64,64,64,2018-09-19 10:15:09.703609,2018-09-19 10:15:13.606832,0:00:03.903223,2,right,1,0.5007073047399899,25,m,1,9,2018_Sep_19_1007,MP_PerceptionTuring2,59.965848364039125,
66,resources/videos_generated\model(vcgpdm)-dataset(walking)-mode(ELBO)-parts(1)-dyn(27)-lvm(24)_final(9).mov,resources/videos_natural\training(28).mov,True,False,right,0,65,65,65,2018-09-19 10:15:15.224925,2018-09-19 10:15:19.162150,0:00:03.937225,2,right,1,0.4340733856151928,25,m,1,9,2018_Sep_19_1007,MP_PerceptionTuring2,59.965848364039125,
67,resources/videos_generated\model(vcgpdm)-dataset(walking)-mode(ELBO)-parts(2)-dyn(24)-lvm(19)_final(9).mov,resources/videos_natural\training(30).mov,True,False,right,0,66,66,66,2018-09-19 10:15:20.713238,2018-09-19 10:15:24.783471,0:00:04.070233,2,right,1,1.718343632946926,25,m,1,9,2018_Sep_19_1007,MP_PerceptionTuring2,59.965848364039125,
68,resources/videos_generated\model(tmp)-dataset(walking)-numprim(14)_final(2).mov,resources/videos_natural\training(12).mov,True,True,left,0,67,67,67,2018-09-19 10:15:27.618633,2018-09-19 10:15:31.705867,0:00:04.087234,2,right,0,0.46738793579334015,25,m,1,9,2018_Sep_19_1007,MP_PerceptionTuring2,59.965848364039125,
69,resources/videos_generated\model(vcgpdm)-dataset(walking)-mode(ELBO)-parts(1)-dyn(26)-lvm(22)_final(7).mov,resources/videos_natural\training(17).mov,True,True,left,0,68,68,68,2018-09-19 10:15:33.290958,2018-09-19 10:15:37.244184,0:00:03.953226,2,left,1,0.38371124016703106,25,m,1,9,2018_Sep_19_1007,MP_PerceptionTuring2,59.965848364039125,
70,resources/videos_generated\model(vcgpdm)-dataset(walking)-mode(ELBO)-parts(2)-dyn(25)-lvm(22)_final(7).mov,resources/videos_natural\training(7).mov,True,False,right,0,69,69,69,2018-09-19 10:15:38.745270,2018-09-19 10:15:42.632492,0:00:03.887222,2,right,1,0.3840331940809847,25,m,1,9,2018_Sep_19_1007,MP_PerceptionTuring2,59.965848364039125,
71,resources/videos_generated\model(vcgpdm)-dataset(walking)-mode(ELBO)-parts(2)-dyn(26)-lvm(23)_final(1).mov,resources/videos_natural\training(19).mov,False,False,right,0,70,70,70,2018-09-19 10:15:44.133578,2018-09-19 10:15:48.053802,0:00:03.920224,2,right,1,0.3672081656422961,25,m,1,9,2018_Sep_19_1007,MP_PerceptionTuring2,59.965848364039125,
72,resources/videos_generated\model(vcgpdm)-dataset(walking)-mode(ELBO)-parts(1)-dyn(28)-lvm(23)_final(5).mov,resources/videos_natural\training(21).mov,False,True,left,0,71,71,71,2018-09-19 10:15:49.537887,2018-09-19 10:15:53.525115,0:00:03.987228,2,left,1,0.45067434135671647,25,m,1,9,2018_Sep_19_1007,MP_PerceptionTuring2,59.965848364039125,
73,resources/videos_generated\model(vcgpdm)-dataset(walking)-mode(ELBO)-parts(2)-dyn(24)-lvm(23)_final(3).mov,resources/videos_natural\training(2).mov,False,False,right,0,72,72,72,2018-09-19 10:15:55.093205,2018-09-19 10:15:59.012429,0:00:03.919224,2,left,0,0.3837588254973525,25,m,1,9,2018_Sep_19_1007,MP_PerceptionTuring2,59.965848364039125,
74,resources/videos_generated\model(tmp)-dataset(walking)-numprim(13)_final(8).mov,resources/videos_natural\training(19).mov,False,True,left,0,73,73,73,2018-09-19 10:16:00.514515,2018-09-19 10:16:04.484742,0:00:03.970227,2,left,1,0.517372109153257,25,m,1,9,2018_Sep_19_1007,MP_PerceptionTuring2,59.965848364039125,
75,resources/videos_generated\model(vcgpdm)-dataset(walking)-mode(ELBO)-parts(1)-dyn(27)-lvm(28)_final(5).mov,resources/videos_natural\training(38).mov,True,True,left,0,74,74,74,2018-09-19 10:16:06.118835,2018-09-19 10:16:10.039060,0:00:03.920225,2,left,1,0.7175012521265671,25,m,1,9,2018_Sep_19_1007,MP_PerceptionTuring2,59.965848364039125,
76,resources/videos_generated\model(vcgpdm)-dataset(walking)-mode(ELBO)-parts(1)-dyn(26)-lvm(23)_final(3)_fail.mov,resources/videos_natural\training(46).mov,False,False,right,0,75,75,75,2018-09-19 10:16:11.874165,2018-09-19 10:16:15.777388,0:00:03.903223,2,right,1,0.433984539586163,25,m,1,9,2018_Sep_19_1007,MP_PerceptionTuring2,59.965848364039125,
77,resources/videos_generated\model(vcgpdm)-dataset(walking)-mode(ELBO)-parts(1)-dyn(24)-lvm(27)_final(4).mov,resources/videos_natural\training(41).mov,False,False,right,0,76,76,76,2018-09-19 10:16:17.328477,2018-09-19 10:16:21.265702,0:00:03.937225,2,right,1,0.4340273061488915,25,m,1,9,2018_Sep_19_1007,MP_PerceptionTuring2,59.965848364039125,
78,resources/videos_generated\model(tmp)-dataset(walking)-numprim(13)_final(6).mov,resources/videos_natural\training(25).mov,True,False,right,0,77,77,77,2018-09-19 10:16:22.816791,2018-09-19 10:16:26.754016,0:00:03.937225,2,right,1,0.7842065492468464,25,m,1,9,2018_Sep_19_1007,MP_PerceptionTuring2,59.965848364039125,
79,resources/videos_generated\model(vcgpdm)-dataset(walking)-mode(ELBO)-parts(1)-dyn(23)-lvm(28)_final(6)_hip-corrected.mov,resources/videos_natural\training(33).mov,True,False,right,0,78,78,78,2018-09-19 10:16:28.655124,2018-09-19 10:16:32.642353,0:00:03.987229,2,right,1,0.6675809274374842,25,m,1,9,2018_Sep_19_1007,MP_PerceptionTuring2,59.965848364039125,
80,resources/videos_generated\model(vcgpdm)-dataset(walking)-mode(ELBO)-parts(1)-dyn(28)-lvm(23)_final(3)_fail.mov,resources/videos_natural\training(0).mov,False,False,right,0,79,79,79,2018-09-19 10:16:34.426455,2018-09-19 10:16:38.446685,0:00:04.020230,2,right,1,0.9176297927533597,25,m,1,9,2018_Sep_19_1007,MP_PerceptionTuring2,59.965848364039125,
81,resources/videos_generated\model(vcgpdm)-dataset(walking)-mode(ELBO)-parts(2)-dyn(26)-lvm(21)_final(5).mov,resources/videos_natural\training(5).mov,True,True,left,0,80,80,80,2018-09-19 10:16:40.481801,2018-09-19 10:16:44.552034,0:00:04.070233,2,right,0,0.417213722284032,25,m,1,9,2018_Sep_19_1007,MP_PerceptionTuring2,59.965848364039125,
82,resources/videos_generated\model(vcgpdm)-dataset(walking)-mode(ELBO)-parts(2)-dyn(26)-lvm(17)_final(1).mov,resources/videos_natural\training(1).mov,False,True,left,0,81,81,81,2018-09-19 10:16:46.087122,2018-09-19 10:16:49.990345,0:00:03.903223,2,left,1,0.45061651614560105,25,m,1,9,2018_Sep_19_1007,MP_PerceptionTuring2,59.965848364039125,
83,resources/videos_generated\model(dmp)-dataset(walking)-npsi(80)_final(2).mov,resources/videos_natural\training(48).mov,False,False,right,0,82,82,82,2018-09-19 10:16:51.558434,2018-09-19 10:16:55.478659,0:00:03.920225,2,left,0,0.5004446819029909,25,m,1,9,2018_Sep_19_1007,MP_PerceptionTuring2,59.965848364039125,
84,resources/videos_generated\model(vcgpdm)-dataset(walking)-mode(ELBO)-parts(1)-dyn(25)-lvm(26)_final(2).mov,resources/videos_natural\training(36).mov,False,False,right,0,83,83,83,2018-09-19 10:16:57.096751,2018-09-19 10:17:01.015975,0:00:03.919224,2,left,0,0.63418777111292,25,m,1,9,2018_Sep_19_1007,MP_PerceptionTuring2,59.965848364039125,
85,resources/videos_generated\model(vcgpdm)-dataset(walking)-mode(ELBO)-parts(2)-dyn(22)-lvm(19)_final(5).mov,resources/videos_natural\training(0).mov,False,True,left,0,84,84,84,2018-09-19 10:17:02.768076,2018-09-19 10:17:06.688300,0:00:03.920224,2,left,1,0.43412187446392636,25,m,1,9,2018_Sep_19_1007,MP_PerceptionTuring2,59.965848364039125,
86,resources/videos_generated\model(vcgpdm)-dataset(walking)-mode(ELBO)-parts(1)-dyn(24)-lvm(25)_final(0).mov,resources/videos_natural\training(27).mov,False,True,left,0,85,85,85,2018-09-19 10:17:08.239389,2018-09-19 10:17:12.159613,0:00:03.920224,2,right,0,0.9010273311459969,25,m,1,9,2018_Sep_19_1007,MP_PerceptionTuring2,59.965848364039125,
87,resources/videos_generated\model(vcgpdm)-dataset(walking)-mode(ELBO)-parts(2)-dyn(28)-lvm(19)_final(1).mov,resources/videos_natural\training(26).mov,False,True,left,0,86,86,86,2018-09-19 10:17:14.177728,2018-09-19 10:17:18.097952,0:00:03.920224,2,left,1,0.517312476904408,25,m,1,9,2018_Sep_19_1007,MP_PerceptionTuring2,59.965848364039125,
88,resources/videos_generated\model(vcgpdm)-dataset(walking)-mode(ELBO)-parts(2)-dyn(24)-lvm(17)_final(1).mov,resources/videos_natural\training(5).mov,True,True,left,0,87,87,87,2018-09-19 10:17:19.733046,2018-09-19 10:17:23.819280,0:00:04.086234,2,right,0,0.31703214509525424,25,m,1,9,2018_Sep_19_1007,MP_PerceptionTuring2,59.965848364039125,
89,resources/videos_generated\model(vcgpdm)-dataset(walking)-mode(ELBO)-parts(1)-dyn(23)-lvm(24)_final(1).mov,resources/videos_natural\training(0).mov,True,False,right,0,88,88,88,2018-09-19 10:17:25.254362,2018-09-19 10:17:29.174586,0:00:03.920224,2,right,1,0.3171983925794848,25,m,1,9,2018_Sep_19_1007,MP_PerceptionTuring2,59.965848364039125,
90,resources/videos_generated\model(vcgpdm)-dataset(walking)-mode(ELBO)-parts(2)-dyn(25)-lvm(20)_final(9).mov,resources/videos_natural\training(42).mov,False,True,left,0,89,89,89,2018-09-19 10:17:30.608668,2018-09-19 10:17:34.528892,0:00:03.920224,2,left,1,0.4339023193624598,25,m,1,9,2018_Sep_19_1007,MP_PerceptionTuring2,59.965848364039125,
91,resources/videos_generated\model(vcgpdm)-dataset(walking)-mode(ELBO)-parts(2)-dyn(23)-lvm(20)_final(9).mov,resources/videos_natural\training(26).mov,True,True,left,0,90,90,90,2018-09-19 10:18:28.191962,2018-09-19 10:18:32.128187,0:00:03.936225,3,right,0,0.4505517639554455,25,m,1,9,2018_Sep_19_1007,MP_PerceptionTuring2,59.965848364039125,
92,resources/videos_generated\model(tmp)-dataset(walking)-numprim(12)_final(2).mov,resources/videos_natural\training(36).mov,True,False,right,0,91,91,91,2018-09-19 10:18:33.696276,2018-09-19 10:18:37.750508,0:00:04.054232,3,left,0,0.46730782378108415,25,m,1,9,2018_Sep_19_1007,MP_PerceptionTuring2,59.965848364039125,
93,resources/videos_generated\model(vcgpdm)-dataset(walking)-mode(ELBO)-parts(1)-dyn(25)-lvm(26)_final(6)_fail.mov,resources/videos_natural\training(42).mov,False,True,left,0,92,92,92,2018-09-19 10:18:39.334599,2018-09-19 10:18:43.221821,0:00:03.887222,3,left,1,0.35056052808886307,25,m,1,9,2018_Sep_19_1007,MP_PerceptionTuring2,59.965848364039125,
94,resources/videos_generated\model(vcgpdm)-dataset(walking)-mode(ELBO)-parts(1)-dyn(26)-lvm(25)_final(3).mov,resources/videos_natural\training(10).mov,True,False,right,0,93,93,93,2018-09-19 10:18:44.689905,2018-09-19 10:18:48.643131,0:00:03.953226,3,right,1,0.46735269855525985,25,m,1,9,2018_Sep_19_1007,MP_PerceptionTuring2,59.965848364039125,
95,resources/videos_generated\model(vcgpdm)-dataset(walking)-mode(ELBO)-parts(1)-dyn(28)-lvm(23)_final(1).mov,resources/videos_natural\training(11).mov,False,False,right,0,94,94,94,2018-09-19 10:18:50.227222,2018-09-19 10:18:54.164447,0:00:03.937225,3,right,1,0.4006169829635837,25,m,1,9,2018_Sep_19_1007,MP_PerceptionTuring2,59.965848364039125,
96,resources/videos_generated\model(tmp)-dataset(walking)-numprim(14)_final(0).mov,resources/videos_natural\training(38).mov,True,True,left,0,95,95,95,2018-09-19 10:18:55.682534,2018-09-19 10:18:59.635760,0:00:03.953226,3,left,1,0.3838946545110957,25,m,1,9,2018_Sep_19_1007,MP_PerceptionTuring2,59.965848364039125,
97,resources/videos_generated\model(vcgpdm)-dataset(walking)-mode(ELBO)-parts(2)-dyn(26)-lvm(19)_final(3).mov,resources/videos_natural\training(10).mov,False,True,left,0,96,96,96,2018-09-19 10:19:01.136846,2018-09-19 10:19:05.090072,0:00:03.953226,3,right,0,0.4506246478158573,25,m,1,9,2018_Sep_19_1007,MP_PerceptionTuring2,59.965848364039125,
98,resources/videos_generated\model(dmp)-dataset(walking)-npsi(90)_final(0).mov,resources/videos_natural\training(37).mov,True,True,left,0,97,97,97,2018-09-19 10:19:06.658162,2018-09-19 10:19:10.628389,0:00:03.970227,3,left,1,0.40060222548800084,25,m,1,9,2018_Sep_19_1007,MP_PerceptionTuring2,59.965848364039125,
99,resources/videos_generated\model(vcgpdm)-dataset(walking)-mode(ELBO)-parts(1)-dyn(26)-lvm(27)_final(3).mov,resources/videos_natural\training(17).mov,True,True,left,0,98,98,98,2018-09-19 10:19:12.146476,2018-09-19 10:19:16.066700,0:00:03.920224,3,right,0,0.8175171841776319,25,m,1,9,2018_Sep_19_1007,MP_PerceptionTuring2,59.965848364039125,
100,resources/videos_generated\model(vcgpdm)-dataset(walking)-mode(ELBO)-parts(2)-dyn(25)-lvm(18)_final(5).mov,resources/videos_natural\training(37).mov,False,True,left,0,99,99,99,2018-09-19 10:19:18.001811,2018-09-19 10:19:21.938036,0:00:03.936225,3,right,0,1.1511632354531685,25,m,1,9,2018_Sep_19_1007,MP_PerceptionTuring2,59.965848364039125,
101,resources/videos_generated\model(vcgpdm)-dataset(walking)-mode(ELBO)-parts(1)-dyn(22)-lvm(27)_final(8)_fail.mov,resources/videos_natural\training(15).mov,True,True,left,0,100,100,100,2018-09-19 10:19:24.207165,2018-09-19 10:19:28.310400,0:00:04.103235,3,left,1,0.4005995149309456,25,m,1,9,2018_Sep_19_1007,MP_PerceptionTuring2,59.965848364039125,
102,resources/videos_generated\model(tmp)-dataset(walking)-numprim(11)_final(4).mov,resources/videos_natural\training(43).mov,True,False,right,0,101,101,101,2018-09-19 10:19:29.828487,2018-09-19 10:19:33.815715,0:00:03.987228,3,left,0,0.3506162450894408,25,m,1,9,2018_Sep_19_1007,MP_PerceptionTuring2,59.965848364039125,
103,resources/videos_generated\model(vcgpdm)-dataset(walking)-mode(ELBO)-parts(1)-dyn(25)-lvm(22)_final(0).mov,resources/videos_natural\training(47).mov,False,True,left,0,102,102,102,2018-09-19 10:19:35.282799,2018-09-19 10:19:39.237025,0:00:03.954226,3,left,1,0.31709870432405296,25,m,1,9,2018_Sep_19_1007,MP_PerceptionTuring2,59.965848364039125,
104,resources/videos_generated\model(dmp)-dataset(walking)-npsi(60)_final(6).mov,resources/videos_natural\training(0).mov,True,False,right,0,103,103,103,2018-09-19 10:19:40.671107,2018-09-19 10:19:44.591331,0:00:03.920224,3,left,0,0.36730092692050675,25,m,1,9,2018_Sep_19_1007,MP_PerceptionTuring2,59.965848364039125,
105,resources/videos_generated\model(vcgpdm)-dataset(walking)-mode(ELBO)-parts(2)-dyn(23)-lvm(20)_final(5).mov,resources/videos_natural\training(31).mov,False,False,right,0,104,104,104,2018-09-19 10:19:46.075416,2018-09-19 10:19:49.995641,0:00:03.920225,3,right,1,0.3672491251682004,25,m,1,9,2018_Sep_19_1007,MP_PerceptionTuring2,59.965848364039125,
106,resources/videos_generated\model(vcgpdm)-dataset(walking)-mode(ELBO)-parts(2)-dyn(22)-lvm(21)_final(1).mov,resources/videos_natural\training(7).mov,False,True,left,0,105,105,105,2018-09-19 10:19:51.480725,2018-09-19 10:19:55.400950,0:00:03.920225,3,right,0,0.36710546565791446,25,m,1,9,2018_Sep_19_1007,MP_PerceptionTuring2,59.965848364039125,
107,resources/videos_generated\model(vcgpdm)-dataset(walking)-mode(ELBO)-parts(1)-dyn(22)-lvm(25)_final(8).mov,resources/videos_natural\training(23).mov,True,True,left,0,106,106,106,2018-09-19 10:19:56.885035,2018-09-19 10:20:00.788258,0:00:03.903223,3,left,1,0.3673280324883308,25,m,1,9,2018_Sep_19_1007,MP_PerceptionTuring2,59.965848364039125,
108,resources/videos_generated\model(vcgpdm)-dataset(walking)-mode(ELBO)-parts(2)-dyn(22)-lvm(21)_final(9).mov,resources/videos_natural\training(10).mov,False,False,right,0,107,107,107,2018-09-19 10:20:02.273343,2018-09-19 10:20:06.326575,0:00:04.053232,3,right,1,0.4172022777111124,25,m,1,9,2018_Sep_19_1007,MP_PerceptionTuring2,59.965848364039125,
109,resources/videos_generated\model(vcgpdm)-dataset(walking)-mode(ELBO)-parts(1)-dyn(25)-lvm(24)_final(5).mov,resources/videos_natural\training(36).mov,False,False,right,0,108,108,108,2018-09-19 10:20:07.861662,2018-09-19 10:20:11.781887,0:00:03.920225,3,right,1,0.600496453537744,25,m,1,9,2018_Sep_19_1007,MP_PerceptionTuring2,59.965848364039125,
110,resources/videos_generated\model(tmp)-dataset(walking)-numprim(12)_final(8).mov,resources/videos_natural\training(8).mov,True,True,left,0,109,109,109,2018-09-19 10:20:13.499985,2018-09-19 10:20:17.436210,0:00:03.936225,3,right,0,0.2836844658895643,25,m,1,9,2018_Sep_19_1007,MP_PerceptionTuring2,59.965848364039125,
111,resources/videos_generated\model(vcgpdm)-dataset(walking)-mode(ELBO)-parts(2)-dyn(24)-lvm(19)_final(3).mov,resources/videos_natural\training(5).mov,False,False,right,0,110,110,110,2018-09-19 10:20:18.837290,2018-09-19 10:20:22.740513,0:00:03.903223,3,left,0,0.4005642776928653,25,m,1,9,2018_Sep_19_1007,MP_PerceptionTuring2,59.965848364039125,
112,resources/videos_generated\model(vcgpdm)-dataset(walking)-mode(ELBO)-parts(1)-dyn(28)-lvm(25)_final(3).mov,resources/videos_natural\training(14).mov,True,True,left,0,111,111,111,2018-09-19 10:20:24.258600,2018-09-19 10:20:28.228827,0:00:03.970227,3,left,1,0.23379937843947118,25,m,1,9,2018_Sep_19_1007,MP_PerceptionTuring2,59.965848364039125,
113,resources/videos_generated\model(tmp)-dataset(walking)-numprim(11)_final(8).mov,resources/videos_natural\training(34).mov,False,False,right,0,112,112,112,2018-09-19 10:20:29.579905,2018-09-19 10:20:33.650137,0:00:04.070232,3,right,1,1.8851338307304104,25,m,1,9,2018_Sep_19_1007,MP_PerceptionTuring2,59.965848364039125,
114,resources/videos_generated\model(vcgpdm)-dataset(walking)-mode(ELBO)-parts(1)-dyn(27)-lvm(24)_final(5).mov,resources/videos_natural\training(29).mov,False,True,left,0,113,113,113,2018-09-19 10:20:36.653309,2018-09-19 10:20:40.556532,0:00:03.903223,3,left,1,0.4338842489842136,25,m,1,9,2018_Sep_19_1007,MP_PerceptionTuring2,59.965848364039125,
115,resources/videos_generated\model(vcgpdm)-dataset(walking)-mode(ELBO)-parts(2)-dyn(28)-lvm(23)_final(3).mov,resources/videos_natural\training(34).mov,True,True,left,0,114,114,114,2018-09-19 10:20:42.107621,2018-09-19 10:20:46.160853,0:00:04.053232,3,left,1,0.2505024318215874,25,m,1,9,2018_Sep_19_1007,MP_PerceptionTuring2,59.965848364039125,
116,resources/videos_generated\model(vcgpdm)-dataset(walking)-mode(ELBO)-parts(1)-dyn(25)-lvm(24)_final(7).mov,resources/videos_natural\training(2).mov,True,True,left,0,115,115,115,2018-09-19 10:20:47.528931,2018-09-19 10:20:51.466156,0:00:03.937225,3,left,1,0.23366445294504956,25,m,1,9,2018_Sep_19_1007,MP_PerceptionTuring2,59.965848364039125,
117,resources/videos_generated\model(vcgpdm)-dataset(walking)-mode(ELBO)-parts(2)-dyn(22)-lvm(23)_final(9).mov,resources/videos_natural\training(25).mov,False,True,left,0,116,116,116,2018-09-19 10:20:52.817234,2018-09-19 10:20:56.820463,0:00:04.003229,3,left,1,0.35046505625450664,25,m,1,9,2018_Sep_19_1007,MP_PerceptionTuring2,59.965848364039125,
118,resources/videos_generated\model(vcgpdm)-dataset(walking)-mode(ELBO)-parts(2)-dyn(28)-lvm(23)_final(1).mov,resources/videos_natural\training(39).mov,False,False,right,0,117,117,117,2018-09-19 10:20:58.288547,2018-09-19 10:21:02.324777,0:00:04.036230,3,right,1,0.367234066518904,25,m,1,9,2018_Sep_19_1007,MP_PerceptionTuring2,59.965848364039125,
119,resources/videos_generated\model(tmp)-dataset(walking)-numprim(14)_final(4).mov,resources/videos_natural\training(22).mov,True,True,left,0,118,118,118,2018-09-19 10:21:03.809862,2018-09-19 10:21:07.730087,0:00:03.920225,3,right,0,0.36720997268093925,25,m,1,9,2018_Sep_19_1007,MP_PerceptionTuring2,59.965848364039125,
120,resources/videos_generated\model(tmp)-dataset(walking)-numprim(15)_final(4).mov,resources/videos_natural\training(1).mov,False,False,right,0,119,119,119,2018-09-19 10:21:09.214172,2018-09-19 10:21:13.318406,0:00:04.104234,3,right,1,0.6174675508700602,25,m,1,9,2018_Sep_19_1007,MP_PerceptionTuring2,59.965848364039125,
121,resources/videos_generated\model(vcgpdm)-dataset(walking)-mode(ELBO)-parts(1)-dyn(27)-lvm(26)_final(9).mov,resources/videos_natural\training(6).mov,False,True,left,0,120,120,120,2018-09-19 10:21:15.052505,2018-09-19 10:21:18.972730,0:00:03.920225,3,left,1,0.4006413779743525,25,m,1,9,2018_Sep_19_1007,MP_PerceptionTuring2,59.965848364039125,
122,resources/videos_generated\model(vcgpdm)-dataset(walking)-mode(ELBO)-parts(1)-dyn(28)-lvm(27)_final(3).mov,resources/videos_natural\training(33).mov,False,False,right,0,121,121,121,2018-09-19 10:21:20.490817,2018-09-19 10:21:24.511046,0:00:04.020229,3,left,0,2.869459584242577,25,m,1,9,2018_Sep_19_1007,MP_PerceptionTuring2,59.965848364039125,
123,resources/videos_generated\model(vcgpdm)-dataset(walking)-mode(ELBO)-parts(2)-dyn(25)-lvm(18)_final(9).mov,resources/videos_natural\training(16).mov,False,False,right,0,122,122,122,2018-09-19 10:21:28.498275,2018-09-19 10:21:32.534505,0:00:04.036230,3,right,1,0.4506704261084451,25,m,1,9,2018_Sep_19_1007,MP_PerceptionTuring2,59.965848364039125,
124,resources/videos_generated\model(dmp)-dataset(walking)-npsi(50)_final(0).mov,resources/videos_natural\training(44).mov,True,True,left,0,123,123,123,2018-09-19 10:21:34.102595,2018-09-19 10:21:38.072822,0:00:03.970227,3,left,1,0.4004522413442828,25,m,1,9,2018_Sep_19_1007,MP_PerceptionTuring2,59.965848364039125,
125,resources/videos_generated\model(vcgpdm)-dataset(walking)-mode(ELBO)-parts(1)-dyn(24)-lvm(23)_final(6)_fail.mov,resources/videos_natural\training(39).mov,False,False,right,0,124,124,124,2018-09-19 10:21:39.590909,2018-09-19 10:21:43.677143,0:00:04.086234,3,right,1,0.36731809378034086,25,m,1,9,2018_Sep_19_1007,MP_PerceptionTuring2,59.965848364039125,
126,resources/videos_generated\model(vcgpdm)-dataset(walking)-mode(ELBO)-parts(1)-dyn(25)-lvm(26)_final(4)_fail.mov,resources/videos_natural\training(40).mov,False,False,right,0,125,125,125,2018-09-19 10:21:45.162228,2018-09-19 10:21:49.099453,0:00:03.937225,3,right,1,0.26717627142443234,25,m,1,9,2018_Sep_19_1007,MP_PerceptionTuring2,59.965848364039125,
127,resources/videos_generated\model(vcgpdm)-dataset(walking)-mode(ELBO)-parts(2)-dyn(28)-lvm(17)_final(1).mov,resources/videos_natural\training(7).mov,False,True,left,0,126,126,126,2018-09-19 10:21:50.483532,2018-09-19 10:21:54.519763,0:00:04.036231,3,left,1,0.5173832525542821,25,m,1,9,2018_Sep_19_1007,MP_PerceptionTuring2,59.965848364039125,
128,resources/videos_generated\model(dmp)-dataset(walking)-npsi(100)_final(0).mov,resources/videos_natural\training(36).mov,True,False,right,0,127,127,127,2018-09-19 10:21:56.154856,2018-09-19 10:22:00.108083,0:00:03.953227,3,left,0,0.30068748755820707,25,m,1,9,2018_Sep_19_1007,MP_PerceptionTuring2,59.965848364039125,
129,resources/videos_generated\model(vcgpdm)-dataset(walking)-mode(ELBO)-parts(2)-dyn(27)-lvm(20)_final(3).mov,resources/videos_natural\training(24).mov,True,False,right,0,128,128,128,2018-09-19 10:22:01.526164,2018-09-19 10:22:05.446388,0:00:03.920224,3,left,0,0.2504168986952209,25,m,1,9,2018_Sep_19_1007,MP_PerceptionTuring2,59.965848364039125,
130,resources/videos_generated\model(vcgpdm)-dataset(walking)-mode(ELBO)-parts(1)-dyn(28)-lvm(25)_final(7).mov,resources/videos_natural\training(34).mov,False,True,left,0,129,129,129,2018-09-19 10:22:06.814466,2018-09-19 10:22:10.900700,0:00:04.086234,3,right,0,0.3671988292799142,25,m,1,9,2018_Sep_19_1007,MP_PerceptionTuring2,59.965848364039125,
131,resources/videos_generated\model(vcgpdm)-dataset(walking)-mode(ELBO)-parts(2)-dyn(28)-lvm(23)_final(7).mov,resources/videos_natural\training(38).mov,True,True,left,0,130,130,130,2018-09-19 10:22:12.385785,2018-09-19 10:22:16.306009,0:00:03.920224,3,left,1,0.2837389781989259,25,m,1,9,2018_Sep_19_1007,MP_PerceptionTuring2,59.965848364039125,
132,resources/videos_generated\model(vcgpdm)-dataset(walking)-mode(ELBO)-parts(2)-dyn(28)-lvm(21)_final(3).mov,resources/videos_natural\training(45).mov,True,True,left,0,131,131,131,2018-09-19 10:22:17.707089,2018-09-19 10:22:21.627313,0:00:03.920224,3,left,1,0.33400143539074634,25,m,1,9,2018_Sep_19_1007,MP_PerceptionTuring2,59.965848364039125,
133,resources/videos_generated\model(vcgpdm)-dataset(walking)-mode(ELBO)-parts(2)-dyn(23)-lvm(22)_final(5).mov,resources/videos_natural\training(5).mov,False,False,right,0,132,132,132,2018-09-19 10:22:23.078396,2018-09-19 10:22:27.064624,0:00:03.986228,3,right,1,0.4006187900013174,25,m,1,9,2018_Sep_19_1007,MP_PerceptionTuring2,59.965848364039125,
134,resources/videos_generated\model(vcgpdm)-dataset(walking)-mode(ELBO)-parts(2)-dyn(25)-lvm(18)_final(7).mov,resources/videos_natural\training(17).mov,False,False,right,0,133,133,133,2018-09-19 10:22:28.582711,2018-09-19 10:22:32.619942,0:00:04.037231,3,right,1,0.3004438386178663,25,m,1,9,2018_Sep_19_1007,MP_PerceptionTuring2,59.965848364039125,
135,resources/videos_generated\model(vcgpdm)-dataset(walking)-mode(ELBO)-parts(1)-dyn(28)-lvm(24)_final(2).mov,resources/videos_natural\training(48).mov,True,False,right,0,134,134,134,2018-09-19 10:22:34.038023,2018-09-19 10:22:37.991249,0:00:03.953226,3,right,1,0.30052997409075033,25,m,1,9,2018_Sep_19_1007,MP_PerceptionTuring2,59.965848364039125,
136,resources/videos_generated\model(tmp)-dataset(walking)-numprim(12)_final(6).mov,resources/videos_natural\training(4).mov,False,True,left,0,135,135,135,2018-09-19 10:23:10.769124,2018-09-19 10:23:14.689348,0:00:03.920224,4,right,0,0.5839171822490243,25,m,1,9,2018_Sep_19_1007,MP_PerceptionTuring2,59.965848364039125,
137,resources/videos_generated\model(vcgpdm)-dataset(walking)-mode(ELBO)-parts(1)-dyn(22)-lvm(22)_final(0).mov,resources/videos_natural\training(17).mov,True,False,right,0,136,136,136,2018-09-19 10:23:16.390446,2018-09-19 10:23:20.310670,0:00:03.920224,4,left,0,0.3338132022790887,25,m,1,9,2018_Sep_19_1007,MP_PerceptionTuring2,59.965848364039125,
138,resources/videos_generated\model(vcgpdm)-dataset(walking)-mode(ELBO)-parts(1)-dyn(23)-lvm(26)_final(1)_hip-corrected.mov,resources/videos_natural\training(7).mov,False,False,right,0,137,137,137,2018-09-19 10:23:21.762753,2018-09-19 10:23:25.715979,0:00:03.953226,4,right,1,0.2836808518131875,25,m,1,9,2018_Sep_19_1007,MP_PerceptionTuring2,59.965848364039125,
139,resources/videos_generated\model(vcgpdm)-dataset(walking)-mode(ELBO)-parts(1)-dyn(26)-lvm(25)_final(1).mov,resources/videos_natural\training(12).mov,False,True,left,0,138,138,138,2018-09-19 10:23:27.117059,2018-09-19 10:23:31.020282,0:00:03.903223,4,left,1,0.45065837918991747,25,m,1,9,2018_Sep_19_1007,MP_PerceptionTuring2,59.965848364039125,
140,resources/videos_generated\model(vcgpdm)-dataset(walking)-mode(ELBO)-parts(1)-dyn(23)-lvm(22)_final(1)_fail.mov,resources/videos_natural\training(48).mov,True,True,left,0,139,139,139,2018-09-19 10:23:32.588372,2018-09-19 10:23:36.525597,0:00:03.937225,4,left,1,0.28377873303088563,25,m,1,9,2018_Sep_19_1007,MP_PerceptionTuring2,59.965848364039125,
141,resources/videos_generated\model(vcgpdm)-dataset(walking)-mode(ELBO)-parts(2)-dyn(28)-lvm(23)_final(5).mov,resources/videos_natural\training(1).mov,True,False,right,0,140,140,140,2018-09-19 10:23:37.926677,2018-09-19 10:23:41.879904,0:00:03.953227,4,right,1,0.3672714119684315,25,m,1,9,2018_Sep_19_1007,MP_PerceptionTuring2,59.965848364039125,
142,resources/videos_generated\model(vcgpdm)-dataset(walking)-mode(ELBO)-parts(1)-dyn(23)-lvm(22)_final(7).mov,resources/videos_natural\training(23).mov,False,False,right,0,141,141,141,2018-09-19 10:23:43.363988,2018-09-19 10:23:47.334215,0:00:03.970227,4,left,0,0.33390746942041005,25,m,1,9,2018_Sep_19_1007,MP_PerceptionTuring2,59.965848364039125,
143,resources/videos_generated\model(vcgpdm)-dataset(walking)-mode(ELBO)-parts(2)-dyn(27)-lvm(18)_final(5).mov,resources/videos_natural\training(28).mov,False,False,right,0,142,142,142,2018-09-19 10:23:48.785298,2018-09-19 10:23:52.755526,0:00:03.970228,4,left,0,0.367185878842065,25,m,1,9,2018_Sep_19_1007,MP_PerceptionTuring2,59.965848364039125,
144,resources/videos_generated\model(vcgpdm)-dataset(walking)-mode(ELBO)-parts(2)-dyn(23)-lvm(18)_final(5).mov,resources/videos_natural\training(28).mov,True,True,left,0,143,143,143,2018-09-19 10:23:54.240611,2018-09-19 10:23:58.143834,0:00:03.903223,4,left,1,0.28379800810216693,25,m,1,9,2018_Sep_19_1007,MP_PerceptionTuring2,59.965848364039125,
145,resources/videos_generated\model(vcgpdm)-dataset(walking)-mode(ELBO)-parts(1)-dyn(27)-lvm(26)_final(3).mov,resources/videos_natural\training(27).mov,False,True,left,0,144,144,144,2018-09-19 10:23:59.544914,2018-09-19 10:24:03.515141,0:00:03.970227,4,left,1,0.3173812045770319,25,m,1,9,2018_Sep_19_1007,MP_PerceptionTuring2,59.965848364039125,
146,resources/videos_generated\model(tmp)-dataset(walking)-numprim(14)_final(6).mov,resources/videos_natural\training(3).mov,True,True,left,0,145,145,145,2018-09-19 10:24:04.949223,2018-09-19 10:24:08.869447,0:00:03.920224,4,left,1,0.2004146549570578,25,m,1,9,2018_Sep_19_1007,MP_PerceptionTuring2,59.965848364039125,
147,resources/videos_generated\model(vcgpdm)-dataset(walking)-mode(ELBO)-parts(2)-dyn(22)-lvm(17)_final(7).mov,resources/videos_natural\training(11).mov,True,True,left,0,146,146,146,2018-09-19 10:24:10.187523,2018-09-19 10:24:14.073745,0:00:03.886222,4,left,1,0.6006208379776581,25,m,1,9,2018_Sep_19_1007,MP_PerceptionTuring2,59.965848364039125,
148,resources/videos_generated\model(vcgpdm)-dataset(walking)-mode(ELBO)-parts(1)-dyn(25)-lvm(28)_final(4).mov,resources/videos_natural\training(23).mov,False,True,left,0,147,147,147,2018-09-19 10:24:15.791843,2018-09-19 10:24:19.746069,0:00:03.954226,4,left,1,0.2170086837204508,25,m,1,9,2018_Sep_19_1007,MP_PerceptionTuring2,59.965848364039125,
149,resources/videos_generated\model(vcgpdm)-dataset(walking)-mode(ELBO)-parts(1)-dyn(26)-lvm(23)_final(1).mov,resources/videos_natural\training(1).mov,False,False,right,0,148,148,148,2018-09-19 10:24:21.080146,2018-09-19 10:24:25.017371,0:00:03.937225,4,right,1,0.20051374086688156,25,m,1,9,2018_Sep_19_1007,MP_PerceptionTuring2,59.965848364039125,
150,resources/videos_generated\model(vcgpdm)-dataset(walking)-mode(ELBO)-parts(1)-dyn(23)-lvm(24)_final(7).mov,resources/videos_natural\training(13).mov,False,True,left,0,149,149,149,2018-09-19 10:24:26.334446,2018-09-19 10:24:30.238669,0:00:03.904223,4,left,1,0.25079396726414416,25,m,1,9,2018_Sep_19_1007,MP_PerceptionTuring2,59.965848364039125,
151,resources/videos_generated\model(vcgpdm)-dataset(walking)-mode(ELBO)-parts(2)-dyn(24)-lvm(21)_final(1).mov,resources/videos_natural\training(31).mov,True,False,right,0,150,150,150,2018-09-19 10:24:31.605748,2018-09-19 10:24:35.525972,0:00:03.920224,4,left,0,0.23381684647210932,25,m,1,9,2018_Sep_19_1007,MP_PerceptionTuring2,59.965848364039125,
152,resources/videos_generated\model(dmp)-dataset(walking)-npsi(80)_final(4).mov,resources/videos_natural\training(2).mov,True,True,left,0,151,151,151,2018-09-19 10:24:36.877049,2018-09-19 10:24:40.797273,0:00:03.920224,4,left,1,0.23379124676830543,25,m,1,9,2018_Sep_19_1007,MP_PerceptionTuring2,59.965848364039125,
153,resources/videos_generated\model(vcgpdm)-dataset(walking)-mode(ELBO)-parts(2)-dyn(22)-lvm(21)_final(5).mov,resources/videos_natural\training(35).mov,True,False,right,0,152,152,152,2018-09-19 10:24:42.148351,2018-09-19 10:24:46.068575,0:00:03.920224,4,left,0,0.33381229875976715,25,m,1,9,2018_Sep_19_1007,MP_PerceptionTuring2,59.965848364039125,
154,resources/videos_generated\model(vcgpdm)-dataset(walking)-mode(ELBO)-parts(1)-dyn(25)-lvm(28)_final(0).mov,resources/videos_natural\training(20).mov,False,True,left,0,153,153,153,2018-09-19 10:24:47.519658,2018-09-19 10:24:51.439882,0:00:03.920224,4,right,0,0.30032698350350984,25,m,1,9,2018_Sep_19_1007,MP_PerceptionTuring2,59.965848364039125,
155,resources/videos_generated\model(vcgpdm)-dataset(walking)-mode(ELBO)-parts(2)-dyn(25)-lvm(18)_final(1).mov,resources/videos_natural\training(33).mov,True,True,left,0,154,154,154,2018-09-19 10:24:52.857963,2018-09-19 10:24:56.778187,0:00:03.920224,4,left,1,0.3505418553640993,25,m,1,9,2018_Sep_19_1007,MP_PerceptionTuring2,59.965848364039125,
156,resources/videos_generated\model(vcgpdm)-dataset(walking)-mode(ELBO)-parts(1)-dyn(26)-lvm(23)_final(7).mov,resources/videos_natural\training(34).mov,True,False,right,0,155,155,155,2018-09-19 10:24:58.245271,2018-09-19 10:25:02.199498,0:00:03.954227,4,left,0,0.31711797939442476,25,m,1,9,2018_Sep_19_1007,MP_PerceptionTuring2,59.965848364039125,
157,resources/videos_generated\model(vcgpdm)-dataset(walking)-mode(ELBO)-parts(1)-dyn(28)-lvm(27)_final(5).mov,resources/videos_natural\training(22).mov,True,False,right,0,156,156,156,2018-09-19 10:25:03.633580,2018-09-19 10:25:07.620808,0:00:03.987228,4,left,0,0.03374854044068343,25,m,1,9,2018_Sep_19_1007,MP_PerceptionTuring2,59.965848364039125,
158,resources/videos_generated\model(vcgpdm)-dataset(walking)-mode(ELBO)-parts(1)-dyn(25)-lvm(28)_final(6).mov,resources/videos_natural\training(14).mov,False,False,right,0,157,157,157,2018-09-19 10:25:08.771873,2018-09-19 10:25:12.691098,0:00:03.919225,4,right,1,0.23375390131968743,25,m,1,9,2018_Sep_19_1007,MP_PerceptionTuring2,59.965848364039125,
159,resources/videos_generated\model(vcgpdm)-dataset(walking)-mode(ELBO)-parts(1)-dyn(23)-lvm(26)_final(9).mov,resources/videos_natural\training(15).mov,True,False,right,0,158,158,158,2018-09-19 10:25:14.042175,2018-09-19 10:25:17.979400,0:00:03.937225,4,right,1,0.31731223596580094,25,m,1,9,2018_Sep_19_1007,MP_PerceptionTuring2,59.965848364039125,
160,resources/videos_generated\model(vcgpdm)-dataset(walking)-mode(ELBO)-parts(1)-dyn(27)-lvm(24)_final(3).mov,resources/videos_natural\training(39).mov,False,True,left,0,159,159,159,2018-09-19 10:25:19.414482,2018-09-19 10:25:23.367708,0:00:03.953226,4,left,1,0.2169255599783355,25,m,1,9,2018_Sep_19_1007,MP_PerceptionTuring2,59.965848364039125,
161,resources/videos_generated\model(vcgpdm)-dataset(walking)-mode(ELBO)-parts(2)-dyn(22)-lvm(19)_final(9).mov,resources/videos_natural\training(23).mov,True,False,right,0,160,160,160,2018-09-19 10:25:24.701785,2018-09-19 10:25:28.622009,0:00:03.920224,4,right,1,0.4172727521881825,25,m,1,9,2018_Sep_19_1007,MP_PerceptionTuring2,59.965848364039125,
162,resources/videos_generated\model(vcgpdm)-dataset(walking)-mode(ELBO)-parts(1)-dyn(25)-lvm(22)_final(2).mov,resources/videos_natural\training(34).mov,True,True,left,0,161,161,161,2018-09-19 10:25:30.156097,2018-09-19 10:25:34.076321,0:00:03.920224,4,left,1,0.7174624008130195,25,m,1,9,2018_Sep_19_1007,MP_PerceptionTuring2,59.965848364039125,
163,resources/videos_generated\model(vcgpdm)-dataset(walking)-mode(ELBO)-parts(2)-dyn(28)-lvm(19)_final(5).mov,resources/videos_natural\training(46).mov,False,True,left,0,162,162,162,2018-09-19 10:25:35.911426,2018-09-19 10:25:39.898654,0:00:03.987228,4,left,1,0.23382437579584803,25,m,1,9,2018_Sep_19_1007,MP_PerceptionTuring2,59.965848364039125,
164,resources/videos_generated\model(vcgpdm)-dataset(walking)-mode(ELBO)-parts(2)-dyn(25)-lvm(22)_final(5).mov,resources/videos_natural\training(33).mov,True,True,left,0,163,163,163,2018-09-19 10:25:41.249731,2018-09-19 10:25:45.152954,0:00:03.903223,4,left,1,0.40054861669705133,25,m,1,9,2018_Sep_19_1007,MP_PerceptionTuring2,59.965848364039125,
165,resources/videos_generated\model(vcgpdm)-dataset(walking)-mode(ELBO)-parts(1)-dyn(26)-lvm(27)_final(5).mov,resources/videos_natural\training(48).mov,False,True,left,0,164,164,164,2018-09-19 10:25:46.671041,2018-09-19 10:25:50.624267,0:00:03.953226,4,left,1,0.5173790361322972,25,m,1,9,2018_Sep_19_1007,MP_PerceptionTuring2,59.965848364039125,
166,resources/videos_generated\model(vcgpdm)-dataset(walking)-mode(ELBO)-parts(2)-dyn(28)-lvm(17)_final(9).mov,resources/videos_natural\training(29).mov,False,False,right,0,165,165,165,2018-09-19 10:25:52.259361,2018-09-19 10:25:56.162584,0:00:03.903223,4,right,1,0.36721840552399954,25,m,1,9,2018_Sep_19_1007,MP_PerceptionTuring2,59.965848364039125,
167,resources/videos_generated\model(dmp)-dataset(walking)-npsi(70)_final(8).mov,resources/videos_natural\training(22).mov,True,False,right,0,166,166,166,2018-09-19 10:25:57.646669,2018-09-19 10:26:01.716902,0:00:04.070233,4,right,1,0.46733673638755135,25,m,1,9,2018_Sep_19_1007,MP_PerceptionTuring2,59.965848364039125,
168,resources/videos_generated\model(vcgpdm)-dataset(walking)-mode(ELBO)-parts(2)-dyn(23)-lvm(18)_final(7).mov,resources/videos_natural\training(37).mov,False,False,right,0,167,167,167,2018-09-19 10:26:03.301992,2018-09-19 10:26:07.189215,0:00:03.887223,4,right,1,0.4007311275217944,25,m,1,9,2018_Sep_19_1007,MP_PerceptionTuring2,59.965848364039125,
169,resources/videos_generated\model(vcgpdm)-dataset(walking)-mode(ELBO)-parts(1)-dyn(24)-lvm(27)_final(0).mov,resources/videos_natural\training(6).mov,True,False,right,0,168,168,168,2018-09-19 10:26:08.706302,2018-09-19 10:26:12.810536,0:00:04.104234,4,left,0,0.2839365476720559,25,m,1,9,2018_Sep_19_1007,MP_PerceptionTuring2,59.965848364039125,
170,resources/videos_generated\model(dmp)-dataset(walking)-npsi(90)_final(2).mov,resources/videos_natural\training(44).mov,False,False,right,0,169,169,169,2018-09-19 10:26:14.211616,2018-09-19 10:26:18.131841,0:00:03.920225,4,left,0,0.8009635125927161,25,m,1,9,2018_Sep_19_1007,MP_PerceptionTuring2,59.965848364039125,
171,resources/videos_generated\model(tmp)-dataset(walking)-numprim(15)_final(2).mov,resources/videos_natural\training(19).mov,False,False,right,0,170,170,170,2018-09-19 10:26:20.049950,2018-09-19 10:26:23.986175,0:00:03.936225,4,left,0,0.3840310858695375,25,m,1,9,2018_Sep_19_1007,MP_PerceptionTuring2,59.965848364039125,
172,resources/videos_generated\model(vcgpdm)-dataset(walking)-mode(ELBO)-parts(1)-dyn(23)-lvm(24)_final(3).mov,resources/videos_natural\training(45).mov,False,False,right,0,171,171,171,2018-09-19 10:26:25.487261,2018-09-19 10:26:29.407486,0:00:03.920225,4,right,1,0.3839392281115579,25,m,1,9,2018_Sep_19_1007,MP_PerceptionTuring2,59.965848364039125,
173,resources/videos_generated\model(vcgpdm)-dataset(walking)-mode(ELBO)-parts(2)-dyn(26)-lvm(23)_final(3).mov,resources/videos_natural\training(37).mov,False,False,right,0,172,172,172,2018-09-19 10:26:30.909571,2018-09-19 10:26:34.828796,0:00:03.919225,4,right,1,0.25034823125588446,25,m,1,9,2018_Sep_19_1007,MP_PerceptionTuring2,59.965848364039125,
174,resources/videos_generated\model(vcgpdm)-dataset(walking)-mode(ELBO)-parts(2)-dyn(23)-lvm(18)_final(1).mov,resources/videos_natural\training(21).mov,True,True,left,0,173,173,173,2018-09-19 10:26:36.196874,2018-09-19 10:26:40.101097,0:00:03.904223,4,right,0,0.5342191232184632,25,m,1,9,2018_Sep_19_1007,MP_PerceptionTuring2,59.965848364039125,
175,resources/videos_generated\model(dmp)-dataset(walking)-npsi(60)_final(2).mov,resources/videos_natural\training(17).mov,True,True,left,0,174,174,174,2018-09-19 10:26:41.752192,2018-09-19 10:26:45.655415,0:00:03.903223,4,left,1,0.48374072500246257,25,m,1,9,2018_Sep_19_1007,MP_PerceptionTuring2,59.965848364039125,
176,resources/videos_generated\model(vcgpdm)-dataset(walking)-mode(ELBO)-parts(1)-dyn(22)-lvm(22)_final(8).mov,resources/videos_natural\training(20).mov,True,True,left,0,175,175,175,2018-09-19 10:26:47.256506,2018-09-19 10:26:51.193732,0:00:03.937226,4,left,1,0.28378114241513686,25,m,1,9,2018_Sep_19_1007,MP_PerceptionTuring2,59.965848364039125,
177,resources/videos_generated\model(vcgpdm)-dataset(walking)-mode(ELBO)-parts(2)-dyn(28)-lvm(17)_final(5).mov,resources/videos_natural\training(21).mov,True,True,left,0,176,176,176,2018-09-19 10:26:52.594812,2018-09-19 10:26:56.498035,0:00:03.903223,4,left,1,0.3171694799730176,25,m,1,9,2018_Sep_19_1007,MP_PerceptionTuring2,59.965848364039125,
178,resources/videos_generated\model(vcgpdm)-dataset(walking)-mode(ELBO)-parts(2)-dyn(22)-lvm(17)_final(3).mov,resources/videos_natural\training(13).mov,False,True,left,0,177,177,177,2018-09-19 10:26:57.932117,2018-09-19 10:27:01.835340,0:00:03.903223,4,left,1,0.2672759596798642,25,m,1,9,2018_Sep_19_1007,MP_PerceptionTuring2,59.965848364039125,
179,resources/videos_generated\model(vcgpdm)-dataset(walking)-mode(ELBO)-parts(1)-dyn(24)-lvm(25)_final(6).mov,resources/videos_natural\training(29).mov,False,True,left,0,178,178,178,2018-09-19 10:27:03.220420,2018-09-19 10:27:07.106642,0:00:03.886222,4,right,0,0.3505448670939586,25,m,1,9,2018_Sep_19_1007,MP_PerceptionTuring2,59.965848364039125,
180,resources/videos_generated\model(vcgpdm)-dataset(walking)-mode(ELBO)-parts(2)-dyn(22)-lvm(17)_final(5).mov,resources/videos_natural\training(47).mov,True,False,right,0,179,179,179,2018-09-19 10:27:08.574726,2018-09-19 10:27:12.527952,0:00:03.953226,4,left,0,0.283734460604137,25,m,1,9,2018_Sep_19_1007,MP_PerceptionTuring2,59.965848364039125,
181,resources/videos_generated\model(vcgpdm)-dataset(walking)-mode(ELBO)-parts(2)-dyn(25)-lvm(18)_final(3).mov,resources/videos_natural\training(12).mov,False,False,right,0,180,180,180,2018-09-19 10:27:45.606844,2018-09-19 10:27:49.510067,0:00:03.903223,5,right,1,0.4674891299137016,25,m,1,9,2018_Sep_19_1007,MP_PerceptionTuring2,59.965848364039125,
182,resources/videos_generated\model(vcgpdm)-dataset(walking)-mode(ELBO)-parts(1)-dyn(28)-lvm(24)_final(7).mov,resources/videos_natural\training(29).mov,False,False,right,0,181,181,181,2018-09-19 10:27:51.095158,2018-09-19 10:27:55.015382,0:00:03.920224,5,right,1,0.45068699062267115,25,m,1,9,2018_Sep_19_1007,MP_PerceptionTuring2,59.965848364039125,
183,resources/videos_generated\model(vcgpdm)-dataset(walking)-mode(ELBO)-parts(2)-dyn(26)-lvm(17)_final(5).mov,resources/videos_natural\training(27).mov,False,True,left,0,182,182,182,2018-09-19 10:27:56.583472,2018-09-19 10:28:00.503696,0:00:03.920224,5,right,0,0.33401649404004274,25,m,1,9,2018_Sep_19_1007,MP_PerceptionTuring2,59.965848364039125,
184,resources/videos_generated\model(vcgpdm)-dataset(walking)-mode(ELBO)-parts(1)-dyn(27)-lvm(26)_final(7).mov,resources/videos_natural\training(39).mov,False,False,right,0,183,183,183,2018-09-19 10:28:01.954779,2018-09-19 10:28:05.875003,0:00:03.920224,5,right,1,0.300451669116228,25,m,1,9,2018_Sep_19_1007,MP_PerceptionTuring2,59.965848364039125,
185,resources/videos_generated\model(vcgpdm)-dataset(walking)-mode(ELBO)-parts(1)-dyn(25)-lvm(26)_final(0).mov,resources/videos_natural\training(8).mov,True,True,left,0,184,184,184,2018-09-19 10:28:07.292084,2018-09-19 10:28:11.196308,0:00:03.904224,5,left,1,0.4339938759485449,25,m,1,9,2018_Sep_19_1007,MP_PerceptionTuring2,59.965848364039125,
186,resources/videos_generated\model(vcgpdm)-dataset(walking)-mode(ELBO)-parts(2)-dyn(27)-lvm(18)_final(7).mov,resources/videos_natural\training(41).mov,False,False,right,0,185,185,185,2018-09-19 10:28:12.747396,2018-09-19 10:28:16.717623,0:00:03.970227,5,right,1,0.3672756283895069,25,m,1,9,2018_Sep_19_1007,MP_PerceptionTuring2,59.965848364039125,
187,resources/videos_generated\model(vcgpdm)-dataset(walking)-mode(ELBO)-parts(1)-dyn(27)-lvm(22)_final(7).mov,resources/videos_natural\training(32).mov,False,False,right,0,186,186,186,2018-09-19 10:28:18.202708,2018-09-19 10:28:22.254940,0:00:04.052232,5,left,0,0.43397339618604747,25,m,1,9,2018_Sep_19_1007,MP_PerceptionTuring2,59.965848364039125,
188,resources/videos_generated\model(vcgpdm)-dataset(walking)-mode(ELBO)-parts(2)-dyn(28)-lvm(21)_final(9).mov,resources/videos_natural\training(18).mov,True,False,right,0,187,187,187,2018-09-19 10:28:23.807029,2018-09-19 10:28:27.743254,0:00:03.936225,5,left,0,0.283654649764685,25,m,1,9,2018_Sep_19_1007,MP_PerceptionTuring2,59.965848364039125,
189,resources/videos_generated\model(vcgpdm)-dataset(walking)-mode(ELBO)-parts(2)-dyn(23)-lvm(20)_final(1).mov,resources/videos_natural\training(18).mov,False,False,right,0,188,188,188,2018-09-19 10:28:29.144334,2018-09-19 10:28:33.081559,0:00:03.937225,5,right,1,0.28373837585240835,25,m,1,9,2018_Sep_19_1007,MP_PerceptionTuring2,59.965848364039125,
190,resources/videos_generated\model(vcgpdm)-dataset(walking)-mode(ELBO)-parts(1)-dyn(23)-lvm(24)_final(9).mov,resources/videos_natural\training(5).mov,False,True,left,0,189,189,189,2018-09-19 10:28:34.482639,2018-09-19 10:28:38.435866,0:00:03.953227,5,left,1,0.4506321771405055,25,m,1,9,2018_Sep_19_1007,MP_PerceptionTuring2,59.965848364039125,
191,resources/videos_generated\model(vcgpdm)-dataset(walking)-mode(ELBO)-parts(1)-dyn(22)-lvm(23)_final(2).mov,resources/videos_natural\training(19).mov,True,True,left,0,190,190,190,2018-09-19 10:28:40.003955,2018-09-19 10:28:43.924179,0:00:03.920224,5,left,1,1.3512788256421118,25,m,1,9,2018_Sep_19_1007,MP_PerceptionTuring2,59.965848364039125,
192,resources/videos_generated\model(vcgpdm)-dataset(walking)-mode(ELBO)-parts(1)-dyn(28)-lvm(27)_final(1).mov,resources/videos_natural\training(18).mov,False,True,left,0,191,191,191,2018-09-19 10:28:46.392321,2018-09-19 10:28:50.329546,0:00:03.937225,5,left,1,0.45074451466098253,25,m,1,9,2018_Sep_19_1007,MP_PerceptionTuring2,59.965848364039125,
193,resources/videos_generated\model(vcgpdm)-dataset(walking)-mode(ELBO)-parts(2)-dyn(27)-lvm(20)_final(7).mov,resources/videos_natural\training(30).mov,False,False,right,0,192,192,192,2018-09-19 10:28:51.897636,2018-09-19 10:28:55.850862,0:00:03.953226,5,right,1,0.48407593052615994,25,m,1,9,2018_Sep_19_1007,MP_PerceptionTuring2,59.965848364039125,
194,resources/videos_generated\model(vcgpdm)-dataset(walking)-mode(ELBO)-parts(1)-dyn(26)-lvm(25)_final(5).mov,resources/videos_natural\training(15).mov,False,False,right,0,193,193,193,2018-09-19 10:28:57.452953,2018-09-19 10:29:01.439181,0:00:03.986228,5,right,1,0.3671774459990047,25,m,1,9,2018_Sep_19_1007,MP_PerceptionTuring2,59.965848364039125,
195,resources/videos_generated\model(vcgpdm)-dataset(walking)-mode(ELBO)-parts(2)-dyn(26)-lvm(21)_final(7).mov,resources/videos_natural\training(30).mov,False,True,left,0,194,194,194,2018-09-19 10:29:02.924266,2018-09-19 10:29:06.860491,0:00:03.936225,5,left,1,0.9011173818671523,25,m,1,9,2018_Sep_19_1007,MP_PerceptionTuring2,59.965848364039125,
196,resources/videos_generated\model(vcgpdm)-dataset(walking)-mode(ELBO)-parts(1)-dyn(28)-lvm(27)_final(7).mov,resources/videos_natural\training(33).mov,True,True,left,0,195,195,195,2018-09-19 10:29:08.878607,2018-09-19 10:29:12.799831,0:00:03.921224,5,left,1,0.33410955648923846,25,m,1,9,2018_Sep_19_1007,MP_PerceptionTuring2,59.965848364039125,
197,resources/videos_generated\model(vcgpdm)-dataset(walking)-mode(ELBO)-parts(1)-dyn(23)-lvm(27)_final(2).mov,resources/videos_natural\training(47).mov,False,True,left,0,196,196,196,2018-09-19 10:29:14.249914,2018-09-19 10:29:18.187139,0:00:03.937225,5,left,1,0.3507370154538876,25,m,1,9,2018_Sep_19_1007,MP_PerceptionTuring2,59.965848364039125,
198,resources/videos_generated\model(vcgpdm)-dataset(walking)-mode(ELBO)-parts(2)-dyn(22)-lvm(23)_final(5).mov,resources/videos_natural\training(7).mov,False,True,left,0,197,197,197,2018-09-19 10:29:19.655223,2018-09-19 10:29:23.575447,0:00:03.920224,5,left,1,0.30067965706075483,25,m,1,9,2018_Sep_19_1007,MP_PerceptionTuring2,59.965848364039125,
199,resources/videos_generated\model(tmp)-dataset(walking)-numprim(13)_final(2).mov,resources/videos_natural\training(41).mov,False,True,left,0,198,198,198,2018-09-19 10:29:24.992528,2018-09-19 10:29:28.912753,0:00:03.920225,5,left,1,0.31710924537856044,25,m,1,9,2018_Sep_19_1007,MP_PerceptionTuring2,59.965848364039125,
200,resources/videos_generated\model(vcgpdm)-dataset(walking)-mode(ELBO)-parts(1)-dyn(24)-lvm(25)_final(4).mov,resources/videos_natural\training(10).mov,False,False,right,0,199,199,199,2018-09-19 10:29:30.347835,2018-09-19 10:29:34.268059,0:00:03.920224,5,right,1,0.25041750104173843,25,m,1,9,2018_Sep_19_1007,MP_PerceptionTuring2,59.965848364039125,
201,resources/videos_generated\model(vcgpdm)-dataset(walking)-mode(ELBO)-parts(1)-dyn(22)-lvm(22)_final(2).mov,resources/videos_natural\training(29).mov,False,False,right,0,200,200,200,2018-09-19 10:29:35.635137,2018-09-19 10:29:39.555361,0:00:03.920224,5,right,1,0.3170950902485856,25,m,1,9,2018_Sep_19_1007,MP_PerceptionTuring2,59.965848364039125,
202,resources/videos_generated\model(vcgpdm)-dataset(walking)-mode(ELBO)-parts(2)-dyn(24)-lvm(23)_final(7).mov,resources/videos_natural\training(26).mov,False,True,left,0,201,201,201,2018-09-19 10:29:40.990443,2018-09-19 10:29:44.926669,0:00:03.936226,5,right,0,0.30071489429883513,25,m,1,9,2018_Sep_19_1007,MP_PerceptionTuring2,59.965848364039125,
203,resources/videos_generated\model(vcgpdm)-dataset(walking)-mode(ELBO)-parts(2)-dyn(24)-lvm(17)_final(9).mov,resources/videos_natural\training(16).mov,False,False,right,0,202,202,202,2018-09-19 10:29:46.344750,2018-09-19 10:29:50.297976,0:00:03.953226,5,right,1,0.2843160256252304,25,m,1,9,2018_Sep_19_1007,MP_PerceptionTuring2,59.965848364039125,
204,resources/videos_generated\model(vcgpdm)-dataset(walking)-mode(ELBO)-parts(1)-dyn(23)-lvm(28)_final(8).mov,resources/videos_natural\training(12).mov,True,True,left,0,203,203,203,2018-09-19 10:29:51.699056,2018-09-19 10:29:55.652282,0:00:03.953226,5,left,1,0.2670509834651966,25,m,1,9,2018_Sep_19_1007,MP_PerceptionTuring2,59.965848364039125,
205,resources/videos_generated\model(vcgpdm)-dataset(walking)-mode(ELBO)-parts(1)-dyn(25)-lvm(22)_final(4).mov,resources/videos_natural\training(45).mov,False,False,right,0,204,204,204,2018-09-19 10:29:57.037361,2018-09-19 10:30:01.157597,0:00:04.120236,5,right,1,0.25049158959427587,25,m,1,9,2018_Sep_19_1007,MP_PerceptionTuring2,59.965848364039125,
206,resources/videos_generated\model(vcgpdm)-dataset(walking)-mode(ELBO)-parts(2)-dyn(27)-lvm(22)_final(5).mov,resources/videos_natural\training(11).mov,True,True,left,0,205,205,205,2018-09-19 10:30:02.525675,2018-09-19 10:30:06.445899,0:00:03.920224,5,left,1,0.3509680151291832,25,m,1,9,2018_Sep_19_1007,MP_PerceptionTuring2,59.965848364039125,
207,resources/videos_generated\model(vcgpdm)-dataset(walking)-mode(ELBO)-parts(1)-dyn(25)-lvm(28)_final(2).mov,resources/videos_natural\training(16).mov,True,False,right,0,206,206,206,2018-09-19 10:30:07.912983,2018-09-19 10:30:11.850209,0:00:03.937226,5,right,1,0.2672238567547538,25,m,1,9,2018_Sep_19_1007,MP_PerceptionTuring2,59.965848364039125,
208,resources/videos_generated\model(vcgpdm)-dataset(walking)-mode(ELBO)-parts(1)-dyn(27)-lvm(28)_final(9).mov,resources/videos_natural\training(28).mov,False,False,right,0,207,207,207,2018-09-19 10:30:13.234288,2018-09-19 10:30:17.204515,0:00:03.970227,5,right,1,0.40049440556140325,25,m,1,9,2018_Sep_19_1007,MP_PerceptionTuring2,59.965848364039125,
209,resources/videos_generated\model(vcgpdm)-dataset(walking)-mode(ELBO)-parts(2)-dyn(22)-lvm(19)_final(3).mov,resources/videos_natural\training(28).mov,True,True,left,0,208,208,208,2018-09-19 10:30:18.722602,2018-09-19 10:30:22.625825,0:00:03.903223,5,left,1,0.3005531644093935,25,m,1,9,2018_Sep_19_1007,MP_PerceptionTuring2,59.965848364039125,
210,resources/videos_generated\model(dmp)-dataset(walking)-npsi(100)_final(6).mov,resources/videos_natural\training(36).mov,False,False,right,0,209,209,209,2018-09-19 10:30:24.043906,2018-09-19 10:30:27.997132,0:00:03.953226,5,left,0,0.533911926781002,25,m,1,9,2018_Sep_19_1007,MP_PerceptionTuring2,59.965848364039125,
211,resources/videos_generated\model(vcgpdm)-dataset(walking)-mode(ELBO)-parts(1)-dyn(27)-lvm(24)_final(7).mov,resources/videos_natural\training(44).mov,True,True,left,0,210,210,210,2018-09-19 10:30:29.649227,2018-09-19 10:30:33.702458,0:00:04.053231,5,left,1,0.3839443480519549,25,m,1,9,2018_Sep_19_1007,MP_PerceptionTuring2,59.965848364039125,
212,resources/videos_generated\model(vcgpdm)-dataset(walking)-mode(ELBO)-parts(2)-dyn(22)-lvm(17)_final(1).mov,resources/videos_natural\training(30).mov,False,False,right,0,211,211,211,2018-09-19 10:30:35.203544,2018-09-19 10:30:39.123769,0:00:03.920225,5,right,1,0.2005525921804292,25,m,1,9,2018_Sep_19_1007,MP_PerceptionTuring2,59.965848364039125,
213,resources/videos_generated\model(vcgpdm)-dataset(walking)-mode(ELBO)-parts(2)-dyn(24)-lvm(21)_final(5).mov,resources/videos_natural\training(44).mov,False,False,right,0,212,212,212,2018-09-19 10:30:40.441844,2018-09-19 10:30:44.362068,0:00:03.920224,5,right,1,0.3673665826290744,25,m,1,9,2018_Sep_19_1007,MP_PerceptionTuring2,59.965848364039125,
214,resources/videos_generated\model(tmp)-dataset(walking)-numprim(12)_final(4).mov,resources/videos_natural\training(25).mov,False,True,left,0,213,213,213,2018-09-19 10:30:45.846153,2018-09-19 10:30:49.783378,0:00:03.937225,5,right,0,0.4005600612708804,25,m,1,9,2018_Sep_19_1007,MP_PerceptionTuring2,59.965848364039125,
215,resources/videos_generated\model(vcgpdm)-dataset(walking)-mode(ELBO)-parts(2)-dyn(23)-lvm(22)_final(3).mov,resources/videos_natural\training(0).mov,True,False,right,0,214,214,214,2018-09-19 10:30:51.300465,2018-09-19 10:30:55.254691,0:00:03.954226,5,right,1,0.3171098477241685,25,m,1,9,2018_Sep_19_1007,MP_PerceptionTuring2,59.965848364039125,
216,resources/videos_generated\model(vcgpdm)-dataset(walking)-mode(ELBO)-parts(1)-dyn(26)-lvm(27)_final(9).mov,resources/videos_natural\training(1).mov,True,False,right,0,215,215,215,2018-09-19 10:30:56.688773,2018-09-19 10:31:00.608997,0:00:03.920224,5,right,1,0.36721870669680357,25,m,1,9,2018_Sep_19_1007,MP_PerceptionTuring2,59.965848364039125,
217,resources/videos_generated\model(vcgpdm)-dataset(walking)-mode(ELBO)-parts(2)-dyn(25)-lvm(22)_final(3).mov,resources/videos_natural\training(13).mov,False,False,right,0,216,216,216,2018-09-19 10:31:02.093082,2018-09-19 10:31:06.063309,0:00:03.970227,5,right,1,0.23383973561794846,25,m,1,9,2018_Sep_19_1007,MP_PerceptionTuring2,59.965848364039125,
218,resources/videos_generated\model(vcgpdm)-dataset(walking)-mode(ELBO)-parts(1)-dyn(28)-lvm(25)_final(1).mov,resources/videos_natural\training(45).mov,False,True,left,0,217,217,217,2018-09-19 10:31:07.414387,2018-09-19 10:31:11.301609,0:00:03.887222,5,right,0,0.21697736173064186,25,m,1,9,2018_Sep_19_1007,MP_PerceptionTuring2,59.965848364039125,
219,resources/videos_generated\model(vcgpdm)-dataset(walking)-mode(ELBO)-parts(2)-dyn(26)-lvm(19)_final(7).mov,resources/videos_natural\training(35).mov,True,True,left,0,218,218,218,2018-09-19 10:31:12.635685,2018-09-19 10:31:16.572910,0:00:03.937225,5,left,1,0.25056176289763243,25,m,1,9,2018_Sep_19_1007,MP_PerceptionTuring2,59.965848364039125,
220,resources/videos_generated\model(vcgpdm)-dataset(walking)-mode(ELBO)-parts(2)-dyn(25)-lvm(20)_final(5).mov,resources/videos_natural\training(24).mov,True,True,left,0,219,219,219,2018-09-19 10:31:17.940989,2018-09-19 10:31:21.860213,0:00:03.919224,5,left,1,0.33391710695650545,25,m,1,9,2018_Sep_19_1007,MP_PerceptionTuring2,59.965848364039125,
221,resources/videos_generated\model(vcgpdm)-dataset(walking)-mode(ELBO)-parts(2)-dyn(27)-lvm(22)_final(9).mov,resources/videos_natural\training(42).mov,True,True,left,0,220,220,220,2018-09-19 10:31:23.312296,2018-09-19 10:31:27.231520,0:00:03.919224,5,left,1,0.08363995252329914,25,m,1,9,2018_Sep_19_1007,MP_PerceptionTuring2,59.965848364039125,
222,resources/videos_generated\model(vcgpdm)-dataset(walking)-mode(ELBO)-parts(2)-dyn(28)-lvm(23)_final(9).mov,resources/videos_natural\training(38).mov,True,False,right,0,221,221,221,2018-09-19 10:31:28.432589,2018-09-19 10:31:32.419817,0:00:03.987228,5,right,1,0.5340411299894186,25,m,1,9,2018_Sep_19_1007,MP_PerceptionTuring2,59.965848364039125,
223,resources/videos_generated\model(vcgpdm)-dataset(walking)-mode(ELBO)-parts(2)-dyn(28)-lvm(21)_final(1).mov,resources/videos_natural\training(42).mov,False,True,left,0,222,222,222,2018-09-19 10:31:34.070911,2018-09-19 10:31:38.024137,0:00:03.953226,5,right,0,0.21702524823467684,25,m,1,9,2018_Sep_19_1007,MP_PerceptionTuring2,59.965848364039125,
224,resources/videos_generated\model(vcgpdm)-dataset(walking)-mode(ELBO)-parts(2)-dyn(24)-lvm(17)_final(5).mov,resources/videos_natural\training(43).mov,False,True,left,0,223,223,223,2018-09-19 10:31:39.359214,2018-09-19 10:31:43.412446,0:00:04.053232,5,left,1,0.3505885371760087,25,m,1,9,2018_Sep_19_1007,MP_PerceptionTuring2,59.965848364039125,
225,resources/videos_generated\model(tmp)-dataset(walking)-numprim(15)_final(0).mov,resources/videos_natural\training(10).mov,True,False,right,0,224,224,224,2018-09-19 10:31:44.880530,2018-09-19 10:31:48.933761,0:00:04.053231,5,left,0,0.3171655647247462,25,m,1,9,2018_Sep_19_1007,MP_PerceptionTuring2,59.965848364039125,
226,resources/videos_generated\model(vcgpdm)-dataset(walking)-mode(ELBO)-parts(1)-dyn(25)-lvm(24)_final(1).mov,resources/videos_natural\training(35).mov,False,False,right,0,225,225,225,2018-09-19 10:32:21.478623,2018-09-19 10:32:25.415848,0:00:03.937225,6,right,1,0.5007479630921807,25,m,1,9,2018_Sep_19_1007,MP_PerceptionTuring2,59.965848364039125,
227,resources/videos_generated\model(vcgpdm)-dataset(walking)-mode(ELBO)-parts(2)-dyn(25)-lvm(20)_final(7).mov,resources/videos_natural\training(10).mov,False,True,left,0,226,226,226,2018-09-19 10:32:27.033941,2018-09-19 10:32:31.054171,0:00:04.020230,6,right,0,0.33390837294064113,25,m,1,9,2018_Sep_19_1007,MP_PerceptionTuring2,59.965848364039125,
228,resources/videos_generated\model(vcgpdm)-dataset(walking)-mode(ELBO)-parts(1)-dyn(22)-lvm(23)_final(6)_fail.mov,resources/videos_natural\training(12).mov,True,True,left,0,227,227,227,2018-09-19 10:32:32.505254,2018-09-19 10:32:36.458480,0:00:03.953226,6,left,1,0.25047622977217543,25,m,1,9,2018_Sep_19_1007,MP_PerceptionTuring2,59.965848364039125,
229,resources/videos_generated\model(dmp)-dataset(walking)-npsi(60)_final(8).mov,resources/videos_natural\training(27).mov,False,True,left,0,228,228,228,2018-09-19 10:32:37.826558,2018-09-19 10:32:41.762783,0:00:03.936225,6,left,1,0.40036821408375545,25,m,1,9,2018_Sep_19_1007,MP_PerceptionTuring2,59.965848364039125,
230,resources/videos_generated\model(vcgpdm)-dataset(walking)-mode(ELBO)-parts(1)-dyn(25)-lvm(22)_final(6).mov,resources/videos_natural\training(45).mov,False,False,right,0,229,229,229,2018-09-19 10:32:43.280870,2018-09-19 10:32:47.368104,0:00:04.087234,6,right,1,0.3505319166561094,25,m,1,9,2018_Sep_19_1007,MP_PerceptionTuring2,59.965848364039125,
231,resources/videos_generated\model(tmp)-dataset(walking)-numprim(13)_final(0).mov,resources/videos_natural\training(20).mov,True,False,right,0,230,230,230,2018-09-19 10:32:48.836188,2018-09-19 10:32:52.806415,0:00:03.970227,6,left,0,0.21705928078063152,25,m,1,9,2018_Sep_19_1007,MP_PerceptionTuring2,59.965848364039125,
232,resources/videos_generated\model(vcgpdm)-dataset(walking)-mode(ELBO)-parts(1)-dyn(25)-lvm(25)_final(2).mov,resources/videos_natural\training(12).mov,False,True,left,0,231,231,231,2018-09-19 10:32:54.140491,2018-09-19 10:32:58.076716,0:00:03.936225,6,right,0,0.6341218142306388,25,m,1,9,2018_Sep_19_1007,MP_PerceptionTuring2,59.965848364039125,
233,resources/videos_generated\model(vcgpdm)-dataset(walking)-mode(ELBO)-parts(1)-dyn(23)-lvm(22)_final(9)_fail.mov,resources/videos_natural\training(40).mov,False,False,right,0,232,232,232,2018-09-19 10:32:59.828816,2018-09-19 10:33:03.849046,0:00:04.020230,6,right,1,0.3838037002715282,25,m,1,9,2018_Sep_19_1007,MP_PerceptionTuring2,59.965848364039125,
234,resources/videos_generated\model(vcgpdm)-dataset(walking)-mode(ELBO)-parts(2)-dyn(24)-lvm(23)_final(1).mov,resources/videos_natural\training(45).mov,True,True,left,0,233,233,233,2018-09-19 10:33:05.350132,2018-09-19 10:33:09.353361,0:00:04.003229,6,left,1,0.4005034407500716,25,m,1,9,2018_Sep_19_1007,MP_PerceptionTuring2,59.965848364039125,
235,resources/videos_generated\model(vcgpdm)-dataset(walking)-mode(ELBO)-parts(2)-dyn(22)-lvm(23)_final(7).mov,resources/videos_natural\training(40).mov,True,True,left,0,234,234,234,2018-09-19 10:33:10.871448,2018-09-19 10:33:14.924680,0:00:04.053232,6,left,1,0.45065265690300293,25,m,1,9,2018_Sep_19_1007,MP_PerceptionTuring2,59.965848364039125,
236,resources/videos_generated\model(vcgpdm)-dataset(walking)-mode(ELBO)-parts(1)-dyn(24)-lvm(25)_final(2).mov,resources/videos_natural\training(35).mov,True,True,left,0,235,235,235,2018-09-19 10:33:16.492770,2018-09-19 10:33:20.613005,0:00:04.120235,6,left,1,0.23378703034632053,25,m,1,9,2018_Sep_19_1007,MP_PerceptionTuring2,59.965848364039125,
237,resources/videos_generated\model(vcgpdm)-dataset(walking)-mode(ELBO)-parts(1)-dyn(22)-lvm(22)_final(6).mov,resources/videos_natural\training(4).mov,True,True,left,0,236,236,236,2018-09-19 10:33:21.964082,2018-09-19 10:33:25.884307,0:00:03.920225,6,left,1,0.4840169006229189,25,m,1,9,2018_Sep_19_1007,MP_PerceptionTuring2,59.965848364039125,
238,resources/videos_generated\model(vcgpdm)-dataset(walking)-mode(ELBO)-parts(2)-dyn(25)-lvm(20)_final(1).mov,resources/videos_natural\training(5).mov,True,True,left,0,237,237,237,2018-09-19 10:33:27.485398,2018-09-19 10:33:31.422623,0:00:03.937225,6,left,1,0.5007654311248189,25,m,1,9,2018_Sep_19_1007,MP_PerceptionTuring2,59.965848364039125,
239,resources/videos_generated\model(vcgpdm)-dataset(walking)-mode(ELBO)-parts(2)-dyn(27)-lvm(20)_final(9).mov,resources/videos_natural\training(14).mov,True,True,left,0,238,238,238,2018-09-19 10:33:33.040716,2018-09-19 10:33:36.926938,0:00:03.886222,6,left,1,0.31711376297243987,25,m,1,9,2018_Sep_19_1007,MP_PerceptionTuring2,59.965848364039125,
240,resources/videos_generated\model(tmp)-dataset(walking)-numprim(15)_final(8).mov,resources/videos_natural\training(44).mov,True,False,right,0,239,239,239,2018-09-19 10:33:38.362020,2018-09-19 10:33:42.449254,0:00:04.087234,6,left,0,0.25040575529510534,25,m,1,9,2018_Sep_19_1007,MP_PerceptionTuring2,59.965848364039125,
241,resources/videos_generated\model(vcgpdm)-dataset(walking)-mode(ELBO)-parts(2)-dyn(24)-lvm(17)_final(7).mov,resources/videos_natural\training(43).mov,False,True,left,0,240,240,240,2018-09-19 10:33:43.816332,2018-09-19 10:33:47.853563,0:00:04.037231,6,left,1,0.30051069901946903,25,m,1,9,2018_Sep_19_1007,MP_PerceptionTuring2,59.965848364039125,
242,resources/videos_generated\model(vcgpdm)-dataset(walking)-mode(ELBO)-parts(1)-dyn(27)-lvm(28)_final(1).mov,resources/videos_natural\training(29).mov,True,False,right,0,241,241,241,2018-09-19 10:33:49.271644,2018-09-19 10:33:53.391880,0:00:04.120236,6,left,0,0.8509639492931456,25,m,1,9,2018_Sep_19_1007,MP_PerceptionTuring2,59.965848364039125,
243,resources/videos_generated\model(vcgpdm)-dataset(walking)-mode(ELBO)-parts(2)-dyn(26)-lvm(23)_final(5).mov,resources/videos_natural\training(9).mov,False,True,left,0,242,242,242,2018-09-19 10:33:55.359993,2018-09-19 10:33:59.280217,0:00:03.920224,6,left,1,0.3005564773120568,25,m,1,9,2018_Sep_19_1007,MP_PerceptionTuring2,59.965848364039125,
244,resources/videos_generated\model(vcgpdm)-dataset(walking)-mode(ELBO)-parts(1)-dyn(22)-lvm(28)_final(7).mov,resources/videos_natural\training(27).mov,False,False,right,0,243,243,243,2018-09-19 10:34:00.698298,2018-09-19 10:34:04.617522,0:00:03.919224,6,right,1,0.250589470811974,25,m,1,9,2018_Sep_19_1007,MP_PerceptionTuring2,59.965848364039125,
245,resources/videos_generated\model(vcgpdm)-dataset(walking)-mode(ELBO)-parts(1)-dyn(27)-lvm(22)_final(5).mov,resources/videos_natural\training(42).mov,False,False,right,0,244,244,244,2018-09-19 10:34:05.985600,2018-09-19 10:34:09.905825,0:00:03.920225,6,right,1,0.6507230711449665,25,m,1,9,2018_Sep_19_1007,MP_PerceptionTuring2,59.965848364039125,
246,resources/videos_generated\model(vcgpdm)-dataset(walking)-mode(ELBO)-parts(1)-dyn(27)-lvm(26)_final(1).mov,resources/videos_natural\training(6).mov,True,False,right,0,245,245,245,2018-09-19 10:34:11.673926,2018-09-19 10:34:15.661154,0:00:03.987228,6,right,1,0.41737394630854396,25,m,1,9,2018_Sep_19_1007,MP_PerceptionTuring2,59.965848364039125,
247,resources/videos_generated\model(vcgpdm)-dataset(walking)-mode(ELBO)-parts(2)-dyn(28)-lvm(17)_final(3).mov,resources/videos_natural\training(40).mov,False,False,right,0,246,246,246,2018-09-19 10:34:17.195241,2018-09-19 10:34:21.282475,0:00:04.087234,6,right,1,0.35051113572080794,25,m,1,9,2018_Sep_19_1007,MP_PerceptionTuring2,59.965848364039125,
248,resources/videos_generated\model(vcgpdm)-dataset(walking)-mode(ELBO)-parts(1)-dyn(24)-lvm(23)_final(8).mov,resources/videos_natural\training(4).mov,True,False,right,0,247,247,247,2018-09-19 10:34:22.750559,2018-09-19 10:34:26.653782,0:00:03.903223,6,right,1,0.4338851525035352,25,m,1,9,2018_Sep_19_1007,MP_PerceptionTuring2,59.965848364039125,
249,resources/videos_generated\model(vcgpdm)-dataset(walking)-mode(ELBO)-parts(2)-dyn(22)-lvm(19)_final(7).mov,resources/videos_natural\training(13).mov,True,False,right,0,248,248,248,2018-09-19 10:34:28.204871,2018-09-19 10:34:32.142096,0:00:03.937225,6,right,1,0.25056387110907963,25,m,1,9,2018_Sep_19_1007,MP_PerceptionTuring2,59.965848364039125,
250,resources/videos_generated\model(vcgpdm)-dataset(walking)-mode(ELBO)-parts(1)-dyn(23)-lvm(28)_final(2).mov,resources/videos_natural\training(32).mov,False,True,left,0,249,249,249,2018-09-19 10:34:33.509175,2018-09-19 10:34:37.529405,0:00:04.020230,6,right,0,0.2505623652432405,25,m,1,9,2018_Sep_19_1007,MP_PerceptionTuring2,59.965848364039125,
251,resources/videos_generated\model(dmp)-dataset(walking)-npsi(90)_final(8).mov,resources/videos_natural\training(31).mov,False,False,right,0,250,250,250,2018-09-19 10:34:38.897483,2018-09-19 10:34:42.817707,0:00:03.920224,6,right,1,0.3005149154414539,25,m,1,9,2018_Sep_19_1007,MP_PerceptionTuring2,59.965848364039125,
252,resources/videos_generated\model(vcgpdm)-dataset(walking)-mode(ELBO)-parts(1)-dyn(22)-lvm(27)_final(6)_fail.mov,resources/videos_natural\training(38).mov,True,False,right,0,251,251,251,2018-09-19 10:34:44.235788,2018-09-19 10:34:48.156012,0:00:03.920224,6,right,1,0.3672638826437833,25,m,1,9,2018_Sep_19_1007,MP_PerceptionTuring2,59.965848364039125,
253,resources/videos_generated\model(vcgpdm)-dataset(walking)-mode(ELBO)-parts(1)-dyn(23)-lvm(22)_final(3)_fail.mov,resources/videos_natural\training(11).mov,True,True,left,0,252,252,252,2018-09-19 10:34:49.640097,2018-09-19 10:34:53.693329,0:00:04.053232,6,left,1,0.31727278230573575,25,m,1,9,2018_Sep_19_1007,MP_PerceptionTuring2,59.965848364039125,
254,resources/videos_generated\model(vcgpdm)-dataset(walking)-mode(ELBO)-parts(1)-dyn(24)-lvm(25)_final(8).mov,resources/videos_natural\training(28).mov,True,False,right,0,253,253,253,2018-09-19 10:34:55.128411,2018-09-19 10:34:59.081637,0:00:03.953226,6,right,1,0.2197355038670139,25,m,1,9,2018_Sep_19_1007,MP_PerceptionTuring2,59.965848364039125,
255,resources/videos_generated\model(dmp)-dataset(walking)-npsi(70)_final(6).mov,resources/videos_natural\training(22).mov,False,False,right,0,254,254,254,2018-09-19 10:35:00.415714,2018-09-19 10:35:04.335938,0:00:03.920224,6,right,1,0.23377769398484816,25,m,1,9,2018_Sep_19_1007,MP_PerceptionTuring2,59.965848364039125,
256,resources/videos_generated\model(vcgpdm)-dataset(walking)-mode(ELBO)-parts(2)-dyn(26)-lvm(17)_final(9).mov,resources/videos_natural\training(7).mov,True,True,left,0,255,255,255,2018-09-19 10:35:05.687015,2018-09-19 10:35:09.591238,0:00:03.904223,6,left,1,0.2500687427327648,25,m,1,9,2018_Sep_19_1007,MP_PerceptionTuring2,59.965848364039125,
257,resources/videos_generated\model(vcgpdm)-dataset(walking)-mode(ELBO)-parts(2)-dyn(22)-lvm(21)_final(7).mov,resources/videos_natural\training(43).mov,True,True,left,0,256,256,256,2018-09-19 10:35:10.958317,2018-09-19 10:35:14.911543,0:00:03.953226,6,left,1,0.2839260066184579,25,m,1,9,2018_Sep_19_1007,MP_PerceptionTuring2,59.965848364039125,
258,resources/videos_generated\model(vcgpdm)-dataset(walking)-mode(ELBO)-parts(2)-dyn(25)-lvm(20)_final(3).mov,resources/videos_natural\training(20).mov,True,False,right,0,257,257,257,2018-09-19 10:35:16.313623,2018-09-19 10:35:20.416858,0:00:04.103235,6,right,1,0.31731012775435374,25,m,1,9,2018_Sep_19_1007,MP_PerceptionTuring2,59.965848364039125,
259,resources/videos_generated\model(vcgpdm)-dataset(walking)-mode(ELBO)-parts(2)-dyn(26)-lvm(21)_final(1).mov,resources/videos_natural\training(8).mov,False,True,left,0,258,258,258,2018-09-19 10:35:21.850940,2018-09-19 10:35:25.788165,0:00:03.937225,6,left,1,0.2839645567592015,25,m,1,9,2018_Sep_19_1007,MP_PerceptionTuring2,59.965848364039125,
260,resources/videos_generated\model(vcgpdm)-dataset(walking)-mode(ELBO)-parts(1)-dyn(23)-lvm(22)_final(5)_fail.mov,resources/videos_natural\training(31).mov,True,True,left,0,259,259,259,2018-09-19 10:35:27.189245,2018-09-19 10:35:31.176473,0:00:03.987228,6,left,1,0.3839850064041457,25,m,1,9,2018_Sep_19_1007,MP_PerceptionTuring2,59.965848364039125,
261,resources/videos_generated\model(vcgpdm)-dataset(walking)-mode(ELBO)-parts(2)-dyn(23)-lvm(18)_final(9).mov,resources/videos_natural\training(47).mov,False,False,right,0,260,260,260,2018-09-19 10:35:32.677559,2018-09-19 10:35:36.730791,0:00:04.053232,6,right,1,0.2838778189416189,25,m,1,9,2018_Sep_19_1007,MP_PerceptionTuring2,59.965848364039125,
262,resources/videos_generated\model(vcgpdm)-dataset(walking)-mode(ELBO)-parts(2)-dyn(22)-lvm(21)_final(3).mov,resources/videos_natural\training(8).mov,True,False,right,0,261,261,261,2018-09-19 10:35:38.131871,2018-09-19 10:35:42.069096,0:00:03.937225,6,left,0,0.4840187076606526,25,m,1,9,2018_Sep_19_1007,MP_PerceptionTuring2,59.965848364039125,
263,resources/videos_generated\model(vcgpdm)-dataset(walking)-mode(ELBO)-parts(2)-dyn(23)-lvm(18)_final(3).mov,resources/videos_natural\training(23).mov,True,True,left,0,262,262,262,2018-09-19 10:35:43.670188,2018-09-19 10:35:47.573411,0:00:03.903223,6,left,1,0.0672784292983124,25,m,1,9,2018_Sep_19_1007,MP_PerceptionTuring2,59.965848364039125,
264,resources/videos_generated\model(vcgpdm)-dataset(walking)-mode(ELBO)-parts(1)-dyn(25)-lvm(24)_final(9).mov,resources/videos_natural\training(43).mov,True,False,right,0,263,263,263,2018-09-19 10:35:48.757479,2018-09-19 10:35:52.711705,0:00:03.954226,6,right,1,0.26725427522615064,25,m,1,9,2018_Sep_19_1007,MP_PerceptionTuring2,59.965848364039125,
265,resources/videos_generated\model(dmp)-dataset(walking)-npsi(50)_final(2).mov,resources/videos_natural\training(2).mov,True,True,left,0,264,264,264,2018-09-19 10:35:54.095784,2018-09-19 10:35:58.049010,0:00:03.953226,6,right,0,0.3003658348170575,25,m,1,9,2018_Sep_19_1007,MP_PerceptionTuring2,59.965848364039125,
266,resources/videos_generated\model(vcgpdm)-dataset(walking)-mode(ELBO)-parts(2)-dyn(23)-lvm(22)_final(1).mov,resources/videos_natural\training(33).mov,True,False,right,0,265,265,265,2018-09-19 10:35:59.467091,2018-09-19 10:36:03.387315,0:00:03.920224,6,right,1,0.21709451801871182,25,m,1,9,2018_Sep_19_1007,MP_PerceptionTuring2,59.965848364039125,
267,resources/videos_generated\model(vcgpdm)-dataset(walking)-mode(ELBO)-parts(2)-dyn(27)-lvm(18)_final(1).mov,resources/videos_natural\training(46).mov,False,True,left,0,266,266,266,2018-09-19 10:36:04.721392,2018-09-19 10:36:08.658617,0:00:03.937225,6,left,1,0.31723754506674595,25,m,1,9,2018_Sep_19_1007,MP_PerceptionTuring2,59.965848364039125,
268,resources/videos_generated\model(vcgpdm)-dataset(walking)-mode(ELBO)-parts(1)-dyn(25)-lvm(23)_final(7).mov,resources/videos_natural\training(17).mov,True,True,left,0,267,267,267,2018-09-19 10:36:10.092699,2018-09-19 10:36:14.079927,0:00:03.987228,6,left,1,0.2504888790372206,25,m,1,9,2018_Sep_19_1007,MP_PerceptionTuring2,59.965848364039125,
269,resources/videos_generated\model(vcgpdm)-dataset(walking)-mode(ELBO)-parts(1)-dyn(24)-lvm(27)_final(8).mov,resources/videos_natural\training(24).mov,True,False,right,0,268,268,268,2018-09-19 10:36:15.448005,2018-09-19 10:36:19.384230,0:00:03.936225,6,right,1,0.35064274831256625,25,m,1,9,2018_Sep_19_1007,MP_PerceptionTuring2,59.965848364039125,
270,resources/videos_generated\model(dmp)-dataset(walking)-npsi(70)_final(0).mov,resources/videos_natural\training(4).mov,True,True,left,0,269,269,269,2018-09-19 10:36:20.841314,2018-09-19 10:36:24.789539,0:00:03.948225,6,right,0,0.25031630692046747,25,m,1,9,2018_Sep_19_1007,MP_PerceptionTuring2,59.965848364039125,
271,resources/videos_generated\model(vcgpdm)-dataset(walking)-mode(ELBO)-parts(2)-dyn(26)-lvm(19)_final(1).mov,resources/videos_natural\training(19).mov,False,False,right,0,270,270,270,2018-09-19 10:36:57.984438,2018-09-19 10:37:01.887661,0:00:03.903223,7,right,1,0.18377454672736349,25,m,1,9,2018_Sep_19_1007,MP_PerceptionTuring2,59.965848364039125,
272,resources/videos_generated\model(vcgpdm)-dataset(walking)-mode(ELBO)-parts(2)-dyn(28)-lvm(17)_final(7).mov,resources/videos_natural\training(29).mov,True,True,left,0,271,271,271,2018-09-19 10:37:03.188736,2018-09-19 10:37:07.108960,0:00:03.920224,7,left,1,0.4005805410324683,25,m,1,9,2018_Sep_19_1007,MP_PerceptionTuring2,59.965848364039125,
273,resources/videos_generated\model(vcgpdm)-dataset(walking)-mode(ELBO)-parts(1)-dyn(22)-lvm(25)_final(2).mov,resources/videos_natural\training(2).mov,False,True,left,0,272,272,272,2018-09-19 10:37:08.627047,2018-09-19 10:37:12.597274,0:00:03.970227,7,left,1,0.45055236630105355,25,m,1,9,2018_Sep_19_1007,MP_PerceptionTuring2,59.965848364039125,
274,resources/videos_generated\model(vcgpdm)-dataset(walking)-mode(ELBO)-parts(2)-dyn(24)-lvm(21)_final(7).mov,resources/videos_natural\training(47).mov,False,True,left,0,273,273,273,2018-09-19 10:37:14.165364,2018-09-19 10:37:18.118590,0:00:03.953226,7,left,1,0.35046114100623527,25,m,1,9,2018_Sep_19_1007,MP_PerceptionTuring2,59.965848364039125,
275,resources/videos_generated\model(vcgpdm)-dataset(walking)-mode(ELBO)-parts(2)-dyn(22)-lvm(19)_final(1).mov,resources/videos_natural\training(36).mov,True,False,right,0,274,274,274,2018-09-19 10:37:19.586674,2018-09-19 10:37:23.522899,0:00:03.936225,7,left,0,0.2658224988863367,25,m,1,9,2018_Sep_19_1007,MP_PerceptionTuring2,59.965848364039125,
276,resources/videos_generated\model(vcgpdm)-dataset(walking)-mode(ELBO)-parts(2)-dyn(27)-lvm(18)_final(9).mov,resources/videos_natural\training(6).mov,True,False,right,0,275,275,275,2018-09-19 10:37:24.907978,2018-09-19 10:37:28.828202,0:00:03.920224,7,left,0,0.317077622215038,25,m,1,9,2018_Sep_19_1007,MP_PerceptionTuring2,59.965848364039125,
277,resources/videos_generated\model(vcgpdm)-dataset(walking)-mode(ELBO)-parts(1)-dyn(22)-lvm(25)_final(4).mov,resources/videos_natural\training(7).mov,True,True,left,0,276,276,276,2018-09-19 10:37:30.262284,2018-09-19 10:37:34.182509,0:00:03.920225,7,left,1,0.2838007186592222,25,m,1,9,2018_Sep_19_1007,MP_PerceptionTuring2,59.965848364039125,
278,resources/videos_generated\model(vcgpdm)-dataset(walking)-mode(ELBO)-parts(1)-dyn(26)-lvm(27)_final(7).mov,resources/videos_natural\training(3).mov,True,False,right,0,277,277,277,2018-09-19 10:37:35.583589,2018-09-19 10:37:39.536815,0:00:03.953226,7,left,0,0.3172264016666304,25,m,1,9,2018_Sep_19_1007,MP_PerceptionTuring2,59.965848364039125,
279,resources/videos_generated\model(dmp)-dataset(walking)-npsi(80)_final(0).mov,resources/videos_natural\training(40).mov,False,True,left,0,278,278,278,2018-09-19 10:37:40.971897,2018-09-19 10:37:44.958125,0:00:03.986228,7,left,1,0.4673454704034157,25,m,1,9,2018_Sep_19_1007,MP_PerceptionTuring2,59.965848364039125,
280,resources/videos_generated\model(vcgpdm)-dataset(walking)-mode(ELBO)-parts(2)-dyn(27)-lvm(20)_final(5).mov,resources/videos_natural\training(37).mov,True,False,right,0,279,279,279,2018-09-19 10:37:46.543216,2018-09-19 10:37:50.446439,0:00:03.903223,7,right,1,0.2503328714346935,25,m,1,9,2018_Sep_19_1007,MP_PerceptionTuring2,59.965848364039125,
281,resources/videos_generated\model(vcgpdm)-dataset(walking)-mode(ELBO)-parts(2)-dyn(24)-lvm(17)_final(3).mov,resources/videos_natural\training(11).mov,True,True,left,0,280,280,280,2018-09-19 10:37:51.814517,2018-09-19 10:37:55.717740,0:00:03.903223,7,left,1,0.2339180405924708,25,m,1,9,2018_Sep_19_1007,MP_PerceptionTuring2,59.965848364039125,
282,resources/videos_generated\model(vcgpdm)-dataset(walking)-mode(ELBO)-parts(2)-dyn(24)-lvm(23)_final(9).mov,resources/videos_natural\training(6).mov,False,True,left,0,281,281,281,2018-09-19 10:37:57.068818,2018-09-19 10:38:01.122049,0:00:04.053231,7,right,0,0.25036961453770346,25,m,1,9,2018_Sep_19_1007,MP_PerceptionTuring2,59.965848364039125,
283,resources/videos_generated\model(vcgpdm)-dataset(walking)-mode(ELBO)-parts(2)-dyn(28)-lvm(19)_final(9).mov,resources/videos_natural\training(6).mov,True,True,left,0,282,282,282,2018-09-19 10:38:02.490128,2018-09-19 10:38:06.393351,0:00:03.903223,7,left,1,0.33398125680105295,25,m,1,9,2018_Sep_19_1007,MP_PerceptionTuring2,59.965848364039125,
284,resources/videos_generated\model(vcgpdm)-dataset(walking)-mode(ELBO)-parts(1)-dyn(24)-lvm(27)_final(6).mov,resources/videos_natural\training(1).mov,True,False,right,0,283,283,283,2018-09-19 10:38:07.844434,2018-09-19 10:38:11.798660,0:00:03.954226,7,left,0,0.21704663151649584,25,m,1,9,2018_Sep_19_1007,MP_PerceptionTuring2,59.965848364039125,
285,resources/videos_generated\model(vcgpdm)-dataset(walking)-mode(ELBO)-parts(2)-dyn(27)-lvm(22)_final(3).mov,resources/videos_natural\training(30).mov,True,True,left,0,284,284,284,2018-09-19 10:38:13.132736,2018-09-19 10:38:17.085962,0:00:03.953226,7,left,1,0.25050333533999947,25,m,1,9,2018_Sep_19_1007,MP_PerceptionTuring2,59.965848364039125,
286,resources/videos_generated\model(dmp)-dataset(walking)-npsi(50)_final(6).mov,resources/videos_natural\training(3).mov,False,True,left,0,285,285,285,2018-09-19 10:38:18.454041,2018-09-19 10:38:22.390266,0:00:03.936225,7,right,0,0.700900296384134,25,m,1,9,2018_Sep_19_1007,MP_PerceptionTuring2,59.965848364039125,
287,resources/videos_generated\model(vcgpdm)-dataset(walking)-mode(ELBO)-parts(1)-dyn(24)-lvm(27)_final(2).mov,resources/videos_natural\training(30).mov,True,True,left,0,286,286,286,2018-09-19 10:38:24.209370,2018-09-19 10:38:28.179597,0:00:03.970227,7,left,1,0.33390415651865624,25,m,1,9,2018_Sep_19_1007,MP_PerceptionTuring2,59.965848364039125,
288,resources/videos_generated\model(vcgpdm)-dataset(walking)-mode(ELBO)-parts(1)-dyn(26)-lvm(25)_final(7).mov,resources/videos_natural\training(5).mov,True,True,left,0,287,287,287,2018-09-19 10:38:29.630680,2018-09-19 10:38:33.700913,0:00:04.070233,7,left,1,0.4506126008964202,25,m,1,9,2018_Sep_19_1007,MP_PerceptionTuring2,59.965848364039125,
289,resources/videos_generated\model(vcgpdm)-dataset(walking)-mode(ELBO)-parts(2)-dyn(23)-lvm(20)_final(7).mov,resources/videos_natural\training(13).mov,False,True,left,0,288,288,288,2018-09-19 10:38:35.268002,2018-09-19 10:38:39.189227,0:00:03.921225,7,left,1,0.43400200761880114,25,m,1,9,2018_Sep_19_1007,MP_PerceptionTuring2,59.965848364039125,
290,resources/videos_generated\model(vcgpdm)-dataset(walking)-mode(ELBO)-parts(1)-dyn(28)-lvm(27)_final(9).mov,resources/videos_natural\training(20).mov,False,True,left,0,289,289,289,2018-09-19 10:38:40.740315,2018-09-19 10:38:44.676541,0:00:03.936226,7,left,1,0.383935011689573,25,m,1,9,2018_Sep_19_1007,MP_PerceptionTuring2,59.965848364039125,
291,resources/videos_generated\model(vcgpdm)-dataset(walking)-mode(ELBO)-parts(2)-dyn(27)-lvm(22)_final(7).mov,resources/videos_natural\training(16).mov,False,False,right,0,290,290,290,2018-09-19 10:38:46.177626,2018-09-19 10:38:50.164854,0:00:03.987228,7,right,1,0.3338737380481689,25,m,1,9,2018_Sep_19_1007,MP_PerceptionTuring2,59.965848364039125,
