n_trial,mov_file_generated,mov_file_natural,mirrored,switch_stim_pos,correct_answer,trials.thisRepN,trials.thisTrialN,trials.thisN,trials.thisIndex,stimulus_onset,stimulus_off,stimulus_length,block,response.keys,response.corr,response.rt,age,gender,condition,participant,date,expName,frameRate,
1,resources/videos_generated\model(vcgpdm)-dataset(walking)-mode(ELBO)-parts(2)-dyn(27)-lvm(20)_final(2).mov,resources/videos_natural\training(17).mov,False,False,right,0,0,0,0,2018-09-19 10:47:40.389182,2018-09-19 10:47:44.710429,0:00:04.321247,1,right,1,0.7842300407392031,25,m,2,9,2018_Sep_19_1047,MP_PerceptionTuring2,59.953613087041276,
2,resources/videos_generated\model(vcgpdm)-dataset(walking)-mode(ELBO)-parts(2)-dyn(26)-lvm(21)_final(0).mov,resources/videos_natural\training(6).mov,True,False,right,0,1,1,1,2018-09-19 10:47:46.611537,2018-09-19 10:47:50.531762,0:00:03.920225,1,left,0,0.45064542875115876,25,m,2,9,2018_Sep_19_1047,MP_PerceptionTuring2,59.953613087041276,
3,resources/videos_generated\model(vcgpdm)-dataset(walking)-mode(ELBO)-parts(2)-dyn(25)-lvm(22)_final(2).mov,resources/videos_natural\training(28).mov,True,False,right,0,2,2,2,2018-09-19 10:47:52.099851,2018-09-19 10:47:56.003075,0:00:03.903224,1,right,1,0.483932271015874,25,m,2,9,2018_Sep_19_1047,MP_PerceptionTuring2,59.953613087041276,
4,resources/videos_generated\model(vcgpdm)-dataset(walking)-mode(ELBO)-parts(1)-dyn(24)-lvm(23)_final(9).mov,resources/videos_natural\training(36).mov,False,True,left,0,3,3,3,2018-09-19 10:47:57.604166,2018-09-19 10:48:01.541391,0:00:03.937225,1,right,0,0.6340889863749908,25,m,2,9,2018_Sep_19_1047,MP_PerceptionTuring2,59.953613087041276,
5,resources/videos_generated\model(vcgpdm)-dataset(walking)-mode(ELBO)-parts(1)-dyn(25)-lvm(26)_final(5).mov,resources/videos_natural\training(25).mov,True,True,left,0,4,4,4,2018-09-19 10:48:03.292492,2018-09-19 10:48:07.179714,0:00:03.887222,1,left,1,0.3006417092656193,25,m,2,9,2018_Sep_19_1047,MP_PerceptionTuring2,59.953613087041276,
6,resources/videos_generated\model(vcgpdm)-dataset(walking)-mode(ELBO)-parts(2)-dyn(23)-lvm(18)_final(8).mov,resources/videos_natural\training(16).mov,False,False,right,0,5,5,5,2018-09-19 10:48:08.596795,2018-09-19 10:48:12.501018,0:00:03.904223,1,right,1,0.3505813090241645,25,m,2,9,2018_Sep_19_1047,MP_PerceptionTuring2,59.953613087041276,
7,resources/videos_generated\model(vcgpdm)-dataset(walking)-mode(ELBO)-parts(1)-dyn(25)-lvm(26)_final(3)_fail.mov,resources/videos_natural\training(11).mov,True,False,right,0,6,6,6,2018-09-19 10:48:13.968102,2018-09-19 10:48:17.888326,0:00:03.920224,1,right,1,0.267183499575367,25,m,2,9,2018_Sep_19_1047,MP_PerceptionTuring2,59.953613087041276,
8,resources/videos_generated\model(tmp)-dataset(walking)-numprim(15)_final(7).mov,resources/videos_natural\training(18).mov,True,False,right,0,7,7,7,2018-09-19 10:48:19.273406,2018-09-19 10:48:23.176629,0:00:03.903223,1,left,0,0.33389903657825926,25,m,2,9,2018_Sep_19_1047,MP_PerceptionTuring2,59.953613087041276,
9,resources/videos_generated\model(vcgpdm)-dataset(walking)-mode(ELBO)-parts(1)-dyn(23)-lvm(26)_final(0).mov,resources/videos_natural\training(36).mov,False,True,left,0,8,8,8,2018-09-19 10:48:24.627712,2018-09-19 10:48:28.547936,0:00:03.920224,1,right,0,0.35048041607660707,25,m,2,9,2018_Sep_19_1047,MP_PerceptionTuring2,59.953613087041276,
10,resources/videos_generated\model(vcgpdm)-dataset(walking)-mode(ELBO)-parts(1)-dyn(25)-lvm(26)_final(7).mov,resources/videos_natural\training(48).mov,False,True,left,0,9,9,9,2018-09-19 10:48:30.016020,2018-09-19 10:48:33.936244,0:00:03.920224,1,right,0,0.38376153605440777,25,m,2,9,2018_Sep_19_1047,MP_PerceptionTuring2,59.953613087041276,
11,resources/videos_generated\model(vcgpdm)-dataset(walking)-mode(ELBO)-parts(2)-dyn(28)-lvm(23)_final(2).mov,resources/videos_natural\training(23).mov,True,False,right,0,10,10,10,2018-09-19 10:48:35.437330,2018-09-19 10:48:39.340553,0:00:03.903223,1,left,0,0.3171827315845803,25,m,2,9,2018_Sep_19_1047,MP_PerceptionTuring2,59.953613087041276,
12,resources/videos_generated\model(tmp)-dataset(walking)-numprim(11)_final(9).mov,resources/videos_natural\training(48).mov,False,False,right,0,11,11,11,2018-09-19 10:48:40.774635,2018-09-19 10:48:44.661858,0:00:03.887223,1,right,1,0.3840109072807536,25,m,2,9,2018_Sep_19_1047,MP_PerceptionTuring2,59.953613087041276,
13,resources/videos_generated\model(vcgpdm)-dataset(walking)-mode(ELBO)-parts(1)-dyn(24)-lvm(25)_final(3).mov,resources/videos_natural\training(35).mov,False,True,left,0,12,12,12,2018-09-19 10:48:46.162944,2018-09-19 10:48:50.066167,0:00:03.903223,1,left,1,0.5174326449223372,25,m,2,9,2018_Sep_19_1047,MP_PerceptionTuring2,59.953613087041276,
14,resources/videos_generated\model(vcgpdm)-dataset(walking)-mode(ELBO)-parts(2)-dyn(28)-lvm(19)_final(6).mov,resources/videos_natural\training(35).mov,True,False,right,0,13,13,13,2018-09-19 10:48:51.701260,2018-09-19 10:48:55.637486,0:00:03.936226,1,left,0,0.4840936997325116,25,m,2,9,2018_Sep_19_1047,MP_PerceptionTuring2,59.953613087041276,
15,resources/videos_generated\model(vcgpdm)-dataset(walking)-mode(ELBO)-parts(1)-dyn(22)-lvm(27)_final(3)_fail.mov,resources/videos_natural\training(8).mov,False,False,right,0,14,14,14,2018-09-19 10:48:57.239577,2018-09-19 10:49:01.159801,0:00:03.920224,1,right,1,0.4673373387331594,25,m,2,9,2018_Sep_19_1047,MP_PerceptionTuring2,59.953613087041276,
16,resources/videos_generated\model(tmp)-dataset(walking)-numprim(13)_final(9).mov,resources/videos_natural\training(2).mov,False,True,left,0,15,15,15,2018-09-19 10:49:02.743892,2018-09-19 10:49:06.697118,0:00:03.953226,1,right,0,0.700841266480893,25,m,2,9,2018_Sep_19_1047,MP_PerceptionTuring2,59.953613087041276,
17,resources/videos_generated\model(vcgpdm)-dataset(walking)-mode(ELBO)-parts(1)-dyn(26)-lvm(27)_final(6).mov,resources/videos_natural\training(45).mov,False,False,right,0,16,16,16,2018-09-19 10:49:08.515222,2018-09-19 10:49:12.469448,0:00:03.954226,1,right,1,0.40051337945897103,25,m,2,9,2018_Sep_19_1047,MP_PerceptionTuring2,59.953613087041276,
18,resources/videos_generated\model(vcgpdm)-dataset(walking)-mode(ELBO)-parts(1)-dyn(27)-lvm(24)_final(2).mov,resources/videos_natural\training(3).mov,False,False,right,0,17,17,17,2018-09-19 10:49:13.986535,2018-09-19 10:49:17.890758,0:00:03.904223,1,right,1,0.567340621519179,25,m,2,9,2018_Sep_19_1047,MP_PerceptionTuring2,59.953613087041276,
19,resources/videos_generated\model(vcgpdm)-dataset(walking)-mode(ELBO)-parts(1)-dyn(27)-lvm(26)_final(6).mov,resources/videos_natural\training(26).mov,False,True,left,0,18,18,18,2018-09-19 10:49:19.574855,2018-09-19 10:49:23.462077,0:00:03.887222,1,left,1,0.40052301699415693,25,m,2,9,2018_Sep_19_1047,MP_PerceptionTuring2,59.953613087041276,
20,resources/videos_generated\model(tmp)-dataset(walking)-numprim(13)_final(3).mov,resources/videos_natural\training(27).mov,False,True,left,0,19,19,19,2018-09-19 10:49:24.980164,2018-09-19 10:49:28.900388,0:00:03.920224,1,right,0,0.46732408712250617,25,m,2,9,2018_Sep_19_1047,MP_PerceptionTuring2,59.953613087041276,
21,resources/videos_generated\model(vcgpdm)-dataset(walking)-mode(ELBO)-parts(2)-dyn(27)-lvm(22)_final(2).mov,resources/videos_natural\training(22).mov,True,True,left,0,20,20,20,2018-09-19 10:49:30.484479,2018-09-19 10:49:34.404703,0:00:03.920224,1,left,1,0.550671901856731,25,m,2,9,2018_Sep_19_1047,MP_PerceptionTuring2,59.953613087041276,
22,resources/videos_generated\model(vcgpdm)-dataset(walking)-mode(ELBO)-parts(1)-dyn(23)-lvm(24)_final(2).mov,resources/videos_natural\training(23).mov,True,False,right,0,21,21,21,2018-09-19 10:49:36.072798,2018-09-19 10:49:39.993023,0:00:03.920225,1,right,1,0.3338397055013047,25,m,2,9,2018_Sep_19_1047,MP_PerceptionTuring2,59.953613087041276,
23,resources/videos_generated\model(vcgpdm)-dataset(walking)-mode(ELBO)-parts(2)-dyn(24)-lvm(19)_final(2).mov,resources/videos_natural\training(40).mov,True,True,left,0,22,22,22,2018-09-19 10:49:41.444105,2018-09-19 10:49:45.330328,0:00:03.886223,1,right,0,0.3339080717669276,25,m,2,9,2018_Sep_19_1047,MP_PerceptionTuring2,59.953613087041276,
24,resources/videos_generated\model(vcgpdm)-dataset(walking)-mode(ELBO)-parts(1)-dyn(26)-lvm(27)_final(0).mov,resources/videos_natural\training(16).mov,False,False,right,0,23,23,23,2018-09-19 10:49:46.782411,2018-09-19 10:49:50.685634,0:00:03.903223,1,right,1,0.3670277630290002,25,m,2,9,2018_Sep_19_1047,MP_PerceptionTuring2,59.953613087041276,
25,resources/videos_generated\model(vcgpdm)-dataset(walking)-mode(ELBO)-parts(2)-dyn(22)-lvm(21)_final(8).mov,resources/videos_natural\training(8).mov,True,False,right,0,24,24,24,2018-09-19 10:49:52.169719,2018-09-19 10:49:56.089943,0:00:03.920224,1,left,0,0.33394391135152546,25,m,2,9,2018_Sep_19_1047,MP_PerceptionTuring2,59.953613087041276,
26,resources/videos_generated\model(vcgpdm)-dataset(walking)-mode(ELBO)-parts(2)-dyn(27)-lvm(20)_final(6).mov,resources/videos_natural\training(10).mov,True,False,right,0,25,25,25,2018-09-19 10:49:57.541026,2018-09-19 10:50:01.444249,0:00:03.903223,1,left,0,0.3338842791017669,25,m,2,9,2018_Sep_19_1047,MP_PerceptionTuring2,59.953613087041276,
27,resources/videos_generated\model(vcgpdm)-dataset(walking)-mode(ELBO)-parts(2)-dyn(24)-lvm(21)_final(8).mov,resources/videos_natural\training(18).mov,True,True,left,0,26,26,26,2018-09-19 10:50:02.896332,2018-09-19 10:50:06.799556,0:00:03.903224,1,left,1,0.3005637054629915,25,m,2,9,2018_Sep_19_1047,MP_PerceptionTuring2,59.953613087041276,
28,resources/videos_generated\model(vcgpdm)-dataset(walking)-mode(ELBO)-parts(1)-dyn(26)-lvm(23)_final(6)_fail.mov,resources/videos_natural\training(1).mov,False,True,left,0,27,27,27,2018-09-19 10:50:08.217637,2018-09-19 10:50:12.153862,0:00:03.936225,1,left,1,0.41726040409594134,25,m,2,9,2018_Sep_19_1047,MP_PerceptionTuring2,59.953613087041276,
29,resources/videos_generated\model(vcgpdm)-dataset(walking)-mode(ELBO)-parts(1)-dyn(24)-lvm(27)_final(9).mov,resources/videos_natural\training(37).mov,True,True,left,0,28,28,28,2018-09-19 10:50:13.688950,2018-09-19 10:50:17.608174,0:00:03.919224,1,left,1,0.317072201101837,25,m,2,9,2018_Sep_19_1047,MP_PerceptionTuring2,59.953613087041276,
30,resources/videos_generated\model(vcgpdm)-dataset(walking)-mode(ELBO)-parts(2)-dyn(28)-lvm(21)_final(0).mov,resources/videos_natural\training(37).mov,False,False,right,0,29,29,29,2018-09-19 10:50:19.043256,2018-09-19 10:50:22.946479,0:00:03.903223,1,right,1,0.35039789468009985,25,m,2,9,2018_Sep_19_1047,MP_PerceptionTuring2,59.953613087041276,
31,resources/videos_generated\model(vcgpdm)-dataset(walking)-mode(ELBO)-parts(2)-dyn(24)-lvm(23)_final(0).mov,resources/videos_natural\training(35).mov,False,True,left,0,30,30,30,2018-09-19 10:50:24.414563,2018-09-19 10:50:28.284785,0:00:03.870222,1,left,1,0.4674246788972596,25,m,2,9,2018_Sep_19_1047,MP_PerceptionTuring2,59.953613087041276,
32,resources/videos_generated\model(vcgpdm)-dataset(walking)-mode(ELBO)-parts(2)-dyn(26)-lvm(19)_final(8).mov,resources/videos_natural\training(27).mov,False,False,right,0,31,31,31,2018-09-19 10:50:29.868875,2018-09-19 10:50:33.823101,0:00:03.954226,1,left,0,0.45065687332498783,25,m,2,9,2018_Sep_19_1047,MP_PerceptionTuring2,59.953613087041276,
33,resources/videos_generated\model(vcgpdm)-dataset(walking)-mode(ELBO)-parts(1)-dyn(22)-lvm(25)_final(7).mov,resources/videos_natural\training(44).mov,True,False,right,0,32,32,32,2018-09-19 10:50:35.390191,2018-09-19 10:50:39.310415,0:00:03.920224,1,right,1,0.500756697108045,25,m,2,9,2018_Sep_19_1047,MP_PerceptionTuring2,59.953613087041276,
34,resources/videos_generated\model(vcgpdm)-dataset(walking)-mode(ELBO)-parts(2)-dyn(22)-lvm(19)_final(2).mov,resources/videos_natural\training(5).mov,False,True,left,0,33,33,33,2018-09-19 10:50:40.928508,2018-09-19 10:50:44.815730,0:00:03.887222,1,left,1,0.45060145749630465,25,m,2,9,2018_Sep_19_1047,MP_PerceptionTuring2,59.953613087041276,
35,resources/videos_generated\model(vcgpdm)-dataset(walking)-mode(ELBO)-parts(1)-dyn(23)-lvm(22)_final(0).mov,resources/videos_natural\training(29).mov,True,True,left,0,34,34,34,2018-09-19 10:50:46.383820,2018-09-19 10:50:50.254041,0:00:03.870221,1,left,1,0.2671717538296434,25,m,2,9,2018_Sep_19_1047,MP_PerceptionTuring2,59.953613087041276,
36,resources/videos_generated\model(vcgpdm)-dataset(walking)-mode(ELBO)-parts(1)-dyn(22)-lvm(27)_final(7)_hip-corrected.mov,resources/videos_natural\training(19).mov,False,False,right,0,35,35,35,2018-09-19 10:50:51.638120,2018-09-19 10:50:55.558345,0:00:03.920225,1,left,0,0.533970655511439,25,m,2,9,2018_Sep_19_1047,MP_PerceptionTuring2,59.953613087041276,
37,resources/videos_generated\model(dmp)-dataset(walking)-npsi(100)_final(3).mov,resources/videos_natural\training(32).mov,False,False,right,0,36,36,36,2018-09-19 10:50:57.209439,2018-09-19 10:51:01.129663,0:00:03.920224,1,right,1,0.3339312620864803,25,m,2,9,2018_Sep_19_1047,MP_PerceptionTuring2,59.953613087041276,
38,resources/videos_generated\model(vcgpdm)-dataset(walking)-mode(ELBO)-parts(1)-dyn(28)-lvm(25)_final(4).mov,resources/videos_natural\training(37).mov,False,False,right,0,37,37,37,2018-09-19 10:51:02.580746,2018-09-19 10:51:06.467969,0:00:03.887223,1,right,1,0.7842517251938261,25,m,2,9,2018_Sep_19_1047,MP_PerceptionTuring2,59.953613087041276,
39,resources/videos_generated\model(vcgpdm)-dataset(walking)-mode(ELBO)-parts(1)-dyn(25)-lvm(24)_final(0).mov,resources/videos_natural\training(0).mov,False,True,left,0,38,38,38,2018-09-19 10:51:08.369077,2018-09-19 10:51:12.289302,0:00:03.920225,1,right,0,0.5173118745578904,25,m,2,9,2018_Sep_19_1047,MP_PerceptionTuring2,59.953613087041276,
40,resources/videos_generated\model(tmp)-dataset(walking)-numprim(12)_final(9).mov,resources/videos_natural\training(17).mov,False,True,left,0,39,39,39,2018-09-19 10:51:13.924395,2018-09-19 10:51:17.843619,0:00:03.919224,1,left,1,0.3505728761811042,25,m,2,9,2018_Sep_19_1047,MP_PerceptionTuring2,59.953613087041276,
41,resources/videos_generated\model(vcgpdm)-dataset(walking)-mode(ELBO)-parts(1)-dyn(27)-lvm(24)_final(4).mov,resources/videos_natural\training(42).mov,True,True,left,0,40,40,40,2018-09-19 10:51:19.311703,2018-09-19 10:51:23.215927,0:00:03.904224,1,left,1,0.41728720849096135,25,m,2,9,2018_Sep_19_1047,MP_PerceptionTuring2,59.953613087041276,
42,resources/videos_generated\model(vcgpdm)-dataset(walking)-mode(ELBO)-parts(2)-dyn(28)-lvm(19)_final(4).mov,resources/videos_natural\training(19).mov,True,True,left,0,41,41,41,2018-09-19 10:51:24.750014,2018-09-19 10:51:28.653238,0:00:03.903224,1,left,1,0.2670317083948248,25,m,2,9,2018_Sep_19_1047,MP_PerceptionTuring2,59.953613087041276,
43,resources/videos_generated\model(vcgpdm)-dataset(walking)-mode(ELBO)-parts(2)-dyn(26)-lvm(19)_final(4).mov,resources/videos_natural\training(34).mov,False,True,left,0,42,42,42,2018-09-19 10:51:30.038317,2018-09-19 10:51:33.958541,0:00:03.920224,1,right,0,0.5006666463877991,25,m,2,9,2018_Sep_19_1047,MP_PerceptionTuring2,59.953613087041276,
44,resources/videos_generated\model(vcgpdm)-dataset(walking)-mode(ELBO)-parts(1)-dyn(26)-lvm(23)_final(2).mov,resources/videos_natural\training(19).mov,False,False,right,0,43,43,43,2018-09-19 10:51:35.575633,2018-09-19 10:51:39.479857,0:00:03.904224,1,right,1,0.5174543293760507,25,m,2,9,2018_Sep_19_1047,MP_PerceptionTuring2,59.953613087041276,
45,resources/videos_generated\model(vcgpdm)-dataset(walking)-mode(ELBO)-parts(2)-dyn(28)-lvm(17)_final(4).mov,resources/videos_natural\training(46).mov,False,True,left,0,44,44,44,2018-09-19 10:51:41.113950,2018-09-19 10:51:45.051175,0:00:03.937225,1,left,1,0.4173775603849208,25,m,2,9,2018_Sep_19_1047,MP_PerceptionTuring2,59.953613087041276,
46,resources/videos_generated\model(vcgpdm)-dataset(walking)-mode(ELBO)-parts(1)-dyn(28)-lvm(27)_final(4).mov,resources/videos_natural\training(22).mov,False,True,left,0,45,45,45,2018-09-19 10:52:17.112009,2018-09-19 10:52:21.015232,0:00:03.903223,2,right,0,0.3337981436297923,25,m,2,9,2018_Sep_19_1047,MP_PerceptionTuring2,59.953613087041276,
47,resources/videos_generated\model(vcgpdm)-dataset(walking)-mode(ELBO)-parts(2)-dyn(22)-lvm(17)_final(6).mov,resources/videos_natural\training(21).mov,False,False,right,0,46,46,46,2018-09-19 10:52:22.466315,2018-09-19 10:52:26.403541,0:00:03.937226,2,right,1,0.41740165422288555,25,m,2,9,2018_Sep_19_1047,MP_PerceptionTuring2,59.953613087041276,
48,resources/videos_generated\model(vcgpdm)-dataset(walking)-mode(ELBO)-parts(2)-dyn(24)-lvm(23)_final(2).mov,resources/videos_natural\training(15).mov,True,False,right,0,47,47,47,2018-09-19 10:52:27.937628,2018-09-19 10:52:31.857853,0:00:03.920225,2,left,0,0.333896326021204,25,m,2,9,2018_Sep_19_1047,MP_PerceptionTuring2,59.953613087041276,
49,resources/videos_generated\model(vcgpdm)-dataset(walking)-mode(ELBO)-parts(1)-dyn(23)-lvm(27)_final(7).mov,resources/videos_natural\training(38).mov,False,False,right,0,48,48,48,2018-09-19 10:52:33.308936,2018-09-19 10:52:37.213159,0:00:03.904223,2,right,1,0.5673370074437116,25,m,2,9,2018_Sep_19_1047,MP_PerceptionTuring2,59.953613087041276,
50,resources/videos_generated\model(vcgpdm)-dataset(walking)-mode(ELBO)-parts(2)-dyn(24)-lvm(23)_final(6).mov,resources/videos_natural\training(34).mov,False,False,right,0,49,49,49,2018-09-19 10:52:38.897255,2018-09-19 10:52:42.817479,0:00:03.920224,2,right,1,0.383854899677317,25,m,2,9,2018_Sep_19_1047,MP_PerceptionTuring2,59.953613087041276,
51,resources/videos_generated\model(vcgpdm)-dataset(walking)-mode(ELBO)-parts(2)-dyn(28)-lvm(21)_final(6).mov,resources/videos_natural\training(31).mov,True,True,left,0,50,50,50,2018-09-19 10:52:44.318565,2018-09-19 10:52:48.221789,0:00:03.903224,2,left,1,0.2671618151216535,25,m,2,9,2018_Sep_19_1047,MP_PerceptionTuring2,59.953613087041276,
52,resources/videos_generated\model(vcgpdm)-dataset(walking)-mode(ELBO)-parts(1)-dyn(28)-lvm(25)_final(8).mov,resources/videos_natural\training(19).mov,False,True,left,0,51,51,51,2018-09-19 10:52:49.606868,2018-09-19 10:52:53.493090,0:00:03.886222,2,right,0,0.08361194343524403,25,m,2,9,2018_Sep_19_1047,MP_PerceptionTuring2,59.953613087041276,
53,resources/videos_generated\model(vcgpdm)-dataset(walking)-mode(ELBO)-parts(1)-dyn(25)-lvm(26)_final(1).mov,resources/videos_natural\training(47).mov,False,True,left,0,52,52,52,2018-09-19 10:52:54.694159,2018-09-19 10:52:58.648385,0:00:03.954226,2,left,1,0.38387778882406565,25,m,2,9,2018_Sep_19_1047,MP_PerceptionTuring2,59.953613087041276,
54,resources/videos_generated\model(vcgpdm)-dataset(walking)-mode(ELBO)-parts(1)-dyn(23)-lvm(22)_final(8)_fail.mov,resources/videos_natural\training(41).mov,False,True,left,0,53,53,53,2018-09-19 10:53:00.149471,2018-09-19 10:53:04.052694,0:00:03.903223,2,left,1,0.41727034280393127,25,m,2,9,2018_Sep_19_1047,MP_PerceptionTuring2,59.953613087041276,
55,resources/videos_generated\model(tmp)-dataset(walking)-numprim(12)_final(3).mov,resources/videos_natural\training(39).mov,True,False,right,0,54,54,54,2018-09-19 10:53:05.586782,2018-09-19 10:53:09.491005,0:00:03.904223,2,left,0,0.2839302230395333,25,m,2,9,2018_Sep_19_1047,MP_PerceptionTuring2,59.953613087041276,
56,resources/videos_generated\model(vcgpdm)-dataset(walking)-mode(ELBO)-parts(2)-dyn(28)-lvm(19)_final(0).mov,resources/videos_natural\training(4).mov,True,True,left,0,55,55,55,2018-09-19 10:53:10.892085,2018-09-19 10:53:14.845311,0:00:03.953226,2,left,1,0.2838320406481216,25,m,2,9,2018_Sep_19_1047,MP_PerceptionTuring2,59.953613087041276,
57,resources/videos_generated\model(vcgpdm)-dataset(walking)-mode(ELBO)-parts(2)-dyn(23)-lvm(22)_final(0).mov,resources/videos_natural\training(15).mov,False,False,right,0,56,56,56,2018-09-19 10:53:16.246391,2018-09-19 10:53:20.133614,0:00:03.887223,2,right,1,0.40062782519089524,25,m,2,9,2018_Sep_19_1047,MP_PerceptionTuring2,59.953613087041276,
58,resources/videos_generated\model(vcgpdm)-dataset(walking)-mode(ELBO)-parts(2)-dyn(27)-lvm(22)_final(0).mov,resources/videos_natural\training(4).mov,True,True,left,0,57,57,57,2018-09-19 10:53:21.650701,2018-09-19 10:53:25.637929,0:00:03.987228,2,left,1,0.7508296562618852,25,m,2,9,2018_Sep_19_1047,MP_PerceptionTuring2,59.953613087041276,
59,resources/videos_generated\model(vcgpdm)-dataset(walking)-mode(ELBO)-parts(1)-dyn(24)-lvm(25)_final(9).mov,resources/videos_natural\training(47).mov,True,False,right,0,58,58,58,2018-09-19 10:53:27.506036,2018-09-19 10:53:31.426260,0:00:03.920224,2,left,0,0.40040586070608697,25,m,2,9,2018_Sep_19_1047,MP_PerceptionTuring2,59.953613087041276,
60,resources/videos_generated\model(vcgpdm)-dataset(walking)-mode(ELBO)-parts(2)-dyn(26)-lvm(23)_final(8).mov,resources/videos_natural\training(17).mov,False,False,right,0,59,59,59,2018-09-19 10:53:32.944347,2018-09-19 10:53:36.848570,0:00:03.904223,2,right,1,0.4173667181566998,25,m,2,9,2018_Sep_19_1047,MP_PerceptionTuring2,59.953613087041276,
61,resources/videos_generated\model(vcgpdm)-dataset(walking)-mode(ELBO)-parts(2)-dyn(25)-lvm(20)_final(8).mov,resources/videos_natural\training(11).mov,True,False,right,0,60,60,60,2018-09-19 10:53:38.381658,2018-09-19 10:53:42.251879,0:00:03.870221,2,left,0,0.30047787116473046,25,m,2,9,2018_Sep_19_1047,MP_PerceptionTuring2,59.953613087041276,
62,resources/videos_generated\model(vcgpdm)-dataset(walking)-mode(ELBO)-parts(1)-dyn(25)-lvm(22)_final(7).mov,resources/videos_natural\training(16).mov,True,True,left,0,61,61,61,2018-09-19 10:53:43.669960,2018-09-19 10:53:47.573183,0:00:03.903223,2,left,1,0.2670868230497945,25,m,2,9,2018_Sep_19_1047,MP_PerceptionTuring2,59.953613087041276,
63,resources/videos_generated\model(vcgpdm)-dataset(walking)-mode(ELBO)-parts(2)-dyn(24)-lvm(23)_final(4).mov,resources/videos_natural\training(14).mov,False,False,right,0,62,62,62,2018-09-19 10:53:48.958262,2018-09-19 10:53:52.844485,0:00:03.886223,2,right,1,0.23366505529065762,25,m,2,9,2018_Sep_19_1047,MP_PerceptionTuring2,59.953613087041276,
64,resources/videos_generated\model(vcgpdm)-dataset(walking)-mode(ELBO)-parts(2)-dyn(22)-lvm(21)_final(2).mov,resources/videos_natural\training(24).mov,False,False,right,0,63,63,63,2018-09-19 10:53:54.195562,2018-09-19 10:53:58.082784,0:00:03.887222,2,right,1,0.23390599367394316,25,m,2,9,2018_Sep_19_1047,MP_PerceptionTuring2,59.953613087041276,
65,resources/videos_generated\model(vcgpdm)-dataset(walking)-mode(ELBO)-parts(1)-dyn(28)-lvm(24)_final(0).mov,resources/videos_natural\training(40).mov,False,True,left,0,64,64,64,2018-09-19 10:53:59.433862,2018-09-19 10:54:03.337085,0:00:03.903223,2,right,0,0.26718078901922127,25,m,2,9,2018_Sep_19_1047,MP_PerceptionTuring2,59.953613087041276,
66,resources/videos_generated\model(vcgpdm)-dataset(walking)-mode(ELBO)-parts(2)-dyn(28)-lvm(17)_final(0).mov,resources/videos_natural\training(30).mov,True,True,left,0,65,65,65,2018-09-19 10:54:04.721164,2018-09-19 10:54:08.641388,0:00:03.920224,2,left,1,0.3838621278291612,25,m,2,9,2018_Sep_19_1047,MP_PerceptionTuring2,59.953613087041276,
67,resources/videos_generated\model(vcgpdm)-dataset(walking)-mode(ELBO)-parts(1)-dyn(22)-lvm(27)_final(9)_hip-corrected.mov,resources/videos_natural\training(37).mov,True,True,left,0,66,66,66,2018-09-19 10:54:10.142474,2018-09-19 10:54:14.079699,0:00:03.937225,2,left,1,0.3838579114071763,25,m,2,9,2018_Sep_19_1047,MP_PerceptionTuring2,59.953613087041276,
68,resources/videos_generated\model(vcgpdm)-dataset(walking)-mode(ELBO)-parts(1)-dyn(23)-lvm(28)_final(7).mov,resources/videos_natural\training(33).mov,True,False,right,0,67,67,67,2018-09-19 10:54:15.581785,2018-09-19 10:54:19.484008,0:00:03.902223,2,left,0,0.45072554076432425,25,m,2,9,2018_Sep_19_1047,MP_PerceptionTuring2,59.953613087041276,
69,resources/videos_generated\model(vcgpdm)-dataset(walking)-mode(ELBO)-parts(1)-dyn(24)-lvm(27)_final(3).mov,resources/videos_natural\training(2).mov,False,False,right,0,68,68,68,2018-09-19 10:54:21.052098,2018-09-19 10:54:24.956321,0:00:03.904223,2,right,1,0.3172851303979769,25,m,2,9,2018_Sep_19_1047,MP_PerceptionTuring2,59.953613087041276,
70,resources/videos_generated\model(vcgpdm)-dataset(walking)-mode(ELBO)-parts(1)-dyn(23)-lvm(22)_final(4)_fail.mov,resources/videos_natural\training(22).mov,False,False,right,0,69,69,69,2018-09-19 10:54:26.390403,2018-09-19 10:54:30.293627,0:00:03.903224,2,right,1,0.21709783092228463,25,m,2,9,2018_Sep_19_1047,MP_PerceptionTuring2,59.953613087041276,
71,resources/videos_generated\model(dmp)-dataset(walking)-npsi(80)_final(9).mov,resources/videos_natural\training(1).mov,True,True,left,0,70,70,70,2018-09-19 10:54:31.628703,2018-09-19 10:54:35.564928,0:00:03.936225,2,left,1,0.26733348371908505,25,m,2,9,2018_Sep_19_1047,MP_PerceptionTuring2,59.953613087041276,
72,resources/videos_generated\model(vcgpdm)-dataset(walking)-mode(ELBO)-parts(2)-dyn(23)-lvm(22)_final(6).mov,resources/videos_natural\training(25).mov,False,True,left,0,71,71,71,2018-09-19 10:54:36.949007,2018-09-19 10:54:40.836230,0:00:03.887223,2,left,1,0.25046237581591413,25,m,2,9,2018_Sep_19_1047,MP_PerceptionTuring2,59.953613087041276,
73,resources/videos_generated\model(vcgpdm)-dataset(walking)-mode(ELBO)-parts(1)-dyn(22)-lvm(22)_final(1).mov,resources/videos_natural\training(8).mov,True,True,left,0,72,72,72,2018-09-19 10:54:42.204308,2018-09-19 10:54:46.107531,0:00:03.903223,2,left,1,0.4171938448680521,25,m,2,9,2018_Sep_19_1047,MP_PerceptionTuring2,59.953613087041276,
74,resources/videos_generated\model(vcgpdm)-dataset(walking)-mode(ELBO)-parts(1)-dyn(28)-lvm(27)_final(6).mov,resources/videos_natural\training(5).mov,False,True,left,0,73,73,73,2018-09-19 10:54:47.641619,2018-09-19 10:54:51.561843,0:00:03.920224,2,left,1,0.4173700310593631,25,m,2,9,2018_Sep_19_1047,MP_PerceptionTuring2,59.953613087041276,
75,resources/videos_generated\model(vcgpdm)-dataset(walking)-mode(ELBO)-parts(1)-dyn(25)-lvm(25)_final(7).mov,resources/videos_natural\training(0).mov,False,True,left,0,74,74,74,2018-09-19 10:54:53.096931,2018-09-19 10:54:57.017155,0:00:03.920224,2,left,1,0.40054891786985536,25,m,2,9,2018_Sep_19_1047,MP_PerceptionTuring2,59.953613087041276,
76,resources/videos_generated\model(vcgpdm)-dataset(walking)-mode(ELBO)-parts(2)-dyn(28)-lvm(21)_final(2).mov,resources/videos_natural\training(29).mov,True,False,right,0,75,75,75,2018-09-19 10:54:58.535242,2018-09-19 10:55:02.438465,0:00:03.903223,2,left,0,0.2838136690970714,25,m,2,9,2018_Sep_19_1047,MP_PerceptionTuring2,59.953613087041276,
77,resources/videos_generated\model(vcgpdm)-dataset(walking)-mode(ELBO)-parts(2)-dyn(24)-lvm(21)_final(0).mov,resources/videos_natural\training(9).mov,True,False,right,0,76,76,76,2018-09-19 10:55:03.839545,2018-09-19 10:55:07.742769,0:00:03.903224,2,right,1,0.3342405667353887,25,m,2,9,2018_Sep_19_1047,MP_PerceptionTuring2,59.953613087041276,
78,resources/videos_generated\model(vcgpdm)-dataset(walking)-mode(ELBO)-parts(2)-dyn(25)-lvm(20)_final(4).mov,resources/videos_natural\training(1).mov,True,True,left,0,77,77,77,2018-09-19 10:55:09.193852,2018-09-19 10:55:13.131077,0:00:03.937225,2,left,1,0.33376320756451605,25,m,2,9,2018_Sep_19_1047,MP_PerceptionTuring2,59.953613087041276,
79,resources/videos_generated\model(vcgpdm)-dataset(walking)-mode(ELBO)-parts(1)-dyn(24)-lvm(27)_final(1).mov,resources/videos_natural\training(44).mov,True,True,left,0,78,78,78,2018-09-19 10:55:14.583160,2018-09-19 10:55:18.535386,0:00:03.952226,2,left,1,0.28382390897877485,25,m,2,9,2018_Sep_19_1047,MP_PerceptionTuring2,59.953613087041276,
80,resources/videos_generated\model(vcgpdm)-dataset(walking)-mode(ELBO)-parts(2)-dyn(27)-lvm(20)_final(0).mov,resources/videos_natural\training(1).mov,True,False,right,0,79,79,79,2018-09-19 10:55:19.936466,2018-09-19 10:55:23.839689,0:00:03.903223,2,left,0,0.5507194871870524,25,m,2,9,2018_Sep_19_1047,MP_PerceptionTuring2,59.953613087041276,
81,resources/videos_generated\model(tmp)-dataset(walking)-numprim(15)_final(5).mov,resources/videos_natural\training(46).mov,False,False,right,0,80,80,80,2018-09-19 10:55:25.507785,2018-09-19 10:55:29.412008,0:00:03.904223,2,right,1,0.4006004184493577,25,m,2,9,2018_Sep_19_1047,MP_PerceptionTuring2,59.953613087041276,
82,resources/videos_generated\model(vcgpdm)-dataset(walking)-mode(ELBO)-parts(2)-dyn(22)-lvm(17)_final(8).mov,resources/videos_natural\training(47).mov,False,True,left,0,81,81,81,2018-09-19 10:55:30.929095,2018-09-19 10:55:34.849319,0:00:03.920224,2,right,0,0.36728496475188877,25,m,2,9,2018_Sep_19_1047,MP_PerceptionTuring2,59.953613087041276,
83,resources/videos_generated\model(dmp)-dataset(walking)-npsi(60)_final(5).mov,resources/videos_natural\training(38).mov,False,False,right,0,82,82,82,2018-09-19 10:55:36.334404,2018-09-19 10:55:40.254628,0:00:03.920224,2,right,1,0.36723015126972314,25,m,2,9,2018_Sep_19_1047,MP_PerceptionTuring2,59.953613087041276,
84,resources/videos_generated\model(vcgpdm)-dataset(walking)-mode(ELBO)-parts(2)-dyn(23)-lvm(20)_final(8).mov,resources/videos_natural\training(8).mov,False,False,right,0,83,83,83,2018-09-19 10:55:41.738713,2018-09-19 10:55:45.641936,0:00:03.903223,2,right,1,0.21709391567310377,25,m,2,9,2018_Sep_19_1047,MP_PerceptionTuring2,59.953613087041276,
85,resources/videos_generated\model(vcgpdm)-dataset(walking)-mode(ELBO)-parts(2)-dyn(22)-lvm(23)_final(4).mov,resources/videos_natural\training(10).mov,False,False,right,0,84,84,84,2018-09-19 10:55:46.977013,2018-09-19 10:55:50.913238,0:00:03.936225,2,right,1,0.2504223198084219,25,m,2,9,2018_Sep_19_1047,MP_PerceptionTuring2,59.953613087041276,
86,resources/videos_generated\model(dmp)-dataset(walking)-npsi(60)_final(1).mov,resources/videos_natural\training(15).mov,False,False,right,0,85,85,85,2018-09-19 10:55:52.281316,2018-09-19 10:55:56.201540,0:00:03.920224,2,right,1,0.3339357796803597,25,m,2,9,2018_Sep_19_1047,MP_PerceptionTuring2,59.953613087041276,
87,resources/videos_generated\model(tmp)-dataset(walking)-numprim(11)_final(1).mov,resources/videos_natural\training(6).mov,True,False,right,0,86,86,86,2018-09-19 10:55:57.652623,2018-09-19 10:56:01.539846,0:00:03.887223,2,left,0,0.2171478256359478,25,m,2,9,2018_Sep_19_1047,MP_PerceptionTuring2,59.953613087041276,
88,resources/videos_generated\model(vcgpdm)-dataset(walking)-mode(ELBO)-parts(2)-dyn(23)-lvm(18)_final(0).mov,resources/videos_natural\training(36).mov,True,True,left,0,87,87,87,2018-09-19 10:56:02.873922,2018-09-19 10:56:06.760144,0:00:03.886222,2,left,1,0.3004579937487506,25,m,2,9,2018_Sep_19_1047,MP_PerceptionTuring2,59.953613087041276,
89,resources/videos_generated\model(vcgpdm)-dataset(walking)-mode(ELBO)-parts(1)-dyn(28)-lvm(23)_final(4)_fail.mov,resources/videos_natural\training(35).mov,True,True,left,0,88,88,88,2018-09-19 10:56:08.178225,2018-09-19 10:56:12.081449,0:00:03.903224,2,left,1,0.3005432257004941,25,m,2,9,2018_Sep_19_1047,MP_PerceptionTuring2,59.953613087041276,
90,resources/videos_generated\model(dmp)-dataset(walking)-npsi(80)_final(3).mov,resources/videos_natural\training(28).mov,True,True,left,0,89,89,89,2018-09-19 10:56:13.499530,2018-09-19 10:56:17.402753,0:00:03.903223,2,left,1,0.33386259464714385,25,m,2,9,2018_Sep_19_1047,MP_PerceptionTuring2,59.953613087041276,
91,resources/videos_generated\model(vcgpdm)-dataset(walking)-mode(ELBO)-parts(2)-dyn(22)-lvm(19)_final(8).mov,resources/videos_natural\training(10).mov,True,True,left,0,90,90,90,2018-09-19 10:56:50.665656,2018-09-19 10:56:54.551878,0:00:03.886222,3,left,1,0.30032367059993703,25,m,2,9,2018_Sep_19_1047,MP_PerceptionTuring2,59.953613087041276,
92,resources/videos_generated\model(vcgpdm)-dataset(walking)-mode(ELBO)-parts(1)-dyn(27)-lvm(28)_final(0).mov,resources/videos_natural\training(16).mov,True,False,right,0,91,91,91,2018-09-19 10:56:55.969959,2018-09-19 10:56:59.873182,0:00:03.903223,3,right,1,0.5507188848414444,25,m,2,9,2018_Sep_19_1047,MP_PerceptionTuring2,59.953613087041276,
93,resources/videos_generated\model(vcgpdm)-dataset(walking)-mode(ELBO)-parts(1)-dyn(26)-lvm(23)_final(0).mov,resources/videos_natural\training(40).mov,True,True,left,0,92,92,92,2018-09-19 10:57:01.541278,2018-09-19 10:57:05.461502,0:00:03.920224,3,left,1,0.20046314380670083,25,m,2,9,2018_Sep_19_1047,MP_PerceptionTuring2,59.953613087041276,
94,resources/videos_generated\model(vcgpdm)-dataset(walking)-mode(ELBO)-parts(2)-dyn(24)-lvm(17)_final(6).mov,resources/videos_natural\training(21).mov,True,True,left,0,93,93,93,2018-09-19 10:57:06.778577,2018-09-19 10:57:10.698801,0:00:03.920224,3,left,1,0.1671636522769404,25,m,2,9,2018_Sep_19_1047,MP_PerceptionTuring2,59.953613087041276,
95,resources/videos_generated\model(tmp)-dataset(walking)-numprim(11)_final(3).mov,resources/videos_natural\training(30).mov,False,False,right,0,94,94,94,2018-09-19 10:57:11.983875,2018-09-19 10:57:15.903099,0:00:03.919224,3,right,1,0.3172047172120074,25,m,2,9,2018_Sep_19_1047,MP_PerceptionTuring2,59.953613087041276,
96,resources/videos_generated\model(vcgpdm)-dataset(walking)-mode(ELBO)-parts(2)-dyn(27)-lvm(22)_final(8).mov,resources/videos_natural\training(3).mov,False,False,right,0,95,95,95,2018-09-19 10:57:17.338181,2018-09-19 10:57:21.274406,0:00:03.936225,3,left,0,0.23364216614390898,25,m,2,9,2018_Sep_19_1047,MP_PerceptionTuring2,59.953613087041276,
97,resources/videos_generated\model(vcgpdm)-dataset(walking)-mode(ELBO)-parts(1)-dyn(23)-lvm(28)_final(5).mov,resources/videos_natural\training(7).mov,False,False,right,0,96,96,96,2018-09-19 10:57:22.625484,2018-09-19 10:57:26.529707,0:00:03.904223,3,right,1,0.2504729168695121,25,m,2,9,2018_Sep_19_1047,MP_PerceptionTuring2,59.953613087041276,
98,resources/videos_generated\model(vcgpdm)-dataset(walking)-mode(ELBO)-parts(1)-dyn(27)-lvm(22)_final(8).mov,resources/videos_natural\training(19).mov,True,True,left,0,97,97,97,2018-09-19 10:57:27.896785,2018-09-19 10:57:31.834010,0:00:03.937225,3,left,1,0.4839922044384366,25,m,2,9,2018_Sep_19_1047,MP_PerceptionTuring2,59.953613087041276,
99,resources/videos_generated\model(vcgpdm)-dataset(walking)-mode(ELBO)-parts(1)-dyn(24)-lvm(27)_final(5).mov,resources/videos_natural\training(34).mov,True,True,left,0,98,98,98,2018-09-19 10:57:33.435102,2018-09-19 10:57:37.355326,0:00:03.920224,3,left,1,0.33404119022361556,25,m,2,9,2018_Sep_19_1047,MP_PerceptionTuring2,59.953613087041276,
100,resources/videos_generated\model(vcgpdm)-dataset(walking)-mode(ELBO)-parts(1)-dyn(25)-lvm(24)_final(6).mov,resources/videos_natural\training(9).mov,True,False,right,0,99,99,99,2018-09-19 10:57:38.806409,2018-09-19 10:57:42.693631,0:00:03.887222,3,right,1,0.2839943728840808,25,m,2,9,2018_Sep_19_1047,MP_PerceptionTuring2,59.953613087041276,
101,resources/videos_generated\model(vcgpdm)-dataset(walking)-mode(ELBO)-parts(1)-dyn(24)-lvm(25)_final(1).mov,resources/videos_natural\training(39).mov,False,True,left,0,100,100,100,2018-09-19 10:57:44.094712,2018-09-19 10:57:48.014936,0:00:03.920224,3,right,0,0.3338716298367217,25,m,2,9,2018_Sep_19_1047,MP_PerceptionTuring2,59.953613087041276,
102,resources/videos_generated\model(vcgpdm)-dataset(walking)-mode(ELBO)-parts(1)-dyn(28)-lvm(24)_final(5).mov,resources/videos_natural\training(11).mov,False,True,left,0,101,101,101,2018-09-19 10:57:49.466019,2018-09-19 10:57:53.369242,0:00:03.903223,3,left,1,0.2504792415020347,25,m,2,9,2018_Sep_19_1047,MP_PerceptionTuring2,59.953613087041276,
103,resources/videos_generated\model(tmp)-dataset(walking)-numprim(15)_final(9).mov,resources/videos_natural\training(22).mov,True,False,right,0,102,102,102,2018-09-19 10:57:54.737320,2018-09-19 10:57:58.673545,0:00:03.936225,3,left,0,0.30055677848486084,25,m,2,9,2018_Sep_19_1047,MP_PerceptionTuring2,59.953613087041276,
104,resources/videos_generated\model(vcgpdm)-dataset(walking)-mode(ELBO)-parts(1)-dyn(27)-lvm(22)_final(2).mov,resources/videos_natural\training(47).mov,False,True,left,0,103,103,103,2018-09-19 10:58:00.091627,2018-09-19 10:58:04.011851,0:00:03.920224,3,left,1,0.033646743973804405,25,m,2,9,2018_Sep_19_1047,MP_PerceptionTuring2,59.953613087041276,
105,resources/videos_generated\model(vcgpdm)-dataset(walking)-mode(ELBO)-parts(1)-dyn(22)-lvm(28)_final(2).mov,resources/videos_natural\training(33).mov,True,False,right,0,104,104,104,2018-09-19 10:58:05.162917,2018-09-19 10:58:09.049139,0:00:03.886222,3,right,1,0.2672024734729348,25,m,2,9,2018_Sep_19_1047,MP_PerceptionTuring2,59.953613087041276,
106,resources/videos_generated\model(vcgpdm)-dataset(walking)-mode(ELBO)-parts(1)-dyn(23)-lvm(24)_final(6).mov,resources/videos_natural\training(28).mov,True,True,left,0,105,105,105,2018-09-19 10:58:10.434218,2018-09-19 10:58:14.304439,0:00:03.870221,3,left,1,0.3171697811467311,25,m,2,9,2018_Sep_19_1047,MP_PerceptionTuring2,59.953613087041276,
107,resources/videos_generated\model(vcgpdm)-dataset(walking)-mode(ELBO)-parts(2)-dyn(25)-lvm(22)_final(0).mov,resources/videos_natural\training(39).mov,False,False,right,0,106,106,106,2018-09-19 10:58:15.738521,2018-09-19 10:58:19.625744,0:00:03.887223,3,right,1,0.3338782556420483,25,m,2,9,2018_Sep_19_1047,MP_PerceptionTuring2,59.953613087041276,
108,resources/videos_generated\model(vcgpdm)-dataset(walking)-mode(ELBO)-parts(2)-dyn(22)-lvm(17)_final(2).mov,resources/videos_natural\training(2).mov,True,False,right,0,107,107,107,2018-09-19 10:58:21.076827,2018-09-19 10:58:24.963049,0:00:03.886222,3,right,1,0.25035335119719093,25,m,2,9,2018_Sep_19_1047,MP_PerceptionTuring2,59.953613087041276,
109,resources/videos_generated\model(tmp)-dataset(walking)-numprim(11)_final(7).mov,resources/videos_natural\training(39).mov,True,True,left,0,108,108,108,2018-09-19 10:58:26.331127,2018-09-19 10:58:30.251352,0:00:03.920225,3,left,1,0.31743511454078543,25,m,2,9,2018_Sep_19_1047,MP_PerceptionTuring2,59.953613087041276,
110,resources/videos_generated\model(vcgpdm)-dataset(walking)-mode(ELBO)-parts(1)-dyn(27)-lvm(22)_final(0).mov,resources/videos_natural\training(41).mov,True,True,left,0,109,109,109,2018-09-19 10:58:31.685434,2018-09-19 10:58:35.605658,0:00:03.920224,3,left,1,0.26955252622428816,25,m,2,9,2018_Sep_19_1047,MP_PerceptionTuring2,59.953613087041276,
111,resources/videos_generated\model(vcgpdm)-dataset(walking)-mode(ELBO)-parts(1)-dyn(28)-lvm(23)_final(2).mov,resources/videos_natural\training(36).mov,True,True,left,0,110,110,110,2018-09-19 10:58:36.990737,2018-09-19 10:58:40.909961,0:00:03.919224,3,left,1,0.2504461124735826,25,m,2,9,2018_Sep_19_1047,MP_PerceptionTuring2,59.953613087041276,
112,resources/videos_generated\model(vcgpdm)-dataset(walking)-mode(ELBO)-parts(1)-dyn(23)-lvm(22)_final(2).mov,resources/videos_natural\training(20).mov,True,True,left,0,111,111,111,2018-09-19 10:58:42.278039,2018-09-19 10:58:46.198264,0:00:03.920225,3,left,1,0.4005706023253879,25,m,2,9,2018_Sep_19_1047,MP_PerceptionTuring2,59.953613087041276,
113,resources/videos_generated\model(vcgpdm)-dataset(walking)-mode(ELBO)-parts(1)-dyn(23)-lvm(24)_final(0).mov,resources/videos_natural\training(41).mov,False,False,right,0,112,112,112,2018-09-19 10:58:47.716350,2018-09-19 10:58:51.619574,0:00:03.903224,3,right,1,0.23372438636761217,25,m,2,9,2018_Sep_19_1047,MP_PerceptionTuring2,59.953613087041276,
114,resources/videos_generated\model(dmp)-dataset(walking)-npsi(90)_final(9).mov,resources/videos_natural\training(18).mov,True,True,left,0,113,113,113,2018-09-19 10:58:52.970651,2018-09-19 10:58:56.907876,0:00:03.937225,3,left,1,0.26721994150648243,25,m,2,9,2018_Sep_19_1047,MP_PerceptionTuring2,59.953613087041276,
115,resources/videos_generated\model(vcgpdm)-dataset(walking)-mode(ELBO)-parts(2)-dyn(24)-lvm(17)_final(8).mov,resources/videos_natural\training(33).mov,False,False,right,0,114,114,114,2018-09-19 10:58:58.291955,2018-09-19 10:59:02.229181,0:00:03.937226,3,right,1,0.2671286860941109,25,m,2,9,2018_Sep_19_1047,MP_PerceptionTuring2,59.953613087041276,
116,resources/videos_generated\model(vcgpdm)-dataset(walking)-mode(ELBO)-parts(2)-dyn(28)-lvm(17)_final(6).mov,resources/videos_natural\training(31).mov,True,False,right,0,115,115,115,2018-09-19 10:59:03.613260,2018-09-19 10:59:07.533484,0:00:03.920224,3,right,1,0.26720849693265336,25,m,2,9,2018_Sep_19_1047,MP_PerceptionTuring2,59.953613087041276,
117,resources/videos_generated\model(vcgpdm)-dataset(walking)-mode(ELBO)-parts(1)-dyn(26)-lvm(25)_final(0).mov,resources/videos_natural\training(7).mov,True,False,right,0,116,116,116,2018-09-19 10:59:08.917563,2018-09-19 10:59:12.854788,0:00:03.937225,3,right,1,0.3672482216488788,25,m,2,9,2018_Sep_19_1047,MP_PerceptionTuring2,59.953613087041276,
118,resources/videos_generated\model(vcgpdm)-dataset(walking)-mode(ELBO)-parts(2)-dyn(22)-lvm(19)_final(6).mov,resources/videos_natural\training(11).mov,False,True,left,0,117,117,117,2018-09-19 10:59:14.338873,2018-09-19 10:59:18.293099,0:00:03.954226,3,left,1,0.2505644734555972,25,m,2,9,2018_Sep_19_1047,MP_PerceptionTuring2,59.953613087041276,
119,resources/videos_generated\model(vcgpdm)-dataset(walking)-mode(ELBO)-parts(2)-dyn(23)-lvm(18)_final(2).mov,resources/videos_natural\training(14).mov,True,False,right,0,118,118,118,2018-09-19 10:59:19.660178,2018-09-19 10:59:23.580402,0:00:03.920224,3,left,0,0.2504491242043514,25,m,2,9,2018_Sep_19_1047,MP_PerceptionTuring2,59.953613087041276,
120,resources/videos_generated\model(vcgpdm)-dataset(walking)-mode(ELBO)-parts(1)-dyn(22)-lvm(25)_final(9).mov,resources/videos_natural\training(42).mov,True,True,left,0,119,119,119,2018-09-19 10:59:24.948480,2018-09-19 10:59:28.884705,0:00:03.936225,3,left,1,0.1836838936606,25,m,2,9,2018_Sep_19_1047,MP_PerceptionTuring2,59.953613087041276,
121,resources/videos_generated\model(vcgpdm)-dataset(walking)-mode(ELBO)-parts(1)-dyn(28)-lvm(23)_final(0).mov,resources/videos_natural\training(42).mov,False,True,left,0,120,120,120,2018-09-19 10:59:30.185780,2018-09-19 10:59:34.106004,0:00:03.920224,3,left,1,0.15056269653450727,25,m,2,9,2018_Sep_19_1047,MP_PerceptionTuring2,59.953613087041276,
122,resources/videos_generated\model(vcgpdm)-dataset(walking)-mode(ELBO)-parts(2)-dyn(25)-lvm(20)_final(0).mov,resources/videos_natural\training(3).mov,False,False,right,0,121,121,121,2018-09-19 10:59:35.374076,2018-09-19 10:59:39.294301,0:00:03.920225,3,right,1,0.2506759074567526,25,m,2,9,2018_Sep_19_1047,MP_PerceptionTuring2,59.953613087041276,
123,resources/videos_generated\model(vcgpdm)-dataset(walking)-mode(ELBO)-parts(2)-dyn(22)-lvm(23)_final(0).mov,resources/videos_natural\training(30).mov,True,False,right,0,122,122,122,2018-09-19 10:59:40.662379,2018-09-19 10:59:44.598604,0:00:03.936225,3,right,1,0.2338894291597171,25,m,2,9,2018_Sep_19_1047,MP_PerceptionTuring2,59.953613087041276,
124,resources/videos_generated\model(vcgpdm)-dataset(walking)-mode(ELBO)-parts(2)-dyn(23)-lvm(22)_final(2).mov,resources/videos_natural\training(38).mov,True,False,right,0,123,123,123,2018-09-19 10:59:45.949681,2018-09-19 10:59:49.836904,0:00:03.887223,3,right,1,0.03367204250389477,25,m,2,9,2018_Sep_19_1047,MP_PerceptionTuring2,59.953613087041276,
125,resources/videos_generated\model(vcgpdm)-dataset(walking)-mode(ELBO)-parts(2)-dyn(22)-lvm(23)_final(6).mov,resources/videos_natural\training(43).mov,False,False,right,0,124,124,124,2018-09-19 10:59:50.987969,2018-09-19 10:59:54.891193,0:00:03.903224,3,right,1,0.2171008426521439,25,m,2,9,2018_Sep_19_1047,MP_PerceptionTuring2,59.953613087041276,
126,resources/videos_generated\model(vcgpdm)-dataset(walking)-mode(ELBO)-parts(1)-dyn(23)-lvm(26)_final(2).mov,resources/videos_natural\training(35).mov,True,False,right,0,125,125,125,2018-09-19 10:59:56.225269,2018-09-19 11:00:00.112491,0:00:03.887222,3,left,0,0.3338415125390384,25,m,2,9,2018_Sep_19_1047,MP_PerceptionTuring2,59.953613087041276,
127,resources/videos_generated\model(vcgpdm)-dataset(walking)-mode(ELBO)-parts(1)-dyn(25)-lvm(23)_final(2).mov,resources/videos_natural\training(32).mov,False,True,left,0,126,126,126,2018-09-19 11:00:01.563574,2018-09-19 11:00:05.483799,0:00:03.920225,3,left,1,0.21691230836768227,25,m,2,9,2018_Sep_19_1047,MP_PerceptionTuring2,59.953613087041276,
128,resources/videos_generated\model(vcgpdm)-dataset(walking)-mode(ELBO)-parts(1)-dyn(27)-lvm(22)_final(6).mov,resources/videos_natural\training(32).mov,True,True,left,0,127,127,127,2018-09-19 11:00:06.817875,2018-09-19 11:00:10.721098,0:00:03.903223,3,left,1,0.2504545453175524,25,m,2,9,2018_Sep_19_1047,MP_PerceptionTuring2,59.953613087041276,
129,resources/videos_generated\model(vcgpdm)-dataset(walking)-mode(ELBO)-parts(1)-dyn(27)-lvm(24)_final(8).mov,resources/videos_natural\training(25).mov,True,True,left,0,128,128,128,2018-09-19 11:00:12.089176,2018-09-19 11:00:15.976399,0:00:03.887223,3,left,1,0.2839793142356939,25,m,2,9,2018_Sep_19_1047,MP_PerceptionTuring2,59.953613087041276,
130,resources/videos_generated\model(vcgpdm)-dataset(walking)-mode(ELBO)-parts(1)-dyn(25)-lvm(22)_final(1).mov,resources/videos_natural\training(8).mov,True,True,left,0,129,129,129,2018-09-19 11:00:17.377479,2018-09-19 11:00:21.263701,0:00:03.886222,3,left,1,0.21748935579398676,25,m,2,9,2018_Sep_19_1047,MP_PerceptionTuring2,59.953613087041276,
131,resources/videos_generated\model(tmp)-dataset(walking)-numprim(11)_final(5).mov,resources/videos_natural\training(0).mov,False,False,right,0,130,130,130,2018-09-19 11:00:22.597777,2018-09-19 11:00:26.518002,0:00:03.920225,3,left,0,0.35047891021167743,25,m,2,9,2018_Sep_19_1047,MP_PerceptionTuring2,59.953613087041276,
132,resources/videos_generated\model(vcgpdm)-dataset(walking)-mode(ELBO)-parts(1)-dyn(23)-lvm(28)_final(3)_hip-corrected.mov,resources/videos_natural\training(44).mov,True,False,right,0,131,131,131,2018-09-19 11:00:27.986086,2018-09-19 11:00:31.889309,0:00:03.903223,3,left,0,0.33388909786935983,25,m,2,9,2018_Sep_19_1047,MP_PerceptionTuring2,59.953613087041276,
133,resources/videos_generated\model(vcgpdm)-dataset(walking)-mode(ELBO)-parts(2)-dyn(28)-lvm(23)_final(0).mov,resources/videos_natural\training(42).mov,False,False,right,0,132,132,132,2018-09-19 11:00:33.340392,2018-09-19 11:00:37.260616,0:00:03.920224,3,right,1,0.35074424360573175,25,m,2,9,2018_Sep_19_1047,MP_PerceptionTuring2,59.953613087041276,
134,resources/videos_generated\model(vcgpdm)-dataset(walking)-mode(ELBO)-parts(2)-dyn(24)-lvm(17)_final(4).mov,resources/videos_natural\training(9).mov,True,False,right,0,133,133,133,2018-09-19 11:00:38.728700,2018-09-19 11:00:42.631923,0:00:03.903223,3,left,0,0.20064896753410721,25,m,2,9,2018_Sep_19_1047,MP_PerceptionTuring2,59.953613087041276,
135,resources/videos_generated\model(vcgpdm)-dataset(walking)-mode(ELBO)-parts(2)-dyn(24)-lvm(19)_final(4).mov,resources/videos_natural\training(27).mov,False,True,left,0,134,134,134,2018-09-19 11:00:43.949999,2018-09-19 11:00:47.853222,0:00:03.903223,3,left,1,0.200379417718068,25,m,2,9,2018_Sep_19_1047,MP_PerceptionTuring2,59.953613087041276,
136,resources/videos_generated\model(tmp)-dataset(walking)-numprim(12)_final(5).mov,resources/videos_natural\training(18).mov,True,True,left,0,135,135,135,2018-09-19 11:01:19.698043,2018-09-19 11:01:23.617268,0:00:03.919225,4,left,1,0.1503491648927593,25,m,2,9,2018_Sep_19_1047,MP_PerceptionTuring2,59.953613087041276,
137,resources/videos_generated\model(vcgpdm)-dataset(walking)-mode(ELBO)-parts(2)-dyn(26)-lvm(21)_final(6).mov,resources/videos_natural\training(30).mov,True,False,right,0,136,136,136,2018-09-19 11:01:24.885340,2018-09-19 11:01:28.788563,0:00:03.903223,4,right,1,0.21707584529394808,25,m,2,9,2018_Sep_19_1047,MP_PerceptionTuring2,59.953613087041276,
138,resources/videos_generated\model(vcgpdm)-dataset(walking)-mode(ELBO)-parts(1)-dyn(26)-lvm(23)_final(8).mov,resources/videos_natural\training(1).mov,False,False,right,0,137,137,137,2018-09-19 11:01:30.123640,2018-09-19 11:01:34.026863,0:00:03.903223,4,right,1,0.23375269662756182,25,m,2,9,2018_Sep_19_1047,MP_PerceptionTuring2,59.953613087041276,
139,resources/videos_generated\model(vcgpdm)-dataset(walking)-mode(ELBO)-parts(2)-dyn(23)-lvm(22)_final(4).mov,resources/videos_natural\training(20).mov,True,False,right,0,138,138,138,2018-09-19 11:01:35.377940,2018-09-19 11:01:39.331166,0:00:03.953226,4,right,1,0.20034568634491734,25,m,2,9,2018_Sep_19_1047,MP_PerceptionTuring2,59.953613087041276,
140,resources/videos_generated\model(dmp)-dataset(walking)-npsi(50)_final(3).mov,resources/videos_natural\training(43).mov,True,False,right,0,139,139,139,2018-09-19 11:01:40.649242,2018-09-19 11:01:44.552465,0:00:03.903223,4,left,0,0.1670949848366945,25,m,2,9,2018_Sep_19_1047,MP_PerceptionTuring2,59.953613087041276,
141,resources/videos_generated\model(vcgpdm)-dataset(walking)-mode(ELBO)-parts(1)-dyn(26)-lvm(27)_final(8).mov,resources/videos_natural\training(13).mov,True,False,right,0,140,140,140,2018-09-19 11:01:45.836538,2018-09-19 11:01:49.790765,0:00:03.954227,4,left,0,0.2672828866589043,25,m,2,9,2018_Sep_19_1047,MP_PerceptionTuring2,59.953613087041276,
142,resources/videos_generated\model(vcgpdm)-dataset(walking)-mode(ELBO)-parts(1)-dyn(25)-lvm(25)_final(0).mov,resources/videos_natural\training(38).mov,True,False,right,0,141,141,141,2018-09-19 11:01:51.174844,2018-09-19 11:01:55.111069,0:00:03.936225,4,right,1,0.5007268809831658,25,m,2,9,2018_Sep_19_1047,MP_PerceptionTuring2,59.953613087041276,
143,resources/videos_generated\model(vcgpdm)-dataset(walking)-mode(ELBO)-parts(1)-dyn(24)-lvm(27)_final(7).mov,resources/videos_natural\training(5).mov,True,False,right,0,142,142,142,2018-09-19 11:01:56.729161,2018-09-19 11:02:00.649386,0:00:03.920225,4,left,0,0.3339056623835859,25,m,2,9,2018_Sep_19_1047,MP_PerceptionTuring2,59.953613087041276,
144,resources/videos_generated\model(vcgpdm)-dataset(walking)-mode(ELBO)-parts(2)-dyn(26)-lvm(23)_final(0).mov,resources/videos_natural\training(41).mov,True,False,right,0,143,143,143,2018-09-19 11:02:02.101469,2018-09-19 11:02:06.020693,0:00:03.919224,4,right,1,0.2671241684984125,25,m,2,9,2018_Sep_19_1047,MP_PerceptionTuring2,59.953613087041276,
145,resources/videos_generated\model(tmp)-dataset(walking)-numprim(15)_final(1).mov,resources/videos_natural\training(17).mov,False,True,left,0,144,144,144,2018-09-19 11:02:07.405772,2018-09-19 11:02:11.308995,0:00:03.903223,4,right,0,0.16712660800021695,25,m,2,9,2018_Sep_19_1047,MP_PerceptionTuring2,59.953613087041276,
146,resources/videos_generated\model(vcgpdm)-dataset(walking)-mode(ELBO)-parts(2)-dyn(24)-lvm(19)_final(6).mov,resources/videos_natural\training(45).mov,True,False,right,0,145,145,145,2018-09-19 11:02:12.593069,2018-09-19 11:02:16.513293,0:00:03.920224,4,right,1,0.3171480966921081,25,m,2,9,2018_Sep_19_1047,MP_PerceptionTuring2,59.953613087041276,
147,resources/videos_generated\model(vcgpdm)-dataset(walking)-mode(ELBO)-parts(1)-dyn(22)-lvm(27)_final(5)_fail.mov,resources/videos_natural\training(21).mov,True,True,left,0,146,146,146,2018-09-19 11:02:17.947375,2018-09-19 11:02:21.867599,0:00:03.920224,4,left,1,0.23385901068832027,25,m,2,9,2018_Sep_19_1047,MP_PerceptionTuring2,59.953613087041276,
148,resources/videos_generated\model(vcgpdm)-dataset(walking)-mode(ELBO)-parts(1)-dyn(27)-lvm(26)_final(0).mov,resources/videos_natural\training(5).mov,True,True,left,0,147,147,147,2018-09-19 11:02:23.218677,2018-09-19 11:02:27.122900,0:00:03.904223,4,left,1,0.2504280420953364,25,m,2,9,2018_Sep_19_1047,MP_PerceptionTuring2,59.953613087041276,
149,resources/videos_generated\model(vcgpdm)-dataset(walking)-mode(ELBO)-parts(2)-dyn(25)-lvm(20)_final(6).mov,resources/videos_natural\training(28).mov,False,True,left,0,148,148,148,2018-09-19 11:02:28.489978,2018-09-19 11:02:32.410202,0:00:03.920224,4,left,1,0.18388628190223244,25,m,2,9,2018_Sep_19_1047,MP_PerceptionTuring2,59.953613087041276,
150,resources/videos_generated\model(vcgpdm)-dataset(walking)-mode(ELBO)-parts(1)-dyn(22)-lvm(23)_final(1).mov,resources/videos_natural\training(23).mov,True,False,right,0,149,149,149,2018-09-19 11:02:33.711277,2018-09-19 11:02:37.631501,0:00:03.920224,4,right,1,0.2004456757731532,25,m,2,9,2018_Sep_19_1047,MP_PerceptionTuring2,59.953613087041276,
151,resources/videos_generated\model(vcgpdm)-dataset(walking)-mode(ELBO)-parts(1)-dyn(24)-lvm(23)_final(5).mov,resources/videos_natural\training(20).mov,False,True,left,0,150,150,150,2018-09-19 11:02:38.949576,2018-09-19 11:02:42.885801,0:00:03.936225,4,left,1,0.2837600603070314,25,m,2,9,2018_Sep_19_1047,MP_PerceptionTuring2,59.953613087041276,
152,resources/videos_generated\model(vcgpdm)-dataset(walking)-mode(ELBO)-parts(1)-dyn(25)-lvm(24)_final(4).mov,resources/videos_natural\training(44).mov,False,True,left,0,151,151,151,2018-09-19 11:02:44.286882,2018-09-19 11:02:48.207106,0:00:03.920224,4,left,1,0.23377528460059693,25,m,2,9,2018_Sep_19_1047,MP_PerceptionTuring2,59.953613087041276,
153,resources/videos_generated\model(dmp)-dataset(walking)-npsi(50)_final(7).mov,resources/videos_natural\training(44).mov,False,False,right,0,152,152,152,2018-09-19 11:02:49.558183,2018-09-19 11:02:53.478407,0:00:03.920224,4,right,1,0.3504445764920092,25,m,2,9,2018_Sep_19_1047,MP_PerceptionTuring2,59.953613087041276,
154,resources/videos_generated\model(vcgpdm)-dataset(walking)-mode(ELBO)-parts(2)-dyn(26)-lvm(17)_final(2).mov,resources/videos_natural\training(45).mov,False,False,right,0,153,153,153,2018-09-19 11:02:54.946491,2018-09-19 11:02:58.849714,0:00:03.903223,4,right,1,0.2670829078006136,25,m,2,9,2018_Sep_19_1047,MP_PerceptionTuring2,59.953613087041276,
155,resources/videos_generated\model(vcgpdm)-dataset(walking)-mode(ELBO)-parts(2)-dyn(27)-lvm(18)_final(4).mov,resources/videos_natural\training(48).mov,True,True,left,0,154,154,154,2018-09-19 11:03:00.234794,2018-09-19 11:03:04.171019,0:00:03.936225,4,left,1,0.18368027958422317,25,m,2,9,2018_Sep_19_1047,MP_PerceptionTuring2,59.953613087041276,
156,resources/videos_generated\model(vcgpdm)-dataset(walking)-mode(ELBO)-parts(2)-dyn(24)-lvm(21)_final(2).mov,resources/videos_natural\training(12).mov,False,True,left,0,155,155,155,2018-09-19 11:03:05.472093,2018-09-19 11:03:09.375317,0:00:03.903224,4,left,1,0.5507724936305749,25,m,2,9,2018_Sep_19_1047,MP_PerceptionTuring2,59.953613087041276,
157,resources/videos_generated\model(vcgpdm)-dataset(walking)-mode(ELBO)-parts(1)-dyn(28)-lvm(23)_final(6)_fail.mov,resources/videos_natural\training(47).mov,False,False,right,0,156,156,156,2018-09-19 11:03:11.043412,2018-09-19 11:03:14.980637,0:00:03.937225,4,right,1,0.21711590130144032,25,m,2,9,2018_Sep_19_1047,MP_PerceptionTuring2,59.953613087041276,
158,resources/videos_generated\model(vcgpdm)-dataset(walking)-mode(ELBO)-parts(1)-dyn(27)-lvm(24)_final(0).mov,resources/videos_natural\training(45).mov,False,False,right,0,157,157,157,2018-09-19 11:03:16.314713,2018-09-19 11:03:20.251939,0:00:03.937226,4,right,1,0.2838531227571366,25,m,2,9,2018_Sep_19_1047,MP_PerceptionTuring2,59.953613087041276,
159,resources/videos_generated\model(vcgpdm)-dataset(walking)-mode(ELBO)-parts(2)-dyn(25)-lvm(18)_final(0).mov,resources/videos_natural\training(30).mov,False,False,right,0,158,158,158,2018-09-19 11:03:21.653019,2018-09-19 11:03:25.573243,0:00:03.920224,4,right,1,0.2170857840028475,25,m,2,9,2018_Sep_19_1047,MP_PerceptionTuring2,59.953613087041276,
160,resources/videos_generated\model(dmp)-dataset(walking)-npsi(90)_final(3).mov,resources/videos_natural\training(15).mov,True,True,left,0,159,159,159,2018-09-19 11:03:26.907319,2018-09-19 11:03:30.827544,0:00:03.920225,4,left,1,0.7175644984527025,25,m,2,9,2018_Sep_19_1047,MP_PerceptionTuring2,59.953613087041276,
161,resources/videos_generated\model(vcgpdm)-dataset(walking)-mode(ELBO)-parts(2)-dyn(23)-lvm(22)_final(8).mov,resources/videos_natural\training(24).mov,True,False,right,0,160,160,160,2018-09-19 11:03:32.662648,2018-09-19 11:03:36.598874,0:00:03.936226,4,right,1,0.46724909505064716,25,m,2,9,2018_Sep_19_1047,MP_PerceptionTuring2,59.953613087041276,
162,resources/videos_generated\model(vcgpdm)-dataset(walking)-mode(ELBO)-parts(2)-dyn(26)-lvm(17)_final(4).mov,resources/videos_natural\training(36).mov,False,True,left,0,161,161,161,2018-09-19 11:03:38.183964,2018-09-19 11:03:42.087188,0:00:03.903224,4,left,1,0.2337267957518634,25,m,2,9,2018_Sep_19_1047,MP_PerceptionTuring2,59.953613087041276,
163,resources/videos_generated\model(vcgpdm)-dataset(walking)-mode(ELBO)-parts(2)-dyn(28)-lvm(23)_final(8).mov,resources/videos_natural\training(7).mov,True,True,left,0,162,162,162,2018-09-19 11:03:43.438265,2018-09-19 11:03:47.341488,0:00:03.903223,4,left,1,0.18376460801937355,25,m,2,9,2018_Sep_19_1047,MP_PerceptionTuring2,59.953613087041276,
164,resources/videos_generated\model(vcgpdm)-dataset(walking)-mode(ELBO)-parts(1)-dyn(28)-lvm(27)_final(2).mov,resources/videos_natural\training(45).mov,False,False,right,0,163,163,163,2018-09-19 11:03:48.642562,2018-09-19 11:03:52.562787,0:00:03.920225,4,right,1,0.21704693268929987,25,m,2,9,2018_Sep_19_1047,MP_PerceptionTuring2,59.953613087041276,
165,resources/videos_generated\model(vcgpdm)-dataset(walking)-mode(ELBO)-parts(2)-dyn(26)-lvm(23)_final(6).mov,resources/videos_natural\training(17).mov,True,True,left,0,164,164,164,2018-09-19 11:03:53.897863,2018-09-19 11:03:57.834088,0:00:03.936225,4,left,1,0.23376835762246628,25,m,2,9,2018_Sep_19_1047,MP_PerceptionTuring2,59.953613087041276,
166,resources/videos_generated\model(vcgpdm)-dataset(walking)-mode(ELBO)-parts(1)-dyn(28)-lvm(27)_final(0).mov,resources/videos_natural\training(44).mov,False,True,left,0,165,165,165,2018-09-19 11:03:59.185165,2018-09-19 11:04:03.088389,0:00:03.903224,4,left,1,0.10022464492431027,25,m,2,9,2018_Sep_19_1047,MP_PerceptionTuring2,59.953613087041276,
167,resources/videos_generated\model(vcgpdm)-dataset(walking)-mode(ELBO)-parts(1)-dyn(23)-lvm(22)_final(6)_fail.mov,resources/videos_natural\training(43).mov,True,False,right,0,166,166,166,2018-09-19 11:04:04.306458,2018-09-19 11:04:08.226683,0:00:03.920225,4,right,1,0.33380266122549074,25,m,2,9,2018_Sep_19_1047,MP_PerceptionTuring2,59.953613087041276,
168,resources/videos_generated\model(vcgpdm)-dataset(walking)-mode(ELBO)-parts(1)-dyn(22)-lvm(23)_final(5).mov,resources/videos_natural\training(40).mov,True,False,right,0,167,167,167,2018-09-19 11:04:09.677766,2018-09-19 11:04:13.580989,0:00:03.903223,4,right,1,0.333500885900321,25,m,2,9,2018_Sep_19_1047,MP_PerceptionTuring2,59.953613087041276,
169,resources/videos_generated\model(vcgpdm)-dataset(walking)-mode(ELBO)-parts(2)-dyn(22)-lvm(21)_final(0).mov,resources/videos_natural\training(22).mov,False,False,right,0,168,168,168,2018-09-19 11:04:15.032072,2018-09-19 11:04:18.952296,0:00:03.920224,4,right,1,0.4506662096864602,25,m,2,9,2018_Sep_19_1047,MP_PerceptionTuring2,59.953613087041276,
170,resources/videos_generated\model(tmp)-dataset(walking)-numprim(14)_final(9).mov,resources/videos_natural\training(29).mov,False,True,left,0,169,169,169,2018-09-19 11:04:20.520386,2018-09-19 11:04:24.423609,0:00:03.903223,4,left,1,0.483852159003618,25,m,2,9,2018_Sep_19_1047,MP_PerceptionTuring2,59.953613087041276,
171,resources/videos_generated\model(vcgpdm)-dataset(walking)-mode(ELBO)-parts(1)-dyn(22)-lvm(23)_final(3)_fail.mov,resources/videos_natural\training(26).mov,True,True,left,0,170,170,170,2018-09-19 11:04:26.025701,2018-09-19 11:04:29.944925,0:00:03.919224,4,left,1,0.28379409285298607,25,m,2,9,2018_Sep_19_1047,MP_PerceptionTuring2,59.953613087041276,
172,resources/videos_generated\model(vcgpdm)-dataset(walking)-mode(ELBO)-parts(2)-dyn(26)-lvm(21)_final(2).mov,resources/videos_natural\training(47).mov,True,False,right,0,171,171,171,2018-09-19 11:04:31.346005,2018-09-19 11:04:35.283230,0:00:03.937225,4,left,0,0.3841211365906929,25,m,2,9,2018_Sep_19_1047,MP_PerceptionTuring2,59.953613087041276,
173,resources/videos_generated\model(tmp)-dataset(walking)-numprim(13)_final(1).mov,resources/videos_natural\training(19).mov,True,False,right,0,172,172,172,2018-09-19 11:04:36.784316,2018-09-19 11:04:40.721541,0:00:03.937225,4,left,0,0.20046254146018327,25,m,2,9,2018_Sep_19_1047,MP_PerceptionTuring2,59.953613087041276,
174,resources/videos_generated\model(tmp)-dataset(walking)-numprim(13)_final(7).mov,resources/videos_natural\training(6).mov,True,True,left,0,173,173,173,2018-09-19 11:04:42.038617,2018-09-19 11:04:45.975842,0:00:03.937225,4,left,1,0.2005848176895597,25,m,2,9,2018_Sep_19_1047,MP_PerceptionTuring2,59.953613087041276,
175,resources/videos_generated\model(vcgpdm)-dataset(walking)-mode(ELBO)-parts(1)-dyn(22)-lvm(27)_final(1)_fail.mov,resources/videos_natural\training(33).mov,True,True,left,0,174,174,174,2018-09-19 11:04:47.293917,2018-09-19 11:04:51.230142,0:00:03.936225,4,left,1,0.3668844046906088,25,m,2,9,2018_Sep_19_1047,MP_PerceptionTuring2,59.953613087041276,
176,resources/videos_generated\model(dmp)-dataset(walking)-npsi(70)_final(5).mov,resources/videos_natural\training(2).mov,True,True,left,0,175,175,175,2018-09-19 11:04:52.715227,2018-09-19 11:04:56.635451,0:00:03.920224,4,right,0,0.18369202533085627,25,m,2,9,2018_Sep_19_1047,MP_PerceptionTuring2,59.953613087041276,
177,resources/videos_generated\model(dmp)-dataset(walking)-npsi(90)_final(1).mov,resources/videos_natural\training(35).mov,True,True,left,0,176,176,176,2018-09-19 11:04:57.936526,2018-09-19 11:05:01.872751,0:00:03.936225,4,left,1,0.4158391688106349,25,m,2,9,2018_Sep_19_1047,MP_PerceptionTuring2,59.953613087041276,
178,resources/videos_generated\model(vcgpdm)-dataset(walking)-mode(ELBO)-parts(1)-dyn(25)-lvm(24)_final(2).mov,resources/videos_natural\training(23).mov,True,False,right,0,177,177,177,2018-09-19 11:05:03.407839,2018-09-19 11:05:07.311062,0:00:03.903223,4,right,1,0.36718015655605996,25,m,2,9,2018_Sep_19_1047,MP_PerceptionTuring2,59.953613087041276,
179,resources/videos_generated\model(vcgpdm)-dataset(walking)-mode(ELBO)-parts(2)-dyn(25)-lvm(20)_final(2).mov,resources/videos_natural\training(13).mov,True,True,left,0,178,178,178,2018-09-19 11:05:08.795147,2018-09-19 11:05:12.715371,0:00:03.920224,4,left,1,0.2338466625969886,25,m,2,9,2018_Sep_19_1047,MP_PerceptionTuring2,59.953613087041276,
180,resources/videos_generated\model(vcgpdm)-dataset(walking)-mode(ELBO)-parts(1)-dyn(25)-lvm(24)_final(8).mov,resources/videos_natural\training(26).mov,True,False,right,0,179,179,179,2018-09-19 11:05:14.066448,2018-09-19 11:05:17.970672,0:00:03.904224,4,right,1,0.23380720893601392,25,m,2,9,2018_Sep_19_1047,MP_PerceptionTuring2,59.953613087041276,
181,resources/videos_generated\model(vcgpdm)-dataset(walking)-mode(ELBO)-parts(2)-dyn(22)-lvm(19)_final(4).mov,resources/videos_natural\training(41).mov,False,False,right,0,180,180,180,2018-09-19 11:05:50.598538,2018-09-19 11:05:54.534763,0:00:03.936225,5,right,1,0.36721208089147694,25,m,2,9,2018_Sep_19_1047,MP_PerceptionTuring2,59.953613087041276,
182,resources/videos_generated\model(vcgpdm)-dataset(walking)-mode(ELBO)-parts(1)-dyn(27)-lvm(28)_final(4).mov,resources/videos_natural\training(31).mov,False,True,left,0,181,181,181,2018-09-19 11:05:56.019848,2018-09-19 11:05:59.923071,0:00:03.903223,5,left,1,0.35060630638145085,25,m,2,9,2018_Sep_19_1047,MP_PerceptionTuring2,59.953613087041276,
183,resources/videos_generated\model(vcgpdm)-dataset(walking)-mode(ELBO)-parts(1)-dyn(26)-lvm(22)_final(2).mov,resources/videos_natural\training(23).mov,False,True,left,0,182,182,182,2018-09-19 11:06:01.391155,2018-09-19 11:06:05.294379,0:00:03.903224,5,right,0,0.23368673974528065,25,m,2,9,2018_Sep_19_1047,MP_PerceptionTuring2,59.953613087041276,
184,resources/videos_generated\model(vcgpdm)-dataset(walking)-mode(ELBO)-parts(1)-dyn(24)-lvm(25)_final(7).mov,resources/videos_natural\training(17).mov,True,False,right,0,183,183,183,2018-09-19 11:06:06.645456,2018-09-19 11:06:10.565680,0:00:03.920224,5,right,1,0.3840431327889746,25,m,2,9,2018_Sep_19_1047,MP_PerceptionTuring2,59.953613087041276,
185,resources/videos_generated\model(vcgpdm)-dataset(walking)-mode(ELBO)-parts(1)-dyn(27)-lvm(28)_final(2).mov,resources/videos_natural\training(21).mov,True,True,left,0,184,184,184,2018-09-19 11:06:12.066766,2018-09-19 11:06:15.953988,0:00:03.887222,5,left,1,0.3838871251864475,25,m,2,9,2018_Sep_19_1047,MP_PerceptionTuring2,59.953613087041276,
186,resources/videos_generated\model(vcgpdm)-dataset(walking)-mode(ELBO)-parts(2)-dyn(27)-lvm(18)_final(0).mov,resources/videos_natural\training(34).mov,False,False,right,0,185,185,185,2018-09-19 11:06:17.455074,2018-09-19 11:06:21.358297,0:00:03.903223,5,right,1,0.41729684602614725,25,m,2,9,2018_Sep_19_1047,MP_PerceptionTuring2,59.953613087041276,
187,resources/videos_generated\model(vcgpdm)-dataset(walking)-mode(ELBO)-parts(2)-dyn(25)-lvm(18)_final(6).mov,resources/videos_natural\training(43).mov,True,False,right,0,186,186,186,2018-09-19 11:06:22.893385,2018-09-19 11:06:26.812609,0:00:03.919224,5,left,0,0.4672515044348984,25,m,2,9,2018_Sep_19_1047,MP_PerceptionTuring2,59.953613087041276,
188,resources/videos_generated\model(vcgpdm)-dataset(walking)-mode(ELBO)-parts(2)-dyn(28)-lvm(19)_final(8).mov,resources/videos_natural\training(21).mov,True,False,right,0,187,187,187,2018-09-19 11:06:28.397700,2018-09-19 11:06:32.317924,0:00:03.920224,5,left,0,0.31717761164418334,25,m,2,9,2018_Sep_19_1047,MP_PerceptionTuring2,59.953613087041276,
189,resources/videos_generated\model(vcgpdm)-dataset(walking)-mode(ELBO)-parts(2)-dyn(26)-lvm(19)_final(6).mov,resources/videos_natural\training(28).mov,False,False,right,0,188,188,188,2018-09-19 11:06:33.752006,2018-09-19 11:06:37.655229,0:00:03.903223,5,right,1,0.23390990892221453,25,m,2,9,2018_Sep_19_1047,MP_PerceptionTuring2,59.953613087041276,
190,resources/videos_generated\model(vcgpdm)-dataset(walking)-mode(ELBO)-parts(1)-dyn(27)-lvm(28)_final(8).mov,resources/videos_natural\training(2).mov,False,False,right,0,189,189,189,2018-09-19 11:06:39.006307,2018-09-19 11:06:42.943532,0:00:03.937225,5,left,0,0.26820899356698646,25,m,2,9,2018_Sep_19_1047,MP_PerceptionTuring2,59.953613087041276,
191,resources/videos_generated\model(vcgpdm)-dataset(walking)-mode(ELBO)-parts(2)-dyn(24)-lvm(21)_final(4).mov,resources/videos_natural\training(0).mov,False,False,right,0,190,190,190,2018-09-19 11:06:44.327611,2018-09-19 11:06:48.247835,0:00:03.920224,5,right,1,0.25053315146487876,25,m,2,9,2018_Sep_19_1047,MP_PerceptionTuring2,59.953613087041276,
192,resources/videos_generated\model(vcgpdm)-dataset(walking)-mode(ELBO)-parts(1)-dyn(26)-lvm(25)_final(8).mov,resources/videos_natural\training(11).mov,False,True,left,0,191,191,191,2018-09-19 11:06:49.615914,2018-09-19 11:06:53.536138,0:00:03.920224,5,left,1,0.467317160143466,25,m,2,9,2018_Sep_19_1047,MP_PerceptionTuring2,59.953613087041276,
193,resources/videos_generated\model(vcgpdm)-dataset(walking)-mode(ELBO)-parts(2)-dyn(28)-lvm(17)_final(8).mov,resources/videos_natural\training(23).mov,True,False,right,0,192,192,192,2018-09-19 11:06:55.120228,2018-09-19 11:06:59.040453,0:00:03.920225,5,right,1,0.43391978739600745,25,m,2,9,2018_Sep_19_1047,MP_PerceptionTuring2,59.953613087041276,
194,resources/videos_generated\model(vcgpdm)-dataset(walking)-mode(ELBO)-parts(2)-dyn(27)-lvm(18)_final(6).mov,resources/videos_natural\training(46).mov,True,False,right,0,193,193,193,2018-09-19 11:07:00.592541,2018-09-19 11:07:04.512766,0:00:03.920225,5,right,1,0.2672166286029096,25,m,2,9,2018_Sep_19_1047,MP_PerceptionTuring2,59.953613087041276,
195,resources/videos_generated\model(vcgpdm)-dataset(walking)-mode(ELBO)-parts(2)-dyn(24)-lvm(17)_final(2).mov,resources/videos_natural\training(20).mov,False,True,left,0,194,194,194,2018-09-19 11:07:05.896845,2018-09-19 11:07:09.817069,0:00:03.920224,5,left,1,0.3171673717633894,25,m,2,9,2018_Sep_19_1047,MP_PerceptionTuring2,59.953613087041276,
196,resources/videos_generated\model(vcgpdm)-dataset(walking)-mode(ELBO)-parts(2)-dyn(22)-lvm(21)_final(6).mov,resources/videos_natural\training(32).mov,False,False,right,0,195,195,195,2018-09-19 11:07:11.251151,2018-09-19 11:07:15.171375,0:00:03.920224,5,right,1,0.26710459225523664,25,m,2,9,2018_Sep_19_1047,MP_PerceptionTuring2,59.953613087041276,
197,resources/videos_generated\model(vcgpdm)-dataset(walking)-mode(ELBO)-parts(1)-dyn(25)-lvm(28)_final(7).mov,resources/videos_natural\training(26).mov,False,True,left,0,196,196,196,2018-09-19 11:07:16.556454,2018-09-19 11:07:20.492680,0:00:03.936226,5,right,0,0.26819092318874027,25,m,2,9,2018_Sep_19_1047,MP_PerceptionTuring2,59.953613087041276,
198,resources/videos_generated\model(vcgpdm)-dataset(walking)-mode(ELBO)-parts(2)-dyn(28)-lvm(23)_final(4)_fail.mov,resources/videos_natural\training(43).mov,False,False,right,0,197,197,197,2018-09-19 11:07:21.876759,2018-09-19 11:07:25.813984,0:00:03.937225,5,right,1,0.25048586730736133,25,m,2,9,2018_Sep_19_1047,MP_PerceptionTuring2,59.953613087041276,
199,resources/videos_generated\model(vcgpdm)-dataset(walking)-mode(ELBO)-parts(1)-dyn(25)-lvm(28)_final(9).mov,resources/videos_natural\training(21).mov,True,True,left,0,198,198,198,2018-09-19 11:07:27.182062,2018-09-19 11:07:31.118287,0:00:03.936225,5,left,1,0.20044416990913305,25,m,2,9,2018_Sep_19_1047,MP_PerceptionTuring2,59.953613087041276,
200,resources/videos_generated\model(dmp)-dataset(walking)-npsi(50)_final(1).mov,resources/videos_natural\training(7).mov,False,False,right,0,199,199,199,2018-09-19 11:07:32.436363,2018-09-19 11:07:36.356587,0:00:03.920224,5,right,1,0.25088702971424937,25,m,2,9,2018_Sep_19_1047,MP_PerceptionTuring2,59.953613087041276,
201,resources/videos_generated\model(vcgpdm)-dataset(walking)-mode(ELBO)-parts(2)-dyn(22)-lvm(17)_final(0).mov,resources/videos_natural\training(46).mov,False,True,left,0,200,200,200,2018-09-19 11:07:37.724665,2018-09-19 11:07:41.693892,0:00:03.969227,5,left,1,0.21704452330504864,25,m,2,9,2018_Sep_19_1047,MP_PerceptionTuring2,59.953613087041276,
202,resources/videos_generated\model(vcgpdm)-dataset(walking)-mode(ELBO)-parts(2)-dyn(27)-lvm(22)_final(4).mov,resources/videos_natural\training(22).mov,False,False,right,0,201,201,201,2018-09-19 11:07:43.028969,2018-09-19 11:07:46.932192,0:00:03.903223,5,right,1,0.5507125602080123,25,m,2,9,2018_Sep_19_1047,MP_PerceptionTuring2,59.953613087041276,
203,resources/videos_generated\model(vcgpdm)-dataset(walking)-mode(ELBO)-parts(2)-dyn(28)-lvm(23)_final(6).mov,resources/videos_natural\training(25).mov,False,False,right,0,202,202,202,2018-09-19 11:07:48.600287,2018-09-19 11:07:52.520511,0:00:03.920224,5,right,1,0.25045093124117557,25,m,2,9,2018_Sep_19_1047,MP_PerceptionTuring2,59.953613087041276,
204,resources/videos_generated\model(vcgpdm)-dataset(walking)-mode(ELBO)-parts(2)-dyn(24)-lvm(23)_final(8).mov,resources/videos_natural\training(45).mov,False,False,right,0,203,203,203,2018-09-19 11:07:53.888590,2018-09-19 11:07:57.791813,0:00:03.903223,5,right,1,0.3172297145692937,25,m,2,9,2018_Sep_19_1047,MP_PerceptionTuring2,59.953613087041276,
205,resources/videos_generated\model(vcgpdm)-dataset(walking)-mode(ELBO)-parts(1)-dyn(26)-lvm(23)_final(4)_fail.mov,resources/videos_natural\training(9).mov,True,True,left,0,204,204,204,2018-09-19 11:07:59.225895,2018-09-19 11:08:03.129118,0:00:03.903223,5,left,1,0.2838446899140763,25,m,2,9,2018_Sep_19_1047,MP_PerceptionTuring2,59.953613087041276,
206,resources/videos_generated\model(vcgpdm)-dataset(walking)-mode(ELBO)-parts(2)-dyn(22)-lvm(21)_final(4).mov,resources/videos_natural\training(0).mov,False,True,left,0,205,205,205,2018-09-19 11:08:04.530198,2018-09-19 11:08:08.451423,0:00:03.921225,5,left,1,0.3005146142677404,25,m,2,9,2018_Sep_19_1047,MP_PerceptionTuring2,59.953613087041276,
207,resources/videos_generated\model(vcgpdm)-dataset(walking)-mode(ELBO)-parts(1)-dyn(28)-lvm(25)_final(6).mov,resources/videos_natural\training(15).mov,True,False,right,0,206,206,206,2018-09-19 11:08:09.868504,2018-09-19 11:08:13.755726,0:00:03.887222,5,right,1,0.4839238381728137,25,m,2,9,2018_Sep_19_1047,MP_PerceptionTuring2,59.953613087041276,
208,resources/videos_generated\model(dmp)-dataset(walking)-npsi(70)_final(3).mov,resources/videos_natural\training(45).mov,True,True,left,0,207,207,207,2018-09-19 11:08:15.356818,2018-09-19 11:08:19.260041,0:00:03.903223,5,right,0,0.13379278275078832,25,m,2,9,2018_Sep_19_1047,MP_PerceptionTuring2,59.953613087041276,
209,resources/videos_generated\model(tmp)-dataset(walking)-numprim(13)_final(5).mov,resources/videos_natural\training(29).mov,True,True,left,0,208,208,208,2018-09-19 11:08:20.511112,2018-09-19 11:08:24.431337,0:00:03.920225,5,right,0,0.25041659752241685,25,m,2,9,2018_Sep_19_1047,MP_PerceptionTuring2,59.953613087041276,
210,resources/videos_generated\model(vcgpdm)-dataset(walking)-mode(ELBO)-parts(1)-dyn(23)-lvm(26)_final(6)_hip-corrected.mov,resources/videos_natural\training(13).mov,True,True,left,0,209,209,209,2018-09-19 11:08:25.799415,2018-09-19 11:08:29.735640,0:00:03.936225,5,left,1,0.38390218383483443,25,m,2,9,2018_Sep_19_1047,MP_PerceptionTuring2,59.953613087041276,
211,resources/videos_generated\model(dmp)-dataset(walking)-npsi(80)_final(1).mov,resources/videos_natural\training(27).mov,False,False,right,0,210,210,210,2018-09-19 11:08:31.237726,2018-09-19 11:08:35.173951,0:00:03.936225,5,right,1,0.35076653040596284,25,m,2,9,2018_Sep_19_1047,MP_PerceptionTuring2,59.953613087041276,
212,resources/videos_generated\model(vcgpdm)-dataset(walking)-mode(ELBO)-parts(2)-dyn(23)-lvm(20)_final(0).mov,resources/videos_natural\training(10).mov,True,True,left,0,211,211,211,2018-09-19 11:08:36.642035,2018-09-19 11:08:40.595261,0:00:03.953226,5,left,1,0.2336575259669189,25,m,2,9,2018_Sep_19_1047,MP_PerceptionTuring2,59.953613087041276,
213,resources/videos_generated\model(vcgpdm)-dataset(walking)-mode(ELBO)-parts(1)-dyn(25)-lvm(28)_final(1).mov,resources/videos_natural\training(18).mov,True,False,right,0,212,212,212,2018-09-19 11:08:41.946338,2018-09-19 11:08:45.849562,0:00:03.903224,5,right,1,0.21707554412114405,25,m,2,9,2018_Sep_19_1047,MP_PerceptionTuring2,59.953613087041276,
214,resources/videos_generated\model(vcgpdm)-dataset(walking)-mode(ELBO)-parts(2)-dyn(25)-lvm(18)_final(4).mov,resources/videos_natural\training(38).mov,False,False,right,0,213,213,213,2018-09-19 11:08:47.184638,2018-09-19 11:08:51.120863,0:00:03.936225,5,left,0,0.26717205500244745,25,m,2,9,2018_Sep_19_1047,MP_PerceptionTuring2,59.953613087041276,
215,resources/videos_generated\model(vcgpdm)-dataset(walking)-mode(ELBO)-parts(2)-dyn(24)-lvm(17)_final(0).mov,resources/videos_natural\training(42).mov,False,False,right,0,214,214,214,2018-09-19 11:08:52.505942,2018-09-19 11:08:56.442168,0:00:03.936226,5,right,1,0.28378746704765945,25,m,2,9,2018_Sep_19_1047,MP_PerceptionTuring2,59.953613087041276,
216,resources/videos_generated\model(dmp)-dataset(walking)-npsi(90)_final(5).mov,resources/videos_natural\training(39).mov,False,True,left,0,215,215,215,2018-09-19 11:08:57.843248,2018-09-19 11:09:01.746471,0:00:03.903223,5,right,0,0.5839340479369639,25,m,2,9,2018_Sep_19_1047,MP_PerceptionTuring2,59.953613087041276,
217,resources/videos_generated\model(vcgpdm)-dataset(walking)-mode(ELBO)-parts(1)-dyn(26)-lvm(25)_final(2).mov,resources/videos_natural\training(13).mov,False,True,left,0,216,216,216,2018-09-19 11:09:03.448568,2018-09-19 11:09:07.368793,0:00:03.920225,5,left,1,0.2837272324522928,25,m,2,9,2018_Sep_19_1047,MP_PerceptionTuring2,59.953613087041276,
218,resources/videos_generated\model(vcgpdm)-dataset(walking)-mode(ELBO)-parts(2)-dyn(24)-lvm(19)_final(0).mov,resources/videos_natural\training(39).mov,False,True,left,0,217,217,217,2018-09-19 11:09:08.769873,2018-09-19 11:09:12.706098,0:00:03.936225,5,left,1,0.3338375972898575,25,m,2,9,2018_Sep_19_1047,MP_PerceptionTuring2,59.953613087041276,
219,resources/videos_generated\model(tmp)-dataset(walking)-numprim(14)_final(3).mov,resources/videos_natural\training(9).mov,False,True,left,0,218,218,218,2018-09-19 11:09:14.157181,2018-09-19 11:09:18.077405,0:00:03.920224,5,left,1,0.18381008513824781,25,m,2,9,2018_Sep_19_1047,MP_PerceptionTuring2,59.953613087041276,
220,resources/videos_generated\model(dmp)-dataset(walking)-npsi(80)_final(7).mov,resources/videos_natural\training(25).mov,False,False,right,0,219,219,219,2018-09-19 11:09:19.378479,2018-09-19 11:09:23.298704,0:00:03.920225,5,left,0,0.2171616795940281,25,m,2,9,2018_Sep_19_1047,MP_PerceptionTuring2,59.953613087041276,
221,resources/videos_generated\model(vcgpdm)-dataset(walking)-mode(ELBO)-parts(1)-dyn(22)-lvm(23)_final(7).mov,resources/videos_natural\training(18).mov,True,True,left,0,220,220,220,2018-09-19 11:09:24.633780,2018-09-19 11:09:28.603007,0:00:03.969227,5,left,1,0.23386533532084286,25,m,2,9,2018_Sep_19_1047,MP_PerceptionTuring2,59.953613087041276,
222,resources/videos_generated\model(dmp)-dataset(walking)-npsi(70)_final(1).mov,resources/videos_natural\training(37).mov,False,False,right,0,221,221,221,2018-09-19 11:09:29.954084,2018-09-19 11:09:33.858308,0:00:03.904224,5,right,1,0.23369969018403935,25,m,2,9,2018_Sep_19_1047,MP_PerceptionTuring2,59.953613087041276,
223,resources/videos_generated\model(vcgpdm)-dataset(walking)-mode(ELBO)-parts(2)-dyn(26)-lvm(23)_final(2).mov,resources/videos_natural\training(27).mov,True,False,right,0,222,222,222,2018-09-19 11:09:35.209385,2018-09-19 11:09:39.095607,0:00:03.886222,5,right,1,0.18376009042458463,25,m,2,9,2018_Sep_19_1047,MP_PerceptionTuring2,59.953613087041276,
224,resources/videos_generated\model(vcgpdm)-dataset(walking)-mode(ELBO)-parts(1)-dyn(22)-lvm(22)_final(7).mov,resources/videos_natural\training(21).mov,False,True,left,0,223,223,223,2018-09-19 11:09:40.396682,2018-09-19 11:09:44.316906,0:00:03.920224,5,left,1,0.3838503820834376,25,m,2,9,2018_Sep_19_1047,MP_PerceptionTuring2,59.953613087041276,
225,resources/videos_generated\model(vcgpdm)-dataset(walking)-mode(ELBO)-parts(1)-dyn(23)-lvm(24)_final(8).mov,resources/videos_natural\training(3).mov,False,True,left,0,224,224,224,2018-09-19 11:09:45.817992,2018-09-19 11:09:49.738216,0:00:03.920224,5,left,1,0.23368764326460223,25,m,2,9,2018_Sep_19_1047,MP_PerceptionTuring2,59.953613087041276,
226,resources/videos_generated\model(vcgpdm)-dataset(walking)-mode(ELBO)-parts(1)-dyn(28)-lvm(23)_final(8).mov,resources/videos_natural\training(12).mov,False,True,left,0,225,225,225,2018-09-19 11:10:22.533092,2018-09-19 11:10:26.487318,0:00:03.954226,6,left,1,0.2837570485771721,25,m,2,9,2018_Sep_19_1047,MP_PerceptionTuring2,59.953613087041276,
227,resources/videos_generated\model(vcgpdm)-dataset(walking)-mode(ELBO)-parts(2)-dyn(23)-lvm(20)_final(4).mov,resources/videos_natural\training(7).mov,True,False,right,0,226,226,226,2018-09-19 11:10:27.887398,2018-09-19 11:10:31.807622,0:00:03.920224,6,right,1,0.2504427995709193,25,m,2,9,2018_Sep_19_1047,MP_PerceptionTuring2,59.953613087041276,
228,resources/videos_generated\model(vcgpdm)-dataset(walking)-mode(ELBO)-parts(1)-dyn(24)-lvm(23)_final(3)_fail.mov,resources/videos_natural\training(10).mov,True,False,right,0,227,227,227,2018-09-19 11:10:33.175700,2018-09-19 11:10:37.128927,0:00:03.953227,6,right,1,0.28381547613480507,25,m,2,9,2018_Sep_19_1047,MP_PerceptionTuring2,59.953613087041276,
229,resources/videos_generated\model(dmp)-dataset(walking)-npsi(80)_final(5).mov,resources/videos_natural\training(32).mov,False,True,left,0,228,228,228,2018-09-19 11:10:38.530007,2018-09-19 11:10:42.450231,0:00:03.920224,6,right,0,0.32327666563014645,25,m,2,9,2018_Sep_19_1047,MP_PerceptionTuring2,59.953613087041276,
230,resources/videos_generated\model(vcgpdm)-dataset(walking)-mode(ELBO)-parts(2)-dyn(26)-lvm(21)_final(4).mov,resources/videos_natural\training(2).mov,False,False,right,0,229,229,229,2018-09-19 11:10:43.885313,2018-09-19 11:10:47.788536,0:00:03.903223,6,right,1,0.25050875645410997,25,m,2,9,2018_Sep_19_1047,MP_PerceptionTuring2,59.953613087041276,
231,resources/videos_generated\model(vcgpdm)-dataset(walking)-mode(ELBO)-parts(1)-dyn(28)-lvm(25)_final(0).mov,resources/videos_natural\training(0).mov,True,True,left,0,230,230,230,2018-09-19 11:10:49.156615,2018-09-19 11:10:53.059838,0:00:03.903223,6,left,1,0.03359554456710612,25,m,2,9,2018_Sep_19_1047,MP_PerceptionTuring2,59.953613087041276,
232,resources/videos_generated\model(vcgpdm)-dataset(walking)-mode(ELBO)-parts(1)-dyn(22)-lvm(25)_final(1).mov,resources/videos_natural\training(37).mov,False,True,left,0,231,231,231,2018-09-19 11:10:54.210904,2018-09-19 11:10:58.114127,0:00:03.903223,6,left,1,0.33389150725361105,25,m,2,9,2018_Sep_19_1047,MP_PerceptionTuring2,59.953613087041276,
233,resources/videos_generated\model(vcgpdm)-dataset(walking)-mode(ELBO)-parts(2)-dyn(23)-lvm(20)_final(2).mov,resources/videos_natural\training(24).mov,True,True,left,0,232,232,232,2018-09-19 11:10:59.565210,2018-09-19 11:11:03.452432,0:00:03.887222,6,left,1,0.36709552694901504,25,m,2,9,2018_Sep_19_1047,MP_PerceptionTuring2,59.953613087041276,
234,resources/videos_generated\model(vcgpdm)-dataset(walking)-mode(ELBO)-parts(2)-dyn(24)-lvm(21)_final(6).mov,resources/videos_natural\training(7).mov,True,True,left,0,233,233,233,2018-09-19 11:11:04.936517,2018-09-19 11:11:08.839740,0:00:03.903223,6,right,0,0.3505361330771848,25,m,2,9,2018_Sep_19_1047,MP_PerceptionTuring2,59.953613087041276,
235,resources/videos_generated\model(vcgpdm)-dataset(walking)-mode(ELBO)-parts(1)-dyn(25)-lvm(28)_final(3).mov,resources/videos_natural\training(28).mov,False,False,right,0,234,234,234,2018-09-19 11:11:10.307824,2018-09-19 11:11:14.228049,0:00:03.920225,6,right,1,0.3005405151443483,25,m,2,9,2018_Sep_19_1047,MP_PerceptionTuring2,59.953613087041276,
236,resources/videos_generated\model(vcgpdm)-dataset(walking)-mode(ELBO)-parts(1)-dyn(27)-lvm(26)_final(8).mov,resources/videos_natural\training(9).mov,False,True,left,0,235,235,235,2018-09-19 11:11:15.646130,2018-09-19 11:11:19.566354,0:00:03.920224,6,left,1,0.417278173302293,25,m,2,9,2018_Sep_19_1047,MP_PerceptionTuring2,59.953613087041276,
237,resources/videos_generated\model(vcgpdm)-dataset(walking)-mode(ELBO)-parts(2)-dyn(26)-lvm(19)_final(2).mov,resources/videos_natural\training(12).mov,True,True,left,0,236,236,236,2018-09-19 11:11:21.100442,2018-09-19 11:11:25.053668,0:00:03.953226,6,left,1,0.25047442273444176,25,m,2,9,2018_Sep_19_1047,MP_PerceptionTuring2,59.953613087041276,
238,resources/videos_generated\model(vcgpdm)-dataset(walking)-mode(ELBO)-parts(2)-dyn(28)-lvm(21)_final(8).mov,resources/videos_natural\training(6).mov,False,True,left,0,237,237,237,2018-09-19 11:11:26.421746,2018-09-19 11:11:30.324969,0:00:03.903223,6,right,0,0.20026105673787242,25,m,2,9,2018_Sep_19_1047,MP_PerceptionTuring2,59.953613087041276,
239,resources/videos_generated\model(vcgpdm)-dataset(walking)-mode(ELBO)-parts(1)-dyn(25)-lvm(22)_final(9).mov,resources/videos_natural\training(14).mov,False,True,left,0,238,238,238,2018-09-19 11:11:31.643045,2018-09-19 11:11:35.579270,0:00:03.936225,6,left,1,0.23387286464549106,25,m,2,9,2018_Sep_19_1047,MP_PerceptionTuring2,59.953613087041276,
240,resources/videos_generated\model(vcgpdm)-dataset(walking)-mode(ELBO)-parts(2)-dyn(27)-lvm(20)_final(8).mov,resources/videos_natural\training(41).mov,True,False,right,0,239,239,239,2018-09-19 11:11:36.931347,2018-09-19 11:11:40.867572,0:00:03.936225,6,right,1,0.23374637199503923,25,m,2,9,2018_Sep_19_1047,MP_PerceptionTuring2,59.953613087041276,
241,resources/videos_generated\model(vcgpdm)-dataset(walking)-mode(ELBO)-parts(1)-dyn(22)-lvm(22)_final(5).mov,resources/videos_natural\training(5).mov,True,True,left,0,240,240,240,2018-09-19 11:11:42.218649,2018-09-19 11:11:46.171876,0:00:03.953227,6,left,1,0.20037339425834944,25,m,2,9,2018_Sep_19_1047,MP_PerceptionTuring2,59.953613087041276,
242,resources/videos_generated\model(dmp)-dataset(walking)-npsi(70)_final(9).mov,resources/videos_natural\training(26).mov,False,True,left,0,241,241,241,2018-09-19 11:11:47.489951,2018-09-19 11:11:51.410175,0:00:03.920224,6,left,1,0.20035291449585202,25,m,2,9,2018_Sep_19_1047,MP_PerceptionTuring2,59.953613087041276,
243,resources/videos_generated\model(vcgpdm)-dataset(walking)-mode(ELBO)-parts(1)-dyn(22)-lvm(22)_final(9).mov,resources/videos_natural\training(24).mov,False,False,right,0,242,242,242,2018-09-19 11:11:52.728251,2018-09-19 11:11:56.664476,0:00:03.936225,6,right,1,0.38386604307834205,25,m,2,9,2018_Sep_19_1047,MP_PerceptionTuring2,59.953613087041276,
244,resources/videos_generated\model(vcgpdm)-dataset(walking)-mode(ELBO)-parts(1)-dyn(22)-lvm(25)_final(5).mov,resources/videos_natural\training(29).mov,True,True,left,0,243,243,243,2018-09-19 11:11:58.165562,2018-09-19 11:12:02.085786,0:00:03.920224,6,left,1,0.20041073970787693,25,m,2,9,2018_Sep_19_1047,MP_PerceptionTuring2,59.953613087041276,
245,resources/videos_generated\model(vcgpdm)-dataset(walking)-mode(ELBO)-parts(2)-dyn(28)-lvm(21)_final(4).mov,resources/videos_natural\training(36).mov,True,True,left,0,244,244,244,2018-09-19 11:12:03.403861,2018-09-19 11:12:07.324085,0:00:03.920224,6,left,1,0.6341962039550708,25,m,2,9,2018_Sep_19_1047,MP_PerceptionTuring2,59.953613087041276,
246,resources/videos_generated\model(vcgpdm)-dataset(walking)-mode(ELBO)-parts(2)-dyn(22)-lvm(23)_final(8).mov,resources/videos_natural\training(31).mov,True,False,right,0,245,245,245,2018-09-19 11:12:09.075186,2018-09-19 11:12:13.028412,0:00:03.953226,6,right,1,0.5506345564072035,25,m,2,9,2018_Sep_19_1047,MP_PerceptionTuring2,59.953613087041276,
247,resources/videos_generated\model(vcgpdm)-dataset(walking)-mode(ELBO)-parts(1)-dyn(25)-lvm(28)_final(5).mov,resources/videos_natural\training(43).mov,True,True,left,0,246,246,246,2018-09-19 11:12:14.696507,2018-09-19 11:12:18.616731,0:00:03.920224,6,right,0,0.2837925869889659,25,m,2,9,2018_Sep_19_1047,MP_PerceptionTuring2,59.953613087041276,
248,resources/videos_generated\model(vcgpdm)-dataset(walking)-mode(ELBO)-parts(1)-dyn(23)-lvm(26)_final(4)_hip-corrected.mov,resources/videos_natural\training(32).mov,True,True,left,0,247,247,247,2018-09-19 11:12:20.017811,2018-09-19 11:12:23.905034,0:00:03.887223,6,left,1,0.23376835762246628,25,m,2,9,2018_Sep_19_1047,MP_PerceptionTuring2,59.953613087041276,
249,resources/videos_generated\model(vcgpdm)-dataset(walking)-mode(ELBO)-parts(1)-dyn(25)-lvm(22)_final(3).mov,resources/videos_natural\training(12).mov,True,True,left,0,248,248,248,2018-09-19 11:12:25.256111,2018-09-19 11:12:29.176335,0:00:03.920224,6,left,1,0.1669955977549762,25,m,2,9,2018_Sep_19_1047,MP_PerceptionTuring2,59.953613087041276,
250,resources/videos_generated\model(vcgpdm)-dataset(walking)-mode(ELBO)-parts(2)-dyn(26)-lvm(19)_final(0).mov,resources/videos_natural\training(40).mov,False,True,left,0,249,249,249,2018-09-19 11:12:30.460409,2018-09-19 11:12:34.397634,0:00:03.937225,6,right,0,0.4840232252554415,25,m,2,9,2018_Sep_19_1047,MP_PerceptionTuring2,59.953613087041276,
251,resources/videos_generated\model(vcgpdm)-dataset(walking)-mode(ELBO)-parts(1)-dyn(26)-lvm(25)_final(6).mov,resources/videos_natural\training(48).mov,False,True,left,0,250,250,250,2018-09-19 11:12:35.998726,2018-09-19 11:12:39.934951,0:00:03.936225,6,left,1,0.25057501450919517,25,m,2,9,2018_Sep_19_1047,MP_PerceptionTuring2,59.953613087041276,
252,resources/videos_generated\model(vcgpdm)-dataset(walking)-mode(ELBO)-parts(1)-dyn(23)-lvm(27)_final(0).mov,resources/videos_natural\training(24).mov,False,False,right,0,251,251,251,2018-09-19 11:12:41.303029,2018-09-19 11:12:45.206252,0:00:03.903223,6,right,1,0.16689590949863486,25,m,2,9,2018_Sep_19_1047,MP_PerceptionTuring2,59.953613087041276,
253,resources/videos_generated\model(vcgpdm)-dataset(walking)-mode(ELBO)-parts(1)-dyn(22)-lvm(25)_final(3).mov,resources/videos_natural\training(6).mov,False,True,left,0,252,252,252,2018-09-19 11:12:46.491326,2018-09-19 11:12:50.427551,0:00:03.936225,6,left,1,0.16705854290648858,25,m,2,9,2018_Sep_19_1047,MP_PerceptionTuring2,59.953613087041276,
254,resources/videos_generated\model(dmp)-dataset(walking)-npsi(100)_final(5).mov,resources/videos_natural\training(18).mov,True,False,right,0,253,253,253,2018-09-19 11:12:51.712624,2018-09-19 11:12:55.598847,0:00:03.886223,6,left,0,0.20049868221758516,25,m,2,9,2018_Sep_19_1047,MP_PerceptionTuring2,59.953613087041276,
255,resources/videos_generated\model(vcgpdm)-dataset(walking)-mode(ELBO)-parts(2)-dyn(24)-lvm(19)_final(8).mov,resources/videos_natural\training(1).mov,False,False,right,0,254,254,254,2018-09-19 11:12:56.916922,2018-09-19 11:13:00.837146,0:00:03.920224,6,left,0,0.10038727833216399,25,m,2,9,2018_Sep_19_1047,MP_PerceptionTuring2,59.953613087041276,
256,resources/videos_generated\model(dmp)-dataset(walking)-npsi(60)_final(9).mov,resources/videos_natural\training(20).mov,True,False,right,0,255,255,255,2018-09-19 11:13:02.054216,2018-09-19 11:13:05.907436,0:00:03.853220,6,right,1,0.06705646481350414,25,m,2,9,2018_Sep_19_1047,MP_PerceptionTuring2,59.953613087041276,
257,resources/videos_generated\model(dmp)-dataset(walking)-npsi(60)_final(7).mov,resources/videos_natural\training(5).mov,False,True,left,0,256,256,256,2018-09-19 11:13:07.092504,2018-09-19 11:13:10.978726,0:00:03.886222,6,left,1,0.267183499575367,25,m,2,9,2018_Sep_19_1047,MP_PerceptionTuring2,59.953613087041276,
258,resources/videos_generated\model(vcgpdm)-dataset(walking)-mode(ELBO)-parts(1)-dyn(27)-lvm(22)_final(4).mov,resources/videos_natural\training(14).mov,True,False,right,0,257,257,257,2018-09-19 11:13:12.363805,2018-09-19 11:13:16.284030,0:00:03.920225,6,right,1,0.2003227971981687,25,m,2,9,2018_Sep_19_1047,MP_PerceptionTuring2,59.953613087041276,
259,resources/videos_generated\model(vcgpdm)-dataset(walking)-mode(ELBO)-parts(2)-dyn(28)-lvm(17)_final(2).mov,resources/videos_natural\training(30).mov,False,False,right,0,258,258,258,2018-09-19 11:13:17.601105,2018-09-19 11:13:21.538330,0:00:03.937225,6,right,1,0.2504319573445173,25,m,2,9,2018_Sep_19_1047,MP_PerceptionTuring2,59.953613087041276,
260,resources/videos_generated\model(vcgpdm)-dataset(walking)-mode(ELBO)-parts(1)-dyn(23)-lvm(28)_final(9).mov,resources/videos_natural\training(16).mov,True,False,right,0,259,259,259,2018-09-19 11:13:22.905408,2018-09-19 11:13:26.842634,0:00:03.937226,6,left,0,0.267017854437654,25,m,2,9,2018_Sep_19_1047,MP_PerceptionTuring2,59.953613087041276,
261,resources/videos_generated\model(dmp)-dataset(walking)-npsi(100)_final(7).mov,resources/videos_natural\training(34).mov,True,False,right,0,260,260,260,2018-09-19 11:13:28.226713,2018-09-19 11:13:32.163938,0:00:03.937225,6,left,0,0.23364427435535617,25,m,2,9,2018_Sep_19_1047,MP_PerceptionTuring2,59.953613087041276,
262,resources/videos_generated\model(vcgpdm)-dataset(walking)-mode(ELBO)-parts(1)-dyn(23)-lvm(28)_final(1).mov,resources/videos_natural\training(11).mov,True,False,right,0,261,261,261,2018-09-19 11:13:33.516015,2018-09-19 11:13:37.418239,0:00:03.902224,6,right,1,0.3174004796474037,25,m,2,9,2018_Sep_19_1047,MP_PerceptionTuring2,59.953613087041276,
263,resources/videos_generated\model(vcgpdm)-dataset(walking)-mode(ELBO)-parts(2)-dyn(25)-lvm(22)_final(4).mov,resources/videos_natural\training(16).mov,False,False,right,0,262,262,262,2018-09-19 11:13:38.853321,2018-09-19 11:13:42.773545,0:00:03.920224,6,right,1,0.25040394825737167,25,m,2,9,2018_Sep_19_1047,MP_PerceptionTuring2,59.953613087041276,
264,resources/videos_generated\model(vcgpdm)-dataset(walking)-mode(ELBO)-parts(1)-dyn(24)-lvm(23)_final(1).mov,resources/videos_natural\training(10).mov,False,True,left,0,263,263,263,2018-09-19 11:13:44.140623,2018-09-19 11:13:48.010844,0:00:03.870221,6,left,1,0.23378070571470744,25,m,2,9,2018_Sep_19_1047,MP_PerceptionTuring2,59.953613087041276,
265,resources/videos_generated\model(vcgpdm)-dataset(walking)-mode(ELBO)-parts(1)-dyn(28)-lvm(25)_final(2).mov,resources/videos_natural\training(13).mov,True,False,right,0,264,264,264,2018-09-19 11:13:49.361922,2018-09-19 11:13:53.249144,0:00:03.887222,6,left,0,0.31728543156987143,25,m,2,9,2018_Sep_19_1047,MP_PerceptionTuring2,59.953613087041276,
266,resources/videos_generated\model(vcgpdm)-dataset(walking)-mode(ELBO)-parts(2)-dyn(25)-lvm(18)_final(8).mov,resources/videos_natural\training(22).mov,False,False,right,0,265,265,265,2018-09-19 11:13:54.683226,2018-09-19 11:13:58.586449,0:00:03.903223,6,right,1,0.0669534636544995,25,m,2,9,2018_Sep_19_1047,MP_PerceptionTuring2,59.953613087041276,
267,resources/videos_generated\model(tmp)-dataset(walking)-numprim(14)_final(7).mov,resources/videos_natural\training(42).mov,False,True,left,0,266,266,266,2018-09-19 11:13:59.771517,2018-09-19 11:14:03.674740,0:00:03.903223,6,right,0,0.38388441462939227,25,m,2,9,2018_Sep_19_1047,MP_PerceptionTuring2,59.953613087041276,
268,resources/videos_generated\model(vcgpdm)-dataset(walking)-mode(ELBO)-parts(2)-dyn(23)-lvm(20)_final(6).mov,resources/videos_natural\training(29).mov,True,False,right,0,267,267,267,2018-09-19 11:14:05.175826,2018-09-19 11:14:09.079049,0:00:03.903223,6,right,1,0.2171285505664855,25,m,2,9,2018_Sep_19_1047,MP_PerceptionTuring2,59.953613087041276,
269,resources/videos_generated\model(vcgpdm)-dataset(walking)-mode(ELBO)-parts(1)-dyn(27)-lvm(26)_final(4).mov,resources/videos_natural\training(4).mov,True,False,right,0,268,268,268,2018-09-19 11:14:10.413126,2018-09-19 11:14:14.300348,0:00:03.887222,6,right,1,0.2671503705478244,25,m,2,9,2018_Sep_19_1047,MP_PerceptionTuring2,59.953613087041276,
270,resources/videos_generated\model(vcgpdm)-dataset(walking)-mode(ELBO)-parts(1)-dyn(27)-lvm(26)_final(2).mov,resources/videos_natural\training(48).mov,False,True,left,0,269,269,269,2018-09-19 11:14:15.684427,2018-09-19 11:14:19.604651,0:00:03.920224,6,left,1,0.31728693743571057,25,m,2,9,2018_Sep_19_1047,MP_PerceptionTuring2,59.953613087041276,
271,resources/videos_generated\model(vcgpdm)-dataset(walking)-mode(ELBO)-parts(2)-dyn(26)-lvm(23)_final(4).mov,resources/videos_natural\training(43).mov,False,True,left,0,270,270,270,2018-09-19 11:14:52.366525,2018-09-19 11:14:56.353753,0:00:03.987228,7,left,1,0.3505942594629232,25,m,2,9,2018_Sep_19_1047,MP_PerceptionTuring2,59.953613087041276,
272,resources/videos_generated\model(tmp)-dataset(walking)-numprim(12)_final(7).mov,resources/videos_natural\training(45).mov,False,False,right,0,271,271,271,2018-09-19 11:14:57.820837,2018-09-19 11:15:01.725061,0:00:03.904224,7,right,1,0.05032389647931268,25,m,2,9,2018_Sep_19_1047,MP_PerceptionTuring2,59.953613087041276,
273,resources/videos_generated\model(tmp)-dataset(walking)-numprim(14)_final(1).mov,resources/videos_natural\training(31).mov,False,True,left,0,272,272,272,2018-09-19 11:15:02.892127,2018-09-19 11:15:06.795351,0:00:03.903224,7,right,0,0.33385506532249565,25,m,2,9,2018_Sep_19_1047,MP_PerceptionTuring2,59.953613087041276,
274,resources/videos_generated\model(vcgpdm)-dataset(walking)-mode(ELBO)-parts(2)-dyn(22)-lvm(23)_final(2).mov,resources/videos_natural\training(12).mov,True,False,right,0,273,273,273,2018-09-19 11:15:08.246434,2018-09-19 11:15:12.166658,0:00:03.920224,7,right,1,0.35066533628560137,25,m,2,9,2018_Sep_19_1047,MP_PerceptionTuring2,59.953613087041276,
275,resources/videos_generated\model(vcgpdm)-dataset(walking)-mode(ELBO)-parts(2)-dyn(25)-lvm(22)_final(8).mov,resources/videos_natural\training(46).mov,True,False,right,0,274,274,274,2018-09-19 11:15:13.634742,2018-09-19 11:15:17.554966,0:00:03.920224,7,left,0,0.233728000443989,25,m,2,9,2018_Sep_19_1047,MP_PerceptionTuring2,59.953613087041276,
276,resources/videos_generated\model(vcgpdm)-dataset(walking)-mode(ELBO)-parts(2)-dyn(28)-lvm(19)_final(2).mov,resources/videos_natural\training(48).mov,True,False,right,0,275,275,275,2018-09-19 11:15:18.906043,2018-09-19 11:15:22.843268,0:00:03.937225,7,right,1,0.2503404007593417,25,m,2,9,2018_Sep_19_1047,MP_PerceptionTuring2,59.953613087041276,
277,resources/videos_generated\model(vcgpdm)-dataset(walking)-mode(ELBO)-parts(2)-dyn(27)-lvm(20)_final(4).mov,resources/videos_natural\training(3).mov,False,False,right,0,276,276,276,2018-09-19 11:15:24.210347,2018-09-19 11:15:28.147572,0:00:03.937225,7,left,0,0.36730303513104445,25,m,2,9,2018_Sep_19_1047,MP_PerceptionTuring2,59.953613087041276,
278,resources/videos_generated\model(vcgpdm)-dataset(walking)-mode(ELBO)-parts(1)-dyn(26)-lvm(25)_final(4).mov,resources/videos_natural\training(1).mov,True,True,left,0,277,277,277,2018-09-19 11:15:29.631657,2018-09-19 11:15:33.585883,0:00:03.954226,7,left,1,0.3511008324121576,25,m,2,9,2018_Sep_19_1047,MP_PerceptionTuring2,59.953613087041276,
279,resources/videos_generated\model(dmp)-dataset(walking)-npsi(100)_final(9).mov,resources/videos_natural\training(3).mov,True,True,left,0,278,278,278,2018-09-19 11:15:35.052967,2018-09-19 11:15:38.990192,0:00:03.937225,7,right,0,0.21711740716546046,25,m,2,9,2018_Sep_19_1047,MP_PerceptionTuring2,59.953613087041276,
280,resources/videos_generated\model(dmp)-dataset(walking)-npsi(50)_final(5).mov,resources/videos_natural\training(45).mov,True,False,right,0,279,279,279,2018-09-19 11:15:40.324268,2018-09-19 11:15:44.261494,0:00:03.937226,7,right,1,0.20059475639754965,25,m,2,9,2018_Sep_19_1047,MP_PerceptionTuring2,59.953613087041276,
281,resources/videos_generated\model(vcgpdm)-dataset(walking)-mode(ELBO)-parts(1)-dyn(25)-lvm(26)_final(9).mov,resources/videos_natural\training(33).mov,False,True,left,0,280,280,280,2018-09-19 11:15:45.579569,2018-09-19 11:15:49.515794,0:00:03.936225,7,left,1,0.41722426333944895,25,m,2,9,2018_Sep_19_1047,MP_PerceptionTuring2,59.953613087041276,
282,resources/videos_generated\model(vcgpdm)-dataset(walking)-mode(ELBO)-parts(1)-dyn(24)-lvm(25)_final(5).mov,resources/videos_natural\training(9).mov,True,True,left,0,281,281,281,2018-09-19 11:15:51.050882,2018-09-19 11:15:54.987107,0:00:03.936225,7,left,1,0.2504864696547884,25,m,2,9,2018_Sep_19_1047,MP_PerceptionTuring2,59.953613087041276,
283,resources/videos_generated\model(vcgpdm)-dataset(walking)-mode(ELBO)-parts(1)-dyn(26)-lvm(27)_final(4).mov,resources/videos_natural\training(29).mov,True,False,right,0,282,282,282,2018-09-19 11:15:56.355185,2018-09-19 11:16:00.275409,0:00:03.920224,7,left,0,0.2504952036706527,25,m,2,9,2018_Sep_19_1047,MP_PerceptionTuring2,59.953613087041276,
284,resources/videos_generated\model(tmp)-dataset(walking)-numprim(14)_final(5).mov,resources/videos_natural\training(4).mov,False,False,right,0,283,283,283,2018-09-19 11:16:01.642488,2018-09-19 11:16:05.546711,0:00:03.904223,7,right,1,0.38394193866770365,25,m,2,9,2018_Sep_19_1047,MP_PerceptionTuring2,59.953613087041276,
285,resources/videos_generated\model(dmp)-dataset(walking)-npsi(100)_final(1).mov,resources/videos_natural\training(35).mov,False,True,left,0,284,284,284,2018-09-19 11:16:07.047797,2018-09-19 11:16:10.951020,0:00:03.903223,7,left,1,0.21710144499775197,25,m,2,9,2018_Sep_19_1047,MP_PerceptionTuring2,59.953613087041276,
286,resources/videos_generated\model(vcgpdm)-dataset(walking)-mode(ELBO)-parts(2)-dyn(23)-lvm(18)_final(4).mov,resources/videos_natural\training(4).mov,True,True,left,0,285,285,285,2018-09-19 11:16:12.285096,2018-09-19 11:16:16.172319,0:00:03.887223,7,left,1,0.25049369780572306,25,m,2,9,2018_Sep_19_1047,MP_PerceptionTuring2,59.953613087041276,
287,resources/videos_generated\model(vcgpdm)-dataset(walking)-mode(ELBO)-parts(1)-dyn(23)-lvm(24)_final(4).mov,resources/videos_natural\training(27).mov,False,True,left,0,286,286,286,2018-09-19 11:16:17.540397,2018-09-19 11:16:21.459621,0:00:03.919224,7,left,1,0.23380871480003407,25,m,2,9,2018_Sep_19_1047,MP_PerceptionTuring2,59.953613087041276,
288,resources/videos_generated\model(vcgpdm)-dataset(walking)-mode(ELBO)-parts(2)-dyn(22)-lvm(17)_final(4).mov,resources/videos_natural\training(25).mov,True,False,right,0,287,287,287,2018-09-19 11:16:22.811698,2018-09-19 11:16:26.697921,0:00:03.886223,7,left,0,0.3337767603497923,25,m,2,9,2018_Sep_19_1047,MP_PerceptionTuring2,59.953613087041276,
289,resources/videos_generated\model(vcgpdm)-dataset(walking)-mode(ELBO)-parts(2)-dyn(27)-lvm(18)_final(8).mov,resources/videos_natural\training(14).mov,False,True,left,0,288,288,288,2018-09-19 11:16:28.149004,2018-09-19 11:16:32.102230,0:00:03.953226,7,left,1,0.2838829388820159,25,m,2,9,2018_Sep_19_1047,MP_PerceptionTuring2,59.953613087041276,
290,resources/videos_generated\model(vcgpdm)-dataset(walking)-mode(ELBO)-parts(1)-dyn(25)-lvm(22)_final(5).mov,resources/videos_natural\training(33).mov,True,False,right,0,289,289,289,2018-09-19 11:16:33.504310,2018-09-19 11:16:37.624546,0:00:04.120236,7,right,1,0.30048329227793147,25,m,2,9,2018_Sep_19_1047,MP_PerceptionTuring2,59.953613087041276,
291,resources/videos_generated\model(vcgpdm)-dataset(walking)-mode(ELBO)-parts(2)-dyn(23)-lvm(18)_final(6).mov,resources/videos_natural\training(20).mov,True,True,left,0,290,290,290,2018-09-19 11:16:39.041627,2018-09-19 11:16:42.978852,0:00:03.937225,7,left,1,0.2505912778487982,25,m,2,9,2018_Sep_19_1047,MP_PerceptionTuring2,59.953613087041276,
